Data from 1_mm_pl_70pc_Absorbance__0__16-39-03-522.txt Node

Date: Wed Mar 08 16:39:03 CET 2023
User: Ange
Spectrometer: FLMT08341
Trigger mode: 0
Integration Time (sec): 1.000000E-2
Scans to average: 400
Electric dark correction enabled: true
Nonlinearity correction enabled: false
Boxcar width: 3
XAxis mode: Wavelengths
Number of Pixels in Spectrum: 3648
>>>>>Begin Spectral Data<<<<<
345.271	0.05737431
345.487	0.0514255
345.704	0.04921701
345.921	0.05350269
346.137	0.04696132
346.354	0.0362507
346.571	0.0458024
346.787	-0.0973724
347.004	0.00752198
347.22	0.02227826
347.437	0.08142792
347.653	0.049597
347.87	0.01217436
348.086	0.01901667
348.303	-0
348.519	0.38496564
348.736	0.357711
348.952	0.35157062
349.169	0.36049659
349.385	0.37450164
349.601	0.37260393
349.818	0.36536839
350.034	0.35939575
350.251	0.35561117
350.467	0.35996334
350.683	0.34877173
350.9	0.3473463
351.116	0.34489718
351.332	0.34118927
351.549	0.34921081
351.765	0.36018502
351.981	0.36293466
352.197	0.37842671
352.414	0.39523526
352.63	0.40203216
352.846	0.41533906
353.062	0.41343185
353.278	0.40451336
353.495	0.41409492
353.711	0.41540377
353.927	0.41462469
354.143	0.41457952
354.359	0.40766885
354.575	0.40532702
354.792	0.41569068
355.008	0.40876521
355.224	0.40250287
355.44	0.3960321
355.656	0.39401929
355.872	0.40215926
356.088	0.42184535
356.304	0.42484641
356.52	0.42730596
356.736	0.43250879
356.952	0.43802184
357.168	0.44077007
357.384	0.44400964
357.6	0.42976158
357.816	0.43328201
358.032	0.43966489
358.248	0.44928724
358.464	0.45050644
358.679	0.45587396
358.895	0.45534912
359.111	0.46449376
359.327	0.45704931
359.543	0.46045523
359.759	0.46363052
359.974	0.46438109
360.19	0.46292752
360.406	0.46552746
360.622	0.46165934
360.838	0.46057033
361.053	0.4615595
361.269	0.46357386
361.485	0.4642611
361.701	0.46955521
361.916	0.46381464
362.132	0.465559
362.348	0.47155245
362.563	0.47377086
362.779	0.46957774
362.995	0.47380994
363.21	0.47745507
363.426	0.4812442
363.641	0.48244958
363.857	0.48606785
364.073	0.48390386
364.288	0.48169014
364.504	0.48845917
364.719	0.48857906
364.935	0.49051529
365.15	0.49266872
365.366	0.49390373
365.581	0.50101716
365.797	0.50779233
366.012	0.50114912
366.228	0.49606894
366.443	0.50220609
366.658	0.50343474
366.874	0.49946941
367.089	0.50328072
367.305	0.50348582
367.52	0.50816538
367.735	0.50922544
367.951	0.50711471
368.166	0.51077638
368.381	0.52171344
368.597	0.51890655
368.812	0.52416485
369.027	0.5282389
369.243	0.53294862
369.458	0.54494877
369.673	0.54633077
369.888	0.54458416
370.104	0.54211562
370.319	0.54424949
370.534	0.5430953
370.749	0.54538775
370.964	0.54228682
371.179	0.54215876
371.395	0.54097735
371.61	0.54685341
371.825	0.54123319
372.04	0.54233887
372.255	0.53962347
372.47	0.53799739
372.685	0.5352747
372.9	0.53474569
373.115	0.53318678
373.33	0.53865186
373.545	0.53967396
373.76	0.54421992
373.975	0.54353091
374.19	0.54481063
374.405	0.54776668
374.62	0.55483613
374.835	0.56007044
375.05	0.56148933
375.265	0.56216858
375.48	0.56483113
375.695	0.57509178
375.91	0.57311639
376.125	0.56440066
376.339	0.55615933
376.554	0.55842499
376.769	0.56007534
376.984	0.56003051
377.199	0.55954812
377.414	0.56106196
377.628	0.56833584
377.843	0.57606211
378.058	0.57725627
378.273	0.58086389
378.487	0.58317459
378.702	0.5839692
378.917	0.58621491
379.131	0.58458356
379.346	0.5776921
379.561	0.57499559
379.775	0.57195118
379.99	0.56918766
380.205	0.56500588
380.419	0.56152793
380.634	0.55827006
380.848	0.56506106
381.063	0.56606649
381.278	0.57165858
381.492	0.56933856
381.707	0.57449478
381.921	0.5764364
382.136	0.5834093
382.35	0.58020247
382.565	0.57870895
382.779	0.57834066
382.994	0.58254072
383.208	0.579659
383.422	0.58469559
383.637	0.58192299
383.851	0.58613937
384.066	0.59158575
384.28	0.5935807
384.494	0.59461675
384.709	0.59821683
384.923	0.59848511
385.137	0.596794
385.352	0.59754872
385.566	0.5989383
385.78	0.59696717
385.995	0.59645982
386.209	0.59366368
386.423	0.59541193
386.637	0.59978072
386.852	0.59534839
387.066	0.59398045
387.28	0.59121503
387.494	0.59477946
387.708	0.59719067
387.923	0.59532775
388.137	0.59693589
388.351	0.60049478
388.565	0.60267347
388.779	0.6064914
388.993	0.61162013
389.207	0.61217841
389.421	0.61431537
389.635	0.61233887
389.85	0.61255909
390.064	0.61256269
390.278	0.61366135
390.492	0.61307885
390.706	0.61416259
390.92	0.61521118
391.134	0.61933175
391.348	0.62550111
391.561	0.6246732
391.775	0.62309955
391.989	0.61901277
392.203	0.62021305
392.417	0.62072683
392.631	0.62229217
392.845	0.61766244
393.059	0.62045904
393.273	0.62053053
393.486	0.61786086
393.7	0.61449454
393.914	0.61573566
394.128	0.61363099
394.342	0.61271108
394.555	0.60860647
394.769	0.60934483
394.983	0.61283095
395.197	0.61531346
395.41	0.61572255
395.624	0.6176084
395.838	0.61819762
396.051	0.62516793
396.265	0.62306965
396.479	0.62443728
396.692	0.62670078
396.906	0.62505423
397.12	0.62334758
397.333	0.62596681
397.547	0.62282061
397.76	0.62724211
397.974	0.62708085
398.187	0.62688666
398.401	0.62924985
398.614	0.63011535
398.828	0.63043677
399.041	0.63133701
399.255	0.63006318
399.468	0.62972824
399.682	0.62929176
399.895	0.62950319
400.109	0.62855306
400.322	0.6269567
400.536	0.62345654
400.749	0.62583957
400.962	0.62646399
401.176	0.62462866
401.389	0.62345742
401.602	0.62086296
401.816	0.62179371
402.029	0.62443375
402.242	0.62241816
402.456	0.62236982
402.669	0.62165168
402.882	0.61802635
403.095	0.62176547
403.309	0.62151345
403.522	0.62233526
403.735	0.62059324
403.948	0.61952732
404.161	0.624469
404.375	0.62627967
404.588	0.62534388
404.801	0.62508042
405.014	0.622959
405.227	0.62627786
405.44	0.62751419
405.653	0.62650879
405.866	0.62535132
406.079	0.62446967
406.293	0.62331164
406.506	0.62318008
406.719	0.62112465
406.932	0.61970995
407.145	0.61636184
407.358	0.61973696
407.571	0.6179725
407.784	0.61867802
407.996	0.61865618
408.209	0.61662253
408.422	0.61535997
408.635	0.61623515
408.848	0.61488998
409.061	0.61320598
409.274	0.61223116
409.487	0.61152078
409.7	0.61187372
409.912	0.61280167
410.125	0.61192561
410.338	0.61097256
410.551	0.61120955
410.764	0.61105932
410.976	0.61050243
411.189	0.6099166
411.402	0.60716073
411.615	0.607215
411.827	0.60616425
412.04	0.60625786
412.253	0.60456223
412.465	0.6032168
412.678	0.60213326
412.891	0.60295391
413.103	0.59923256
413.316	0.59783583
413.529	0.59835643
413.741	0.59902233
413.954	0.59969838
414.166	0.59924569
414.379	0.59791386
414.591	0.59983426
414.804	0.59869487
415.016	0.59727213
415.229	0.59563412
415.441	0.59323736
415.654	0.59337326
415.866	0.5926212
416.079	0.59239718
416.291	0.59125754
416.504	0.59165834
416.716	0.59105703
416.928	0.59078403
417.141	0.58862229
417.353	0.58862958
417.566	0.5851505
417.778	0.58464006
417.99	0.58095125
418.203	0.57866563
418.415	0.57753606
418.627	0.57705391
418.839	0.5754397
419.052	0.57686334
419.264	0.57602915
419.476	0.57644368
419.688	0.57661751
419.901	0.57538093
420.113	0.57414591
420.325	0.57294914
420.537	0.57039379
420.749	0.56994968
420.961	0.5690519
421.174	0.56740435
421.386	0.56615315
421.598	0.56503569
421.81	0.56364094
422.022	0.56219513
422.234	0.56091107
422.446	0.55904007
422.658	0.55782802
422.87	0.55703055
423.082	0.55577731
423.294	0.55450792
423.506	0.55385369
423.718	0.5519812
423.93	0.55027867
424.142	0.54839857
424.354	0.54669172
424.566	0.54487693
424.778	0.54401746
424.99	0.54246234
425.202	0.54048378
425.414	0.53968226
425.625	0.53964478
425.837	0.53761994
426.049	0.53737328
426.261	0.53550299
426.473	0.53351395
426.684	0.53281434
426.896	0.53215706
427.108	0.52959054
427.32	0.5289471
427.531	0.52677754
427.743	0.52551224
427.955	0.52545811
428.167	0.52366592
428.378	0.52153326
428.59	0.52019644
428.802	0.51862958
429.013	0.51720999
429.225	0.51567712
429.436	0.51348561
429.648	0.51254227
429.86	0.51182191
430.071	0.51104274
430.283	0.50994818
430.494	0.50802143
430.706	0.50640702
430.917	0.50484819
431.129	0.50315232
431.34	0.50122012
431.552	0.49990867
431.763	0.49811237
431.975	0.49746031
432.186	0.49564363
432.398	0.49404035
432.609	0.49180667
432.821	0.49030913
433.032	0.48813381
433.243	0.48609983
433.455	0.48441573
433.666	0.48322168
433.877	0.48235388
434.089	0.4806351
434.3	0.47880886
434.511	0.4768526
434.723	0.47538634
434.934	0.47307892
435.145	0.47070865
435.356	0.46832208
435.568	0.46695125
435.779	0.46491784
435.99	0.46270826
436.201	0.46092625
436.412	0.45926781
436.624	0.45830845
436.835	0.45724783
437.046	0.45626958
437.257	0.45468195
437.468	0.45433286
437.679	0.45347031
437.89	0.45181569
438.101	0.45061277
438.312	0.44887702
438.523	0.44696919
438.734	0.44558085
438.945	0.44400021
439.156	0.44159697
439.367	0.44071595
439.578	0.4391814
439.789	0.43708889
440	0.43585423
440.211	0.43398691
440.422	0.43219511
440.633	0.43137982
440.844	0.42912665
441.055	0.42727434
441.266	0.42619346
441.477	0.42401368
441.687	0.42253305
441.898	0.42082151
442.109	0.41873021
442.32	0.41710391
442.531	0.41479448
442.741	0.41229286
442.952	0.41079695
443.163	0.40946747
443.374	0.40761603
443.584	0.40577829
443.795	0.40433212
444.006	0.40309347
444.216	0.4016139
444.427	0.39951733
444.638	0.39748736
444.848	0.39582869
445.059	0.39414148
445.27	0.39221836
445.48	0.3905453
445.691	0.38890805
445.901	0.38775338
446.112	0.38619209
446.323	0.38425348
446.533	0.38269074
446.744	0.38086702
446.954	0.37893728
447.165	0.37734143
447.375	0.37588509
447.586	0.37456111
447.796	0.37341341
448.006	0.37170114
448.217	0.37065076
448.427	0.36914764
448.638	0.36733473
448.848	0.3653036
449.058	0.3633788
449.269	0.36161816
449.479	0.3602327
449.689	0.35837217
449.9	0.3569084
450.11	0.35544509
450.32	0.35423797
450.531	0.35264932
450.741	0.35105495
450.951	0.34953965
451.161	0.34783083
451.372	0.34632785
451.582	0.34545998
451.792	0.34377579
452.002	0.34238083
452.212	0.34073631
452.422	0.33925322
452.633	0.33793438
452.843	0.33680587
453.053	0.33472593
453.263	0.33337235
453.473	0.33190829
453.683	0.33084452
453.893	0.32917215
454.103	0.32795826
454.313	0.32649382
454.523	0.32514272
454.733	0.32380662
454.943	0.32268189
455.153	0.32157394
455.363	0.32028915
455.573	0.31907379
455.783	0.31793189
455.993	0.31670948
456.203	0.31561526
456.413	0.31421036
456.623	0.3123597
456.833	0.31157496
457.042	0.31021006
457.252	0.30887288
457.462	0.30745138
457.672	0.3061877
457.882	0.30490694
458.091	0.30399134
458.301	0.30230087
458.511	0.30101562
458.721	0.29990539
458.931	0.2988344
459.14	0.2977538
459.35	0.29691492
459.56	0.29576523
459.769	0.29490652
459.979	0.29376402
460.189	0.29252187
460.398	0.29141363
460.608	0.29033748
460.817	0.28919963
461.027	0.28811011
461.237	0.28705244
461.446	0.2860068
461.656	0.28511565
461.865	0.28416459
462.075	0.28308485
462.284	0.28216202
462.494	0.28110021
462.703	0.27990186
462.913	0.27897986
463.122	0.27790989
463.332	0.27694687
463.541	0.27610418
463.751	0.27506135
463.96	0.27438293
464.169	0.2737364
464.379	0.27308285
464.588	0.2724121
464.797	0.271744
465.007	0.2710104
465.216	0.27031985
465.425	0.26955423
465.635	0.26889402
465.844	0.26815644
466.053	0.26735356
466.263	0.26670459
466.472	0.26588147
466.681	0.26531516
466.89	0.26465525
467.099	0.26403065
467.309	0.26345494
467.518	0.26294079
467.727	0.2624518
467.936	0.26198031
468.145	0.26146527
468.354	0.26112497
468.563	0.26046971
468.772	0.25984854
468.982	0.25925074
469.191	0.25871843
469.4	0.25817046
469.609	0.25766662
469.818	0.25724771
470.027	0.25697339
470.236	0.25659058
470.445	0.25626258
470.654	0.2558608
470.863	0.25536852
471.072	0.25509502
471.28	0.25455131
471.489	0.25418531
471.698	0.25383425
471.907	0.25345571
472.116	0.25312261
472.325	0.25294194
472.534	0.25252763
472.743	0.25225471
472.951	0.25222857
473.16	0.25212139
473.369	0.25195854
473.578	0.2518074
473.786	0.25171034
473.995	0.25151872
474.204	0.25139991
474.413	0.25100412
474.621	0.25089599
474.83	0.25090206
475.039	0.25066944
475.247	0.25057446
475.456	0.2506324
475.665	0.25056976
475.873	0.25056985
476.082	0.25040589
476.291	0.25031172
476.499	0.25031683
476.708	0.25019243
476.916	0.25008466
477.125	0.25005644
477.333	0.2500087
477.542	0.25001755
477.75	0.24999927
477.959	0.25014225
478.167	0.25027906
478.376	0.25031393
478.584	0.25044645
478.793	0.2505564
479.001	0.25075999
479.209	0.25087968
479.418	0.25102157
479.626	0.25123341
479.834	0.25139868
480.043	0.25164788
480.251	0.25172931
480.459	0.25187573
480.668	0.25211971
480.876	0.25235306
481.084	0.25258726
481.293	0.25296073
481.501	0.2531906
481.709	0.25372349
481.917	0.25412156
482.125	0.25436512
482.334	0.25467477
482.542	0.25490698
482.75	0.25516343
482.958	0.25557004
483.166	0.25591549
483.374	0.25628061
483.583	0.25674136
483.791	0.25712516
483.999	0.25756402
484.207	0.25799953
484.415	0.2584154
484.623	0.25878371
484.831	0.25921043
485.039	0.25969363
485.247	0.26019645
485.455	0.26082185
485.663	0.26146737
485.871	0.261924
486.079	0.26241924
486.287	0.26292905
486.495	0.26339902
486.702	0.26396628
486.91	0.26446037
487.118	0.26489372
487.326	0.26546843
487.534	0.26609995
487.742	0.26670978
487.95	0.26745961
488.157	0.26813148
488.365	0.26882008
488.573	0.26961517
488.781	0.27037377
488.988	0.2712461
489.196	0.27209937
489.404	0.27281617
489.612	0.27362361
489.819	0.27439371
490.027	0.27511509
490.235	0.27594072
490.442	0.27669602
490.65	0.27743287
490.857	0.27830107
491.065	0.27897571
491.273	0.27974184
491.48	0.28055897
491.688	0.2812809
491.895	0.28207712
492.103	0.28290353
492.31	0.28371863
492.518	0.28465864
492.725	0.28563136
492.933	0.28653022
493.14	0.28749505
493.348	0.28833229
493.555	0.28919321
493.763	0.29006327
493.97	0.29109579
494.177	0.29191644
494.385	0.29287063
494.592	0.29391601
494.8	0.29496707
495.007	0.29607001
495.214	0.29715297
495.422	0.2981181
495.629	0.29928691
495.836	0.30030086
496.043	0.30126677
496.251	0.3023318
496.458	0.30329216
496.665	0.30431734
496.872	0.30542185
497.08	0.30651804
497.287	0.30770832
497.494	0.30891517
497.701	0.3099638
497.908	0.31120996
498.115	0.31229344
498.322	0.31331871
498.53	0.31436333
498.737	0.31546847
498.944	0.31655895
499.151	0.3178193
499.358	0.31893116
499.565	0.32001015
499.772	0.32129153
499.979	0.32249327
500.186	0.3237014
500.393	0.32489128
500.6	0.32608213
500.807	0.32732761
501.014	0.32865032
501.221	0.32980073
501.427	0.33104946
501.634	0.33232586
501.841	0.33359821
502.048	0.33483533
502.255	0.3360293
502.462	0.33732769
502.669	0.33874014
502.875	0.34009783
503.082	0.3413817
503.289	0.34267425
503.496	0.34403455
503.702	0.34531254
503.909	0.34664147
504.116	0.34796549
504.323	0.34931449
504.529	0.35071507
504.736	0.35212167
504.943	0.35348262
505.149	0.35494502
505.356	0.35633793
505.563	0.3577709
505.769	0.35914155
505.976	0.3604852
506.182	0.36190235
506.389	0.36334773
506.595	0.36484933
506.802	0.36634186
507.008	0.36768433
507.215	0.36917346
507.421	0.37064138
507.628	0.37212467
507.834	0.37351913
508.041	0.37484805
508.247	0.37621664
508.454	0.3777745
508.66	0.37918802
508.866	0.38068889
509.073	0.38219206
509.279	0.38374875
509.486	0.38531449
509.692	0.38680347
509.898	0.38835649
510.105	0.3899139
510.311	0.39134972
510.517	0.39287272
510.723	0.39436818
510.93	0.39583918
511.136	0.39749887
511.342	0.39901334
511.548	0.40048868
511.754	0.40218117
511.961	0.40361217
512.167	0.40510471
512.373	0.40669849
512.579	0.40816797
512.785	0.40967006
512.991	0.41119299
513.197	0.41264897
513.404	0.41427792
513.61	0.41597902
513.816	0.41754281
514.022	0.41919237
514.228	0.42074606
514.434	0.42227564
514.64	0.42384084
514.846	0.42543572
515.052	0.42696604
515.258	0.42851737
515.464	0.43000949
515.669	0.43165897
515.875	0.43331077
516.081	0.4349215
516.287	0.43657504
516.493	0.43817257
516.699	0.43977053
516.905	0.44142522
517.111	0.44298266
517.316	0.44468579
517.522	0.44633525
517.728	0.44795505
517.934	0.44952657
518.139	0.45118962
518.345	0.4527781
518.551	0.45443098
518.757	0.45603506
518.962	0.45761476
519.168	0.45920729
519.374	0.46087211
519.579	0.46240353
519.785	0.46405506
519.991	0.46567682
520.196	0.46718151
520.402	0.46880139
520.607	0.47045012
520.813	0.4721893
521.018	0.47389711
521.224	0.47545051
521.429	0.47711971
521.635	0.47889422
521.84	0.48047592
522.046	0.48212033
522.251	0.48364868
522.457	0.48524715
522.662	0.4869507
522.868	0.4885833
523.073	0.49005515
523.279	0.49170594
523.484	0.49324827
523.689	0.49475572
523.895	0.49640988
524.1	0.49797152
524.305	0.49954738
524.511	0.50118636
524.716	0.50276099
524.921	0.50436534
525.126	0.50606677
525.332	0.50757224
525.537	0.5090778
525.742	0.51072118
525.947	0.51239113
526.153	0.51399257
526.358	0.51567261
526.563	0.51724906
526.768	0.51885288
526.973	0.52057831
527.178	0.52215845
527.383	0.52376309
527.588	0.52534585
527.794	0.52682555
527.999	0.52840162
528.204	0.52996232
528.409	0.53139877
528.614	0.5329958
528.819	0.5345177
529.024	0.5360069
529.229	0.53752365
529.434	0.53917635
529.639	0.54071636
529.843	0.5423441
530.048	0.54378314
530.253	0.54518513
530.458	0.54676491
530.663	0.54832643
530.868	0.54981791
531.073	0.55128913
531.278	0.55275137
531.482	0.55427294
531.687	0.55597541
531.892	0.55743467
532.097	0.55882385
532.302	0.56037763
532.506	0.56194624
532.711	0.56343266
532.916	0.5649289
533.12	0.5663736
533.325	0.56792002
533.53	0.56960482
533.734	0.57099693
533.939	0.57252361
534.144	0.57414536
534.348	0.5756978
534.553	0.57720456
534.757	0.57871055
534.962	0.5801072
535.167	0.58157634
535.371	0.58299961
535.576	0.58450336
535.78	0.58592975
535.985	0.58730203
536.189	0.58861436
536.394	0.59003789
536.598	0.59136201
536.803	0.59276296
537.007	0.59416703
537.211	0.59560358
537.416	0.59695676
537.62	0.59840004
537.825	0.59974809
538.029	0.60141922
538.233	0.6028139
538.438	0.60415649
538.642	0.60531451
538.846	0.60683805
539.05	0.60812073
539.255	0.6094446
539.459	0.61063502
539.663	0.61197688
539.867	0.61332533
540.072	0.61480551
540.276	0.61602997
540.48	0.61755782
540.684	0.61894123
540.888	0.62045442
541.092	0.62170746
541.297	0.62292679
541.501	0.62422921
541.705	0.62564952
541.909	0.6267263
542.113	0.6278653
542.317	0.62904718
542.521	0.6302964
542.725	0.6315866
542.929	0.63283474
543.133	0.63400318
543.337	0.63544099
543.541	0.63683389
543.745	0.63796522
543.949	0.63931566
544.153	0.64050489
544.357	0.6416964
544.56	0.64298359
544.764	0.64412761
544.968	0.64521103
545.172	0.6463256
545.376	0.64754912
545.58	0.64872596
545.783	0.64999315
545.987	0.65090652
546.191	0.65206015
546.395	0.65340913
546.598	0.65472256
546.802	0.65579343
547.006	0.65699819
547.21	0.65782322
547.413	0.6591631
547.617	0.66033735
547.821	0.66140076
548.024	0.66249731
548.228	0.6634876
548.431	0.66452348
548.635	0.66582562
548.839	0.66685906
549.042	0.6679037
549.246	0.66880387
549.449	0.66983919
549.653	0.67099601
549.856	0.67199072
550.06	0.67290734
550.263	0.673966
550.467	0.67499582
550.67	0.67609189
550.874	0.67702502
551.077	0.67810144
551.28	0.6792424
551.484	0.68037879
551.687	0.68136493
551.891	0.68239048
552.094	0.68341565
552.297	0.68450519
552.501	0.68550989
552.704	0.68642998
552.907	0.68736756
553.11	0.68823343
553.314	0.68910428
553.517	0.68987936
553.72	0.69076246
553.923	0.69167159
554.127	0.69271642
554.33	0.6935309
554.533	0.69449463
554.736	0.69529305
554.939	0.69632378
555.142	0.69732013
555.345	0.69818823
555.549	0.69900989
555.752	0.69984979
555.955	0.7006448
556.158	0.7018169
556.361	0.70266766
556.564	0.70347289
556.767	0.70433211
556.97	0.7052475
557.173	0.70614044
557.376	0.70713454
557.579	0.70778035
557.782	0.70861323
557.984	0.70942264
558.187	0.71017451
558.39	0.71086649
558.593	0.71176272
558.796	0.7124459
558.999	0.71323259
559.202	0.71401701
559.404	0.71468676
559.607	0.71549879
559.81	0.71612847
560.013	0.7168501
560.216	0.71763204
560.418	0.71837611
560.621	0.7190818
560.824	0.71988089
561.026	0.72054233
561.229	0.72132949
561.432	0.72203455
561.634	0.72270896
561.837	0.7232268
562.04	0.72385543
562.242	0.72446745
562.445	0.72522636
562.647	0.72594156
562.85	0.72643495
563.053	0.72692644
563.255	0.72764213
563.458	0.72819025
563.66	0.7287444
563.863	0.72936747
564.065	0.73000632
564.268	0.73071321
564.47	0.73144574
564.672	0.73193485
564.875	0.73264433
565.077	0.73327959
565.28	0.73370373
565.482	0.73416594
565.684	0.73463714
565.887	0.7352204
566.089	0.73597472
566.291	0.73640269
566.494	0.73695557
566.696	0.73737137
566.898	0.73801435
567.1	0.7385993
567.303	0.73905782
567.505	0.7394575
567.707	0.73991687
567.909	0.74021421
568.111	0.74071723
568.314	0.74100675
568.516	0.74139278
568.718	0.74176151
568.92	0.7420433
569.122	0.74247686
569.324	0.74292266
569.526	0.74329828
569.728	0.74377249
569.93	0.74407553
570.132	0.74433817
570.334	0.744829
570.536	0.7451014
570.738	0.74544142
570.94	0.74575145
571.142	0.74605717
571.344	0.74626906
571.546	0.74661469
571.748	0.74698791
571.95	0.74721946
572.152	0.74744424
572.354	0.74782865
572.555	0.74807537
572.757	0.7486312
572.959	0.74887025
573.161	0.74892119
573.363	0.74928138
573.564	0.74974482
573.766	0.74987302
573.968	0.75018392
574.17	0.75013797
574.371	0.75042146
574.573	0.75072015
574.775	0.75089304
574.976	0.75098967
575.178	0.75124631
575.38	0.75127731
575.581	0.75148496
575.783	0.75166006
575.985	0.7517573
576.186	0.75199464
576.388	0.7520023
576.589	0.75191036
576.791	0.75205908
576.992	0.75216342
577.194	0.75217482
577.395	0.75218481
577.597	0.75221626
577.798	0.75236174
578	0.75253383
578.201	0.75265849
578.402	0.75278316
578.604	0.75280475
578.805	0.75297007
579.007	0.75293763
579.208	0.75301993
579.409	0.75318779
579.611	0.75310356
579.812	0.75318556
580.013	0.75324342
580.215	0.75297359
580.416	0.75286474
580.617	0.752689
580.818	0.75253353
581.019	0.75238436
581.221	0.75217209
581.422	0.75203256
581.623	0.75214999
581.824	0.75195279
582.025	0.75183672
582.226	0.7517484
582.428	0.75172121
582.629	0.75174087
582.83	0.7515954
583.031	0.75144113
583.232	0.75172769
583.433	0.75178023
583.634	0.7516402
583.835	0.75162347
584.036	0.75137798
584.237	0.75124235
584.438	0.75104317
584.639	0.75046327
584.84	0.7501589
585.041	0.74978847
585.242	0.74938897
585.442	0.74907621
585.643	0.74890907
585.844	0.74861622
586.045	0.74858903
586.246	0.74825501
586.447	0.74803558
586.647	0.74759773
586.848	0.74728982
587.049	0.74693485
587.25	0.74663399
587.45	0.74618376
587.651	0.7460833
587.852	0.74581104
588.053	0.74578869
588.253	0.74544174
588.454	0.74512375
588.655	0.74472769
588.855	0.74430716
589.056	0.74378901
589.256	0.74342646
589.457	0.7429572
589.658	0.7426961
589.858	0.74220724
590.059	0.74189066
590.259	0.74163739
590.46	0.74113521
590.66	0.74074869
590.861	0.74041586
591.061	0.74002497
591.262	0.73984632
591.462	0.73954277
591.662	0.73909221
591.863	0.7387768
592.063	0.73845842
592.264	0.73806375
592.464	0.73758443
592.664	0.73713949
592.865	0.73676867
593.065	0.73625864
593.265	0.73590962
593.465	0.73527671
593.666	0.73477516
593.866	0.73428501
594.066	0.73366776
594.266	0.73306383
594.467	0.73239985
594.667	0.73181067
594.867	0.73134227
595.067	0.73070002
595.267	0.73002592
595.467	0.7294501
595.668	0.72881287
595.868	0.72839656
596.068	0.72777391
596.268	0.72705241
596.468	0.72651177
596.668	0.72616161
596.868	0.72547804
597.068	0.72491766
597.268	0.72429385
597.468	0.72371892
597.668	0.72321155
597.868	0.7226482
598.068	0.72197892
598.268	0.72151105
598.467	0.72100245
598.667	0.72036725
598.867	0.71951967
599.067	0.71885803
599.267	0.71816627
599.467	0.71745441
599.667	0.71665409
599.866	0.71598194
600.066	0.71528257
600.266	0.71455382
600.466	0.71388338
600.665	0.71311344
600.865	0.71217846
601.065	0.71163501
601.264	0.71068274
601.464	0.71004089
601.664	0.70955088
601.863	0.70876904
602.063	0.70810841
602.263	0.70731856
602.462	0.7064782
602.662	0.70583163
602.861	0.70496566
603.061	0.70419495
603.26	0.70350257
603.46	0.70271068
603.659	0.70210885
603.859	0.70129291
604.058	0.70038844
604.258	0.69960714
604.457	0.69888953
604.657	0.69787224
604.856	0.69687975
605.056	0.69606087
605.255	0.69524026
605.454	0.69449999
605.654	0.69362909
605.853	0.69270185
606.052	0.69179692
606.252	0.6910046
606.451	0.69015228
606.65	0.68933036
606.849	0.68831497
607.049	0.68744179
607.248	0.68635356
607.447	0.68551628
607.646	0.68477075
607.845	0.68377961
608.045	0.68276642
608.244	0.68205585
608.443	0.68124404
608.642	0.68058678
608.841	0.67977395
609.04	0.67880792
609.239	0.6780989
609.438	0.6772301
609.637	0.6763485
609.836	0.67529911
610.035	0.67431513
610.234	0.6733975
610.433	0.67242481
610.632	0.67137607
610.831	0.67044791
611.03	0.6693598
611.229	0.6686
611.428	0.66772233
611.627	0.66681531
611.826	0.66595021
612.025	0.66502818
612.224	0.66404496
612.422	0.66311351
612.621	0.66200915
612.82	0.66101432
613.019	0.65989587
613.218	0.6587911
613.416	0.65770823
613.615	0.65668672
613.814	0.6555699
614.012	0.65447643
614.211	0.65325066
614.41	0.65223122
614.608	0.65124615
614.807	0.65017094
615.006	0.64907751
615.204	0.64804631
615.403	0.64711326
615.602	0.64620197
615.8	0.64524865
615.999	0.6440586
616.197	0.6430296
616.396	0.64201804
616.594	0.64088484
616.793	0.63992428
616.991	0.63884477
617.19	0.63764995
617.388	0.63687607
617.586	0.63587627
617.785	0.63492471
617.983	0.63406101
618.182	0.63288389
618.38	0.63173293
618.578	0.63069038
618.777	0.62949088
618.975	0.62850183
619.173	0.62741318
619.372	0.62636435
619.57	0.62529389
619.768	0.6243974
619.966	0.62330584
620.165	0.62215074
620.363	0.62103335
620.561	0.61983177
620.759	0.61868154
620.957	0.61768097
621.155	0.61657013
621.354	0.61549128
621.552	0.6146007
621.75	0.61339239
621.948	0.61239459
622.146	0.61124588
622.344	0.60999027
622.542	0.60890633
622.74	0.60773983
622.938	0.60653723
623.136	0.60553472
623.334	0.60451044
623.532	0.60325422
623.73	0.60222749
623.928	0.60108499
624.126	0.60005908
624.324	0.59902648
624.522	0.59777936
624.719	0.59645095
624.917	0.59534962
625.115	0.59404684
625.313	0.59292158
625.511	0.59178663
625.708	0.5903427
625.906	0.58909165
626.104	0.58793466
626.302	0.58688342
626.499	0.58572863
626.697	0.58435571
626.895	0.58300925
627.093	0.58189371
627.29	0.58085261
627.488	0.57961811
627.686	0.57847112
627.883	0.57723833
628.081	0.57599301
628.278	0.57493606
628.476	0.57372795
628.673	0.57254016
628.871	0.57145898
629.068	0.57024523
629.266	0.56919055
629.463	0.56817844
629.661	0.56707083
629.858	0.56590929
630.056	0.56467071
630.253	0.56346587
630.451	0.56222843
630.648	0.56090911
630.845	0.5596067
631.043	0.55833843
631.24	0.55718586
631.438	0.55594242
631.635	0.55466663
631.832	0.55330808
632.029	0.55216564
632.227	0.55083704
632.424	0.54955703
632.621	0.54824524
632.818	0.54698581
633.016	0.5456753
633.213	0.54445771
633.41	0.54315602
633.607	0.54204584
633.804	0.54085372
634.001	0.53956557
634.199	0.53830837
634.396	0.5371656
634.593	0.53596312
634.79	0.53481774
634.987	0.5335322
635.184	0.53231102
635.381	0.53119726
635.578	0.53009862
635.775	0.52884503
635.972	0.52768388
636.169	0.52645653
636.366	0.52529239
636.563	0.52402194
636.76	0.52267733
636.957	0.52139703
637.153	0.52012144
637.35	0.51898989
637.547	0.51781299
637.744	0.51658766
637.941	0.51552033
638.138	0.51438639
638.334	0.51315631
638.531	0.51200345
638.728	0.51072464
638.925	0.50958896
639.121	0.50852778
639.318	0.50721252
639.515	0.50588738
639.711	0.50471482
639.908	0.5033571
640.105	0.50209728
640.301	0.50071896
640.498	0.49928793
640.695	0.49810513
640.891	0.49698361
641.088	0.49580067
641.284	0.4947503
641.481	0.49368799
641.677	0.49254648
641.874	0.4913181
642.07	0.49014091
642.267	0.48909242
642.463	0.48778078
642.66	0.48660203
642.856	0.485223
643.053	0.48393024
643.249	0.48285459
643.445	0.48169528
643.642	0.48044502
643.838	0.47940174
644.034	0.47828406
644.231	0.47717996
644.427	0.47609523
644.623	0.47485307
644.82	0.4736523
645.016	0.47231543
645.212	0.47095254
645.408	0.46967512
645.604	0.46857582
645.801	0.46746827
645.997	0.46626475
646.193	0.4651468
646.389	0.46413358
646.585	0.46311479
646.781	0.46199778
646.977	0.46083698
647.173	0.45960809
647.37	0.4584388
647.566	0.45716676
647.762	0.45595531
647.958	0.45482899
648.154	0.45360396
648.35	0.45247722
648.546	0.45132373
648.742	0.45033625
648.937	0.44916989
649.133	0.44809323
649.329	0.44694314
649.525	0.44587198
649.721	0.44473782
649.917	0.44378609
650.113	0.44254271
650.309	0.44159891
650.504	0.44039419
650.7	0.43923369
650.896	0.43803341
651.092	0.43678988
651.287	0.43546394
651.483	0.43434709
651.679	0.4331097
651.875	0.43202343
652.07	0.43089842
652.266	0.42976965
652.462	0.42874578
652.657	0.42766159
652.853	0.4265794
653.048	0.42544787
653.244	0.4242814
653.44	0.42321136
653.635	0.42207913
653.831	0.42095877
654.026	0.41990221
654.222	0.41865767
654.417	0.41759862
654.613	0.41644534
654.808	0.41519627
655.004	0.41408745
655.199	0.41288625
655.394	0.41170996
655.59	0.41069377
655.785	0.40950104
655.98	0.40849405
656.176	0.40741119
656.371	0.40644958
656.566	0.40541363
656.762	0.40432829
656.957	0.40322172
657.152	0.40212909
657.348	0.4009846
657.543	0.40001155
657.738	0.3988781
657.933	0.39783038
658.128	0.39673625
658.324	0.39568601
658.519	0.39474619
658.714	0.39375161
658.909	0.39265356
659.104	0.39163752
659.299	0.39050872
659.494	0.3894131
659.689	0.38828702
659.884	0.3870967
660.079	0.38591556
660.274	0.3847746
660.469	0.3836351
660.664	0.38262886
660.859	0.38157672
661.054	0.38051745
661.249	0.37946658
661.444	0.37845274
661.639	0.37738679
661.834	0.37628231
662.029	0.37523118
662.224	0.37429822
662.418	0.37337045
662.613	0.37247148
662.808	0.37150409
663.003	0.37059184
663.198	0.36967438
663.392	0.36863907
663.587	0.36771978
663.782	0.36663751
663.977	0.36559257
664.171	0.36467634
664.366	0.36357836
664.561	0.36252899
664.755	0.36150464
664.95	0.36037844
665.144	0.35943479
665.339	0.35851165
665.534	0.35749603
665.728	0.35663882
665.923	0.35571365
666.117	0.35484486
666.312	0.35387708
666.506	0.35296265
666.701	0.35179768
666.895	0.35069577
667.09	0.34960809
667.284	0.34865367
667.479	0.3475604
667.673	0.34658645
667.867	0.34556798
668.062	0.34464517
668.256	0.34370554
668.45	0.34285959
668.645	0.34183788
668.839	0.34090649
669.033	0.33995308
669.228	0.33902277
669.422	0.33815009
669.616	0.33719254
669.81	0.33620101
670.004	0.33524674
670.199	0.33428847
670.393	0.33332967
670.587	0.33234767
670.781	0.33142821
670.975	0.33059474
671.169	0.32958846
671.363	0.32866847
671.558	0.32779102
671.752	0.32695309
671.946	0.32619826
672.14	0.32536886
672.334	0.3243888
672.528	0.32366635
672.722	0.32265749
672.916	0.32175436
673.11	0.32071987
673.304	0.31979776
673.497	0.31871903
673.691	0.31797299
673.885	0.31695787
674.079	0.31621746
674.273	0.31534022
674.467	0.31461162
674.661	0.31368325
674.854	0.31290146
675.048	0.31195283
675.242	0.31120075
675.436	0.31037479
675.629	0.3095765
675.823	0.3086691
676.017	0.3078675
676.211	0.30701216
676.404	0.3062228
676.598	0.30536057
676.792	0.30452384
676.985	0.30379187
677.179	0.30304804
677.372	0.30226196
677.566	0.30153159
677.76	0.30067998
677.953	0.29980932
678.147	0.2990476
678.34	0.29818026
678.534	0.2973505
678.727	0.29664114
678.921	0.29598294
679.114	0.29522175
679.307	0.29451194
679.501	0.29369483
679.694	0.29292914
679.888	0.29210024
680.081	0.29124164
680.274	0.29023772
680.468	0.28943496
680.661	0.2886421
680.854	0.28807113
681.048	0.28729151
681.241	0.2865268
681.434	0.28572483
681.627	0.28495758
681.821	0.28419248
682.014	0.28342191
682.207	0.28238549
682.4	0.28159565
682.593	0.2809078
682.786	0.28014686
682.98	0.27937784
683.173	0.27862552
683.366	0.27784656
683.559	0.27720491
683.752	0.27652377
683.945	0.275794
684.138	0.27522079
684.331	0.27457301
684.524	0.27390777
684.717	0.27325701
684.91	0.27257622
685.103	0.27185511
685.296	0.27111356
685.489	0.27024617
685.682	0.26951146
685.874	0.26893153
686.067	0.26827404
686.26	0.26767434
686.453	0.26708474
686.646	0.26646782
686.839	0.26594625
687.031	0.26538743
687.224	0.26462144
687.417	0.26412605
687.61	0.26346199
687.802	0.26278476
687.995	0.26219211
688.188	0.26155147
688.38	0.26086849
688.573	0.26025785
688.766	0.25953692
688.958	0.25884619
689.151	0.25816266
689.343	0.25755897
689.536	0.25689747
689.729	0.25631934
689.921	0.25577803
690.114	0.25516272
690.306	0.25459654
690.499	0.25406582
690.691	0.25346988
690.884	0.25292238
691.076	0.25235721
691.268	0.25171364
691.461	0.2510801
691.653	0.25057154
691.846	0.24995667
692.038	0.24928501
692.23	0.24858809
692.423	0.24800515
692.615	0.24747996
692.807	0.24695532
692.999	0.24632197
693.192	0.24579586
693.384	0.24538275
693.576	0.24490286
693.768	0.2443601
693.961	0.24377752
694.153	0.24324478
694.345	0.2428037
694.537	0.24224759
694.729	0.2416797
694.921	0.24114919
695.113	0.24069475
695.305	0.24028358
695.498	0.23985499
695.69	0.23934675
695.882	0.23893697
696.074	0.23842688
696.266	0.23797491
696.458	0.23738065
696.65	0.23680566
696.842	0.23627891
697.033	0.23579135
697.225	0.23523922
697.417	0.23480198
697.609	0.23430889
697.801	0.23387504
697.993	0.23345918
698.185	0.23301493
698.376	0.23251919
698.568	0.23208437
698.76	0.23169978
698.952	0.23131752
699.144	0.23091725
699.335	0.23054938
699.527	0.23010944
699.719	0.22975137
699.91	0.2293738
700.102	0.22885467
700.294	0.22836793
700.485	0.22801282
700.677	0.22745606
700.869	0.22706772
701.06	0.22660813
701.252	0.22621703
701.443	0.22587267
701.635	0.22557981
701.826	0.22517303
702.018	0.22484299
702.209	0.22450539
702.401	0.22407583
702.592	0.22372828
702.784	0.22334324
702.975	0.22294598
703.166	0.22258452
703.358	0.22225829
703.549	0.22191951
703.741	0.22173022
703.932	0.22138402
704.123	0.22103565
704.315	0.22072391
704.506	0.22039375
704.697	0.22003452
704.888	0.21969197
705.08	0.21931311
705.271	0.21896179
705.462	0.21859632
705.653	0.21831982
705.844	0.21799923
706.035	0.21772805
706.227	0.21738475
706.418	0.21703765
706.609	0.21670857
706.8	0.21654163
706.991	0.21616014
707.182	0.21586883
707.373	0.21556948
707.564	0.21532029
707.755	0.21508731
707.946	0.21488108
708.137	0.21456381
708.328	0.21430985
708.519	0.21406365
708.71	0.21377797
708.901	0.21340963
709.092	0.21309778
709.283	0.21280835
709.473	0.21255666
709.664	0.21239103
709.855	0.21212585
710.046	0.21196969
710.237	0.21180833
710.427	0.21153011
710.618	0.21126296
710.809	0.21093558
711	0.21059717
711.19	0.21025515
711.381	0.20997358
711.572	0.20969144
711.762	0.20945502
711.953	0.20920393
712.144	0.20902476
712.334	0.20879053
712.525	0.20873482
712.715	0.20849496
712.906	0.20830969
713.097	0.20813229
713.287	0.20796518
713.478	0.20773402
713.668	0.20760125
713.859	0.20727747
714.049	0.20705318
714.239	0.20687206
714.43	0.20674921
714.62	0.20653583
714.811	0.20637386
715.001	0.20618371
715.191	0.20608304
715.382	0.2059387
715.572	0.20577333
715.762	0.20561494
715.953	0.20553972
716.143	0.20540349
716.333	0.20525072
716.523	0.2051141
716.714	0.20504291
716.904	0.20492695
717.094	0.2048362
717.284	0.20474882
717.474	0.20470616
717.664	0.20475743
717.855	0.20478165
718.045	0.20475935
718.235	0.2047824
718.425	0.20478881
718.615	0.20473518
718.805	0.20473009
718.995	0.20470739
719.185	0.20464739
719.375	0.20460199
719.565	0.20455648
719.755	0.20448933
719.945	0.20443726
720.135	0.20436101
720.325	0.20419685
720.515	0.2041858
720.704	0.20414561
720.894	0.20415913
721.084	0.20408975
721.274	0.20414384
721.464	0.20412971
721.654	0.20417041
721.843	0.20408671
722.033	0.20396067
722.223	0.2037885
722.413	0.20376444
722.602	0.20372184
722.792	0.20375744
722.982	0.20374871
723.171	0.20383227
723.361	0.20394394
723.55	0.20402273
723.74	0.20398101
723.93	0.20385419
724.119	0.20377893
724.309	0.20374857
724.498	0.20364778
724.688	0.20362
724.877	0.20364977
725.067	0.20371344
725.256	0.20380511
725.446	0.20383596
725.635	0.20379634
725.825	0.2037951
726.014	0.20384306
726.203	0.20379411
726.393	0.20376109
726.582	0.2037359
726.771	0.20374925
726.961	0.20385262
727.15	0.20385697
727.339	0.20384023
727.529	0.20397421
727.718	0.20402289
727.907	0.20407031
728.096	0.20403502
728.286	0.20397152
728.475	0.20405219
728.664	0.20406267
728.853	0.20396498
729.042	0.20395622
729.231	0.20400113
729.42	0.20410737
729.609	0.20418631
729.799	0.20421756
729.988	0.20431628
730.177	0.20444355
730.366	0.20459137
730.555	0.20469436
730.744	0.20472838
730.933	0.20476004
731.122	0.20486574
731.31	0.20493755
731.499	0.20498517
731.688	0.2050363
731.877	0.2050584
732.066	0.20513347
732.255	0.20514858
732.444	0.20509469
732.632	0.20509845
732.821	0.2051587
733.01	0.2052372
733.199	0.2052562
733.388	0.2053655
733.576	0.20547397
733.765	0.20561614
733.954	0.20567338
734.142	0.2057244
734.331	0.20576701
734.52	0.20590828
734.708	0.20602032
734.897	0.20619394
735.086	0.20632383
735.274	0.20648604
735.463	0.20663275
735.651	0.20682216
735.84	0.20693088
736.028	0.20696065
736.217	0.20705669
736.405	0.20719064
736.594	0.2072936
736.782	0.20739808
736.971	0.20745611
737.159	0.20755438
737.347	0.20770651
737.536	0.20781034
737.724	0.20796888
737.912	0.20812345
738.101	0.20826714
738.289	0.20850004
738.477	0.20875527
738.666	0.2089693
738.854	0.20922416
739.042	0.20934196
739.23	0.20946055
739.418	0.20961622
739.607	0.20968978
739.795	0.20979053
739.983	0.20996093
740.171	0.21008667
740.359	0.21036295
740.547	0.21071669
740.735	0.2110868
740.923	0.2114082
741.112	0.21167318
741.3	0.21191469
741.488	0.21207806
741.676	0.21218794
741.864	0.21225163
742.052	0.21230539
742.239	0.21236297
742.427	0.21257923
742.615	0.21269397
742.803	0.21291329
742.991	0.21306237
743.179	0.21331211
743.367	0.21353581
743.555	0.21381562
743.742	0.21391637
743.93	0.21421506
744.118	0.21455879
744.306	0.21495057
744.494	0.21522305
744.681	0.21555217
744.869	0.21585623
745.057	0.2162089
745.244	0.21650344
745.432	0.21674868
745.62	0.21694783
745.807	0.21720376
745.995	0.21735874
746.182	0.21747737
746.37	0.21767485
746.558	0.21784925
746.745	0.21791948
746.933	0.21814623
747.12	0.21832602
747.308	0.21856939
747.495	0.21882908
747.683	0.21901067
747.87	0.21918867
748.057	0.21943772
748.245	0.2196778
748.432	0.21987759
748.62	0.22006132
748.807	0.2202557
748.994	0.22049552
749.182	0.2207129
749.369	0.22097398
749.556	0.22108434
749.743	0.22126952
749.931	0.22147189
750.118	0.22178011
750.305	0.22202181
750.492	0.2222783
750.68	0.22257988
750.867	0.22289226
751.054	0.22322961
751.241	0.22356889
751.428	0.2237807
751.615	0.22406681
751.802	0.224358
751.989	0.22458461
752.176	0.22498357
752.363	0.22538394
752.55	0.22568809
752.737	0.22600686
752.924	0.22623143
753.111	0.22651208
753.298	0.22671019
753.485	0.22677182
753.672	0.22678944
753.859	0.22701645
754.046	0.2272765
754.233	0.22758387
754.42	0.22777488
754.606	0.22808207
754.793	0.22836294
754.98	0.22866457
755.167	0.22879188
755.353	0.2289521
755.54	0.2291316
755.727	0.229356
755.914	0.22959654
756.1	0.22988716
756.287	0.23018046
756.474	0.23054088
756.66	0.23101016
756.847	0.23149101
757.033	0.23187155
757.22	0.23223407
757.407	0.23268251
757.593	0.23309746
757.78	0.23351746
757.966	0.23372998
758.153	0.23399908
758.339	0.23437784
758.526	0.23480448
758.712	0.23501388
758.898	0.23525175
759.085	0.23550405
759.271	0.23581287
759.458	0.23609007
759.644	0.23641167
759.83	0.23661253
760.017	0.23691839
760.203	0.23719301
760.389	0.23744154
760.576	0.23771212
760.762	0.23791087
760.948	0.23811124
761.134	0.23843271
761.32	0.23874575
761.507	0.23910606
761.693	0.23956182
761.879	0.23997191
762.065	0.24044046
762.251	0.24084647
762.437	0.24122696
762.623	0.24159956
762.809	0.24191604
762.995	0.24217371
763.181	0.24246816
763.367	0.24274387
763.553	0.24309508
763.739	0.24342363
763.925	0.24380252
764.111	0.24418293
764.297	0.24455129
764.483	0.24490307
764.669	0.24523955
764.855	0.24550137
765.041	0.24579712
765.227	0.24605494
765.412	0.24635228
765.598	0.24665777
765.784	0.24701813
765.97	0.2474064
766.156	0.24787947
766.341	0.24821692
766.527	0.24854311
766.713	0.24894052
766.898	0.2493187
767.084	0.24965492
767.27	0.24997012
767.455	0.25019746
767.641	0.25053895
767.827	0.25091988
768.012	0.25125665
768.198	0.25168013
768.383	0.25212741
768.569	0.25261083
768.754	0.25311101
768.94	0.25355964
769.125	0.25405969
769.311	0.25454223
769.496	0.2549331
769.682	0.25531969
769.867	0.25564593
770.052	0.2560363
770.238	0.25642462
770.423	0.25675518
770.608	0.25704506
770.794	0.25738208
770.979	0.25770423
771.164	0.25805855
771.35	0.25834848
771.535	0.25867594
771.72	0.25898087
771.905	0.25928189
772.09	0.25957494
772.276	0.25990879
772.461	0.26015403
772.646	0.26046193
772.831	0.26082244
773.016	0.26123281
773.201	0.26163435
773.386	0.26204049
773.571	0.26237753
773.756	0.26274307
773.941	0.26311453
774.126	0.26344781
774.311	0.2637267
774.496	0.26409468
774.681	0.26447409
774.866	0.26487367
775.051	0.26532836
775.236	0.26578498
775.421	0.26613621
775.606	0.26650704
775.791	0.2668287
775.976	0.2671478
776.16	0.26746706
776.345	0.26776796
776.53	0.26800285
776.715	0.26828265
776.899	0.26859652
777.084	0.26892139
777.269	0.2691502
777.454	0.26937299
777.638	0.2696568
777.823	0.26997383
778.008	0.27026901
778.192	0.27056714
778.377	0.2708789
778.561	0.2712326
778.746	0.27157525
778.931	0.27183387
779.115	0.27214078
779.3	0.27238856
779.484	0.27260678
779.669	0.27275975
779.853	0.27300514
780.037	0.27318636
780.222	0.27339912
780.406	0.27359058
780.591	0.27385068
780.775	0.27411822
780.959	0.27435453
781.144	0.27446636
781.328	0.27462644
781.512	0.2747915
781.697	0.27494975
781.881	0.27505102
782.065	0.27516952
782.249	0.27522232
782.434	0.27540045
782.618	0.27548643
782.802	0.27563622
782.986	0.27572261
783.17	0.2759134
783.354	0.27607349
783.539	0.27641601
783.723	0.27657179
783.907	0.27693597
784.091	0.27717464
784.275	0.27747887
784.459	0.27767144
784.643	0.27799433
784.827	0.27815447
785.011	0.2784434
785.195	0.27870522
785.379	0.27901102
785.563	0.27925826
785.747	0.27956818
785.93	0.27983089
786.114	0.28002887
786.298	0.28021908
786.482	0.28026196
786.666	0.28049273
786.85	0.28072982
787.033	0.28088927
787.217	0.28105644
787.401	0.28143744
787.585	0.28171624
787.768	0.28214799
787.952	0.28237986
788.136	0.28259905
788.319	0.2829097
788.503	0.28318261
788.687	0.2834601
788.87	0.28383478
789.054	0.28420524
789.237	0.28456248
789.421	0.2849506
789.605	0.28536439
789.788	0.28582687
789.972	0.28615697
790.155	0.28645653
790.338	0.28666247
790.522	0.28697188
790.705	0.28721065
790.889	0.28743868
791.072	0.28762911
791.256	0.28796033
791.439	0.28829079
791.622	0.28866903
791.806	0.28912032
791.989	0.28957762
792.172	0.29003882
792.355	0.29043401
792.539	0.29081228
792.722	0.2912291
792.905	0.29164331
793.088	0.29195735
793.271	0.29240218
793.455	0.29283035
793.638	0.29321233
793.821	0.29364498
794.004	0.29404901
794.187	0.29454227
794.37	0.29497417
794.553	0.29532937
794.736	0.29567084
794.919	0.29598841
795.102	0.29626623
795.285	0.29659324
795.468	0.29679269
795.651	0.29704813
795.834	0.29733114
796.017	0.29765381
796.2	0.29803867
796.383	0.29834301
796.566	0.29869751
796.749	0.29904263
796.931	0.29943191
797.114	0.29978997
797.297	0.30010934
797.48	0.30045551
797.663	0.30089313
797.845	0.3012649
798.028	0.30171052
798.211	0.30214055
798.393	0.30247374
798.576	0.3028785
798.759	0.30325212
798.941	0.30360031
799.124	0.30391773
799.307	0.30423142
799.489	0.30450317
799.672	0.30483509
799.854	0.30505257
800.037	0.30536241
800.219	0.3056232
800.402	0.3059486
800.584	0.30624038
800.767	0.30649238
800.949	0.30682148
801.132	0.30733118
801.314	0.30770012
801.496	0.30800913
801.679	0.30827432
801.861	0.30850085
802.043	0.30870692
802.226	0.30894463
802.408	0.30913554
802.59	0.30936132
802.772	0.30959905
802.955	0.30982812
803.137	0.31001848
803.319	0.31028503
803.501	0.31040568
803.684	0.31050563
803.866	0.31064006
804.048	0.31090715
804.23	0.31119219
804.412	0.31157849
804.594	0.31186217
804.776	0.31227713
804.958	0.31247221
805.14	0.31273811
805.322	0.31283099
805.504	0.3130041
805.686	0.3130318
805.868	0.31305092
806.05	0.313067
806.232	0.31319937
806.414	0.31329366
806.596	0.31334991
806.778	0.31327255
806.96	0.31335614
807.141	0.31339689
807.323	0.31345996
807.505	0.31351166
807.687	0.31353624
807.869	0.31361777
808.05	0.31371732
808.232	0.31379972
808.414	0.3140115
808.595	0.31404585
808.777	0.31410975
808.959	0.31419675
809.14	0.31425745
809.322	0.31435078
809.504	0.31434319
809.685	0.3143663
809.867	0.31441075
810.048	0.31434447
810.23	0.31437805
810.411	0.31447477
810.593	0.31455134
810.774	0.31464038
810.956	0.31469842
811.137	0.31477114
811.319	0.31494083
811.5	0.31500429
811.681	0.31504492
811.863	0.31506712
812.044	0.31505245
812.225	0.31517441
812.407	0.31531001
812.588	0.31546116
812.769	0.31556089
812.951	0.31573384
813.132	0.31581155
813.313	0.3160435
813.494	0.31607619
813.675	0.31624869
813.857	0.31641009
814.038	0.31667776
814.219	0.31680951
814.4	0.31700976
814.581	0.31719659
814.762	0.31740614
814.943	0.31748476
815.124	0.31761205
815.305	0.31770837
815.486	0.31789282
815.667	0.31818177
815.848	0.31843138
816.029	0.31860622
816.21	0.31886229
816.391	0.31913268
816.572	0.31933145
816.753	0.31960042
816.934	0.3197402
817.115	0.31987593
817.295	0.32017437
817.476	0.32029172
817.657	0.32057772
817.838	0.32093004
818.019	0.32108147
818.199	0.32125577
818.38	0.32143107
818.561	0.3215718
818.741	0.32193464
818.922	0.32210863
819.103	0.32236306
819.283	0.3227835
819.464	0.32315545
819.645	0.32357422
819.825	0.32389848
820.006	0.3240973
820.186	0.32437946
820.367	0.32453246
820.547	0.32470662
820.728	0.32495639
820.908	0.32515427
821.089	0.3254747
821.269	0.32580619
821.45	0.32603308
821.63	0.32620103
821.81	0.32638478
821.991	0.32656943
822.171	0.326856
822.351	0.32713888
822.532	0.32734424
822.712	0.32753823
822.892	0.32786762
823.072	0.32805756
823.253	0.32834006
823.433	0.32851571
823.613	0.32869416
823.793	0.32888889
823.973	0.32925467
824.154	0.32940845
824.334	0.32972282
824.514	0.33004114
824.694	0.33032891
824.874	0.33052599
825.054	0.3308877
825.234	0.33104288
825.414	0.33118613
825.594	0.3313869
825.774	0.33150524
825.954	0.33163734
826.134	0.33181243
826.314	0.33194771
826.494	0.33214888
826.674	0.33234057
826.854	0.33247217
827.033	0.33256881
827.213	0.3328135
827.393	0.3329592
827.573	0.33322023
827.753	0.33333423
827.932	0.33355951
828.112	0.33378464
828.292	0.33404663
828.472	0.33419192
828.651	0.3343651
828.831	0.3342461
829.011	0.33445789
829.19	0.33459723
829.37	0.33467737
829.549	0.33480598
829.729	0.33490571
829.909	0.33510653
830.088	0.335502
830.268	0.33566866
830.447	0.33606849
830.627	0.33651558
830.806	0.33677143
830.986	0.33693634
831.165	0.337199
831.344	0.33741392
831.524	0.33758476
831.703	0.33764886
831.883	0.33752724
832.062	0.33754381
832.241	0.33760157
832.421	0.33751651
832.6	0.33750012
832.779	0.33759877
832.958	0.33760938
833.138	0.3376684
833.317	0.33797508
833.496	0.33819646
833.675	0.33848139
833.854	0.3387834
834.034	0.3389345
834.213	0.3391829
834.392	0.33958948
834.571	0.339565
834.75	0.33971353
834.929	0.3397744
835.108	0.3396872
835.287	0.33977125
835.466	0.33978442
835.645	0.33979877
835.824	0.33986973
836.003	0.3400423
836.182	0.34033382
836.361	0.34068573
836.54	0.34062598
836.719	0.34064494
836.897	0.34075513
837.076	0.34098145
837.255	0.34093536
837.434	0.34094995
837.613	0.34091212
837.791	0.34115043
837.97	0.34133941
838.149	0.34127417
838.328	0.34131106
838.506	0.3414413
838.685	0.34153957
838.864	0.34171396
839.042	0.34178977
839.221	0.34200038
839.4	0.34220043
839.578	0.34227745
839.757	0.34236969
839.935	0.34236438
840.114	0.34243992
840.292	0.34262257
840.471	0.34279539
840.649	0.34288477
840.828	0.34298438
841.006	0.34316064
841.185	0.34325481
841.363	0.34339668
841.541	0.34344637
841.72	0.34346227
841.898	0.34364472
842.076	0.34376263
842.255	0.34382171
842.433	0.34390678
842.611	0.34384591
842.789	0.34383751
842.968	0.34393572
843.146	0.3438215
843.324	0.34395802
843.502	0.34399316
843.68	0.34412866
843.859	0.34425174
844.037	0.34444095
844.215	0.34448411
844.393	0.34476445
844.571	0.34478014
844.749	0.3449606
844.927	0.34500081
845.105	0.34498441
845.283	0.34486844
845.461	0.34478174
845.639	0.34475883
845.817	0.34482357
845.995	0.34488284
846.173	0.3449461
846.351	0.34487639
846.529	0.34499247
846.706	0.34499195
846.884	0.34505174
847.062	0.3449691
847.24	0.34481519
847.418	0.34477515
847.595	0.34487094
847.773	0.34491263
847.951	0.34498512
848.129	0.34493854
848.306	0.34505171
848.484	0.34520278
848.662	0.34536671
848.839	0.34553964
849.017	0.34557805
849.194	0.3456155
849.372	0.34552231
849.549	0.34541865
849.727	0.34536749
849.905	0.34504322
850.082	0.34485206
850.26	0.34474938
850.437	0.34471505
850.614	0.34491352
850.792	0.34510651
850.969	0.34533911
851.147	0.34569588
851.324	0.34586952
851.501	0.34607616
851.679	0.34613431
851.856	0.34606352
852.033	0.34609489
852.211	0.34599078
852.388	0.34581927
852.565	0.34593013
852.742	0.34603316
852.92	0.34607584
853.097	0.34617212
853.274	0.34599169
853.451	0.34571836
853.628	0.34558963
853.805	0.34524975
853.982	0.34497662
854.159	0.34479214
854.336	0.34458431
854.514	0.34444323
854.691	0.34443427
854.868	0.34458506
855.045	0.34466277
855.221	0.34478161
855.398	0.34481461
855.575	0.34485811
855.752	0.34496197
855.929	0.34523097
856.106	0.34523325
856.283	0.34518684
856.46	0.34509371
856.637	0.34513521
856.813	0.34514686
856.99	0.34507771
857.167	0.34484053
857.344	0.34466642
857.52	0.34460826
857.697	0.34433995
857.874	0.34420263
858.05	0.34405156
858.227	0.34388139
858.404	0.34384457
858.58	0.34389468
858.757	0.34385521
858.933	0.34407036
859.11	0.34417069
859.287	0.34404103
859.463	0.34399202
859.64	0.34402525
859.816	0.3438735
859.993	0.34382784
860.169	0.34372645
860.345	0.34351125
860.522	0.34355661
860.698	0.34365717
860.875	0.34351442
861.051	0.34350368
861.227	0.34322372
861.404	0.34306457
861.58	0.34301523
861.756	0.3428002
861.932	0.34256649
862.109	0.34221148
862.285	0.34205497
862.461	0.3421698
862.637	0.34208358
862.813	0.34203191
862.99	0.34194099
863.166	0.34186891
863.342	0.3422242
863.518	0.34207089
863.694	0.34204943
863.87	0.34185161
864.046	0.34170986
864.222	0.34173098
864.398	0.34167784
864.574	0.34120965
864.75	0.34108344
864.926	0.34081927
865.102	0.34080236
865.278	0.34062369
865.454	0.34057683
865.63	0.34046725
865.805	0.34050069
865.981	0.34063633
866.157	0.34053336
866.333	0.34024677
866.509	0.34030261
866.684	0.33998994
866.86	0.33998801
867.036	0.33985705
867.212	0.33962904
867.387	0.33959203
867.563	0.33980431
867.739	0.33961686
867.914	0.33983169
868.09	0.33973723
868.265	0.33959432
868.441	0.33954774
868.617	0.33950153
868.792	0.3391856
868.968	0.33891891
869.143	0.33866146
869.319	0.33849362
869.494	0.33831166
869.67	0.33815281
869.845	0.33797116
870.02	0.33790988
870.196	0.33795921
870.371	0.33783697
870.546	0.33774763
870.722	0.33780399
870.897	0.3375415
871.072	0.33734159
871.248	0.3371873
871.423	0.33687926
871.598	0.3367875
871.773	0.3364258
871.949	0.3361878
872.124	0.3362313
872.299	0.33593938
872.474	0.33566164
872.649	0.3354554
872.824	0.33508893
872.999	0.33491071
873.174	0.3347209
873.349	0.33440732
873.524	0.33429263
873.699	0.33425505
873.874	0.33414024
874.049	0.33397006
874.224	0.33396359
874.399	0.33368134
874.574	0.33361522
874.749	0.33355839
874.924	0.33327871
875.099	0.33309252
875.274	0.33309361
875.449	0.33296319
875.623	0.33290694
875.798	0.3326743
875.973	0.33247993
876.148	0.33233154
876.322	0.33230154
876.497	0.33196078
876.672	0.33166543
876.846	0.33153092
877.021	0.33128383
877.196	0.33079416
877.37	0.33068763
877.545	0.33052578
877.72	0.33023223
877.894	0.33011492
878.069	0.32974563
878.243	0.32945691
878.418	0.32969962
878.592	0.32936124
878.767	0.32894237
878.941	0.32888104
879.116	0.32852624
879.29	0.32831526
879.464	0.32788997
879.639	0.32733154
879.813	0.32719326
879.987	0.32700373
880.162	0.32671268
880.336	0.32652743
880.51	0.3264653
880.685	0.32647213
880.859	0.32662256
881.033	0.32656164
881.207	0.32649562
881.381	0.32656528
881.556	0.32640261
881.73	0.32613321
881.904	0.3261819
882.078	0.32588857
882.252	0.32565053
882.426	0.32527495
882.6	0.32490282
882.774	0.32468209
882.948	0.32436102
883.122	0.32376149
883.296	0.32322979
883.47	0.32288443
883.644	0.32275017
883.818	0.32223258
883.992	0.32200177
884.166	0.32201593
884.34	0.32208894
884.514	0.32215515
884.687	0.32204544
884.861	0.32176314
885.035	0.32188434
885.209	0.32175777
885.382	0.32149797
885.556	0.32131508
885.73	0.32122754
885.904	0.32107748
886.077	0.32088005
886.251	0.32056439
886.425	0.32035614
886.598	0.32023759
886.772	0.32004846
886.945	0.3196369
887.119	0.31925051
887.292	0.31915399
887.466	0.31913967
887.64	0.31876722
887.813	0.31844571
887.986	0.31815284
888.16	0.31812187
888.333	0.31777762
888.507	0.31745162
888.68	0.31687114
888.854	0.31669216
889.027	0.31626527
889.2	0.31623006
889.374	0.31586508
889.547	0.31600127
889.72	0.31612071
889.893	0.31604715
890.067	0.3157784
890.24	0.31567839
890.413	0.315044
890.586	0.3145692
890.759	0.31409637
890.933	0.31349274
891.106	0.31307796
891.279	0.31282044
891.452	0.31250826
891.625	0.3123157
891.798	0.31228424
891.971	0.31210044
892.144	0.31193638
892.317	0.31191948
892.49	0.31164856
892.663	0.31143169
892.836	0.311396
893.009	0.31118212
893.182	0.31090518
893.355	0.31073343
893.527	0.31051901
893.7	0.31053017
893.873	0.31033332
894.046	0.30990149
894.219	0.3097167
894.391	0.30941952
894.564	0.30915722
894.737	0.3087755
894.91	0.30837337
895.082	0.30812419
895.255	0.30799513
895.428	0.30769962
895.6	0.30753132
895.773	0.30713958
895.945	0.30695758
896.118	0.30676001
896.291	0.30648494
896.463	0.30604934
896.636	0.30547381
896.808	0.30514791
896.981	0.30489737
897.153	0.30446888
897.326	0.30417548
897.498	0.30380301
897.67	0.30367812
897.843	0.30377569
898.015	0.30377554
898.187	0.3037797
898.36	0.30353787
898.532	0.30324172
898.704	0.303232
898.877	0.30295467
899.049	0.30268097
899.221	0.30223274
899.393	0.30176438
899.566	0.30152291
899.738	0.30144576
899.91	0.3009849
900.082	0.30070801
900.254	0.30037276
900.426	0.30004428
900.598	0.29980924
900.77	0.29944573
900.942	0.29907596
901.114	0.29885054
901.286	0.29855929
901.458	0.29826703
901.63	0.2980491
901.802	0.29780478
901.974	0.29760227
902.146	0.29714143
902.318	0.29667887
902.49	0.2961533
902.662	0.29555721
902.834	0.29490728
903.005	0.29448076
903.177	0.29411555
903.349	0.29384569
903.521	0.29345635
903.693	0.29332511
903.864	0.29317411
904.036	0.29318102
904.208	0.29279079
904.379	0.29247612
904.551	0.29223863
904.723	0.29217511
904.894	0.29180841
905.066	0.29161264
905.237	0.29133005
905.409	0.29107186
905.58	0.29092056
905.752	0.29049641
905.923	0.29029583
906.095	0.28996732
906.266	0.28957453
906.438	0.28920872
906.609	0.28904186
906.78	0.28877585
906.952	0.28864812
907.123	0.28818256
907.295	0.288139
907.466	0.28797317
907.637	0.2878759
907.808	0.28740705
907.98	0.287
908.151	0.28656853
908.322	0.28624461
908.493	0.2857174
908.665	0.28537211
908.836	0.28488375
909.007	0.28462895
909.178	0.28424158
909.349	0.28397083
909.52	0.28383155
909.691	0.28352902
909.862	0.28319153
910.033	0.28283159
910.204	0.28245587
910.375	0.28225397
910.546	0.28204386
910.717	0.28169865
910.888	0.28149734
911.059	0.28121415
911.23	0.28089728
911.401	0.28060866
911.572	0.28019501
911.742	0.27982617
911.913	0.27947126
912.084	0.2790319
912.255	0.27877323
912.426	0.27853292
912.596	0.27828125
912.767	0.27809209
912.938	0.27789999
913.108	0.27775507
913.279	0.27750487
913.45	0.27718011
913.62	0.27689301
913.791	0.276796
913.962	0.27661959
914.132	0.27625085
914.303	0.27585323
914.473	0.27563555
914.644	0.27528188
914.814	0.27493191
914.985	0.27449979
915.155	0.2741352
915.326	0.27373718
915.496	0.27323362
915.666	0.27271569
915.837	0.27242745
916.007	0.27180115
916.177	0.27114989
916.348	0.27071518
916.518	0.27027826
916.688	0.26996995
916.858	0.26972774
917.029	0.26925266
917.199	0.26923613
917.369	0.2692118
917.539	0.26892384
917.709	0.26880998
917.88	0.26845286
918.05	0.26807796
918.22	0.26778917
918.39	0.26730835
918.56	0.26692015
918.73	0.26667626
918.9	0.26617403
919.07	0.26587975
919.24	0.26561913
919.41	0.26532556
919.58	0.26494335
919.75	0.26452408
919.92	0.26390827
920.09	0.26361162
920.26	0.2631847
920.429	0.26270729
920.599	0.26227744
920.769	0.26199257
920.939	0.26154345
921.109	0.26129461
921.278	0.26094492
921.448	0.260635
921.618	0.26035071
921.787	0.26009721
921.957	0.25981788
922.127	0.25945552
922.296	0.25932412
922.466	0.25893798
922.636	0.25880088
922.805	0.25859102
922.975	0.25822196
923.144	0.25777899
923.314	0.25757829
923.483	0.25712749
923.653	0.25681384
923.822	0.25625394
923.992	0.25579388
924.161	0.25560906
924.331	0.25537014
924.5	0.25498955
924.669	0.25445651
924.839	0.25415842
925.008	0.25376676
925.177	0.25334651
925.347	0.25289522
925.516	0.2524318
925.685	0.25204605
925.854	0.2518022
926.023	0.25136006
926.193	0.25124543
926.362	0.25083366
926.531	0.25044914
926.7	0.24996331
926.869	0.25004804
927.038	0.24966194
927.207	0.24949352
927.376	0.24912933
927.545	0.24903435
927.715	0.24871605
927.884	0.2488076
928.052	0.2484097
928.221	0.24806311
928.39	0.24748088
928.559	0.24703261
928.728	0.24688824
928.897	0.24679715
929.066	0.24640424
929.235	0.2458728
929.404	0.24574711
929.572	0.24553547
929.741	0.24541605
929.91	0.24492709
930.079	0.24449532
930.247	0.24398875
930.416	0.24371802
930.585	0.24322754
930.753	0.24299204
930.922	0.24248515
931.091	0.24234646
931.259	0.24199787
931.428	0.24208405
931.596	0.24179424
931.765	0.24163636
931.934	0.24138476
932.102	0.24108118
932.27	0.24067364
932.439	0.24017003
932.607	0.23953555
932.776	0.23930158
932.944	0.23897466
933.113	0.23869834
933.281	0.2386132
933.449	0.23808609
933.618	0.23786072
933.786	0.23786464
933.954	0.23773831
934.123	0.23752214
934.291	0.23725831
934.459	0.23697848
934.627	0.2370273
934.795	0.23714092
934.964	0.23663949
935.132	0.23582321
935.3	0.23528389
935.468	0.23494079
935.636	0.23442931
935.804	0.23394509
935.972	0.23326012
936.14	0.23300961
936.308	0.23286928
936.476	0.23285591
936.644	0.23261744
936.812	0.23262484
936.98	0.23251993
937.148	0.23234434
937.316	0.23203296
937.484	0.23238154
937.652	0.23204587
937.82	0.23209587
937.987	0.23136885
938.155	0.23080507
938.323	0.23067866
938.491	0.23007097
938.658	0.22979651
938.826	0.22906125
938.994	0.22880721
939.162	0.22891168
939.329	0.22950164
939.497	0.22996288
939.665	0.22985431
939.832	0.22999509
940	0.23077754
940.167	0.23053436
940.335	0.2299588
940.502	0.22831736
940.67	0.22786625
940.837	0.22910647
941.005	0.22793178
941.172	0.2276445
941.34	0.2278435
941.507	0.22941553
941.674	0.23098692
941.842	0.23039177
942.009	0.23010237
942.177	0.23001021
942.344	0.23038084
942.511	0.23016606
942.678	0.23007797
942.846	0.22892977
943.013	0.22894803
943.18	0.22839749
943.347	0.22914062
943.514	0.22850955
943.682	0.22910987
943.849	0.22812887
944.016	0.22710901
944.183	0.22704262
944.35	0.2268375
944.517	0.22661882
944.684	0.22684462
944.851	0.22304988
945.018	0.22229741
945.185	0.22210879
945.352	0.22153269
945.519	0.22118957
945.686	0.22007967
945.853	0.22105228
946.02	0.22141097
946.187	0.22120399
946.353	0.22234315
946.52	0.22166538
946.687	0.22049195
946.854	0.22000046
947.021	0.21786061
947.187	0.21832752
947.354	0.21699238
947.521	0.21527427
947.687	0.21434693
947.854	0.21428896
948.021	0.21329849
948.187	0.21260585
948.354	0.21170176
948.52	0.21082735
948.687	0.21126571
948.854	0.21157694
949.02	0.21000966
949.187	0.21039818
949.353	0.21019725
949.52	0.20894252
949.686	0.20915385
949.852	0.20823103
950.019	0.2078629
950.185	0.20870296
950.352	0.20751824
950.518	0.20619233
950.684	0.2070017
950.851	0.20687318
951.017	0.20596637
951.183	0.20499727
951.349	0.20390152
951.516	0.20310256
951.682	0.20367201
951.848	0.20214455
952.014	0.20078385
952.18	0.20084725
952.346	0.19993935
952.512	0.19962887
952.679	0.19950587
952.845	0.19858015
953.011	0.19825262
953.177	0.19840546
953.343	0.19744147
953.509	0.19752496
953.675	0.19681708
953.841	0.19658231
954.007	0.19654823
954.172	0.19695924
954.338	0.19603362
954.504	0.19525734
954.67	0.19414977
954.836	0.19375888
955.002	0.19293235
955.167	0.19221377
955.333	0.19057749
955.499	0.19050065
955.665	0.1904659
955.83	0.19023085
955.996	0.18984481
956.162	0.18934621
956.327	0.18841539
956.493	0.18837685
956.659	0.18784709
956.824	0.18733492
956.99	0.18659102
957.155	0.18573536
957.321	0.18527493
957.486	0.18529431
957.652	0.18487992
957.817	0.18472294
957.983	0.18412245
958.148	0.18402253
958.314	0.18409078
958.479	0.18325266
958.644	0.18285102
958.81	0.18268134
958.975	0.18225023
959.14	0.18238822
959.306	0.18215072
959.471	0.18144713
959.636	0.18123911
959.801	0.18134771
959.967	0.18090115
960.132	0.18074393
960.297	0.179858
960.462	0.17969894
960.627	0.17961141
960.792	0.17927961
960.957	0.17833062
961.123	0.17828507
961.288	0.17772912
961.453	0.1776918
961.618	0.17725377
961.783	0.17725449
961.948	0.17677234
962.113	0.17619413
962.277	0.17557787
962.442	0.17558958
962.607	0.17527345
962.772	0.17502435
962.937	0.17431733
963.102	0.17483255
963.267	0.17479826
963.431	0.17427175
963.596	0.17350429
963.761	0.17268002
963.926	0.17207267
964.09	0.17191697
964.255	0.1714618
964.42	0.17155027
964.584	0.17160238
964.749	0.17117216
964.914	0.17115957
965.078	0.17077123
965.243	0.16993856
965.407	0.16941696
965.572	0.16898496
965.736	0.16881268
965.901	0.16885514
966.065	0.16878706
966.23	0.16860445
966.394	0.1686819
966.559	0.16841865
966.723	0.16783231
966.887	0.16732769
967.052	0.16674578
967.216	0.16620052
967.38	0.16553145
967.545	0.16539546
967.709	0.16507371
967.873	0.16531473
968.037	0.16491482
968.202	0.16492453
968.366	0.16499785
968.53	0.16544477
968.694	0.16478404
968.858	0.16464575
969.022	0.16413694
969.187	0.16379373
969.351	0.16331099
969.515	0.16308193
969.679	0.16217392
969.843	0.16196525
970.007	0.16146016
970.171	0.16110711
970.335	0.16091816
970.499	0.16078879
970.662	0.16019507
970.826	0.16007076
970.99	0.15990019
971.154	0.15981916
971.318	0.15924884
971.482	0.15869285
971.645	0.15828043
971.809	0.15825646
971.973	0.15824243
972.137	0.15806831
972.3	0.15754767
972.464	0.15753062
972.628	0.15785165
972.791	0.15804
972.955	0.15779677
973.119	0.15754887
973.282	0.15734459
973.446	0.15710042
973.609	0.15687318
973.773	0.15641495
973.936	0.15552675
974.1	0.1551745
974.263	0.15489743
974.427	0.15462712
974.59	0.15428543
974.754	0.15399463
974.917	0.15365044
975.08	0.15334069
975.244	0.15280572
975.407	0.15255056
975.57	0.15199101
975.734	0.15152923
975.897	0.15103094
976.06	0.15072278
976.223	0.15078173
976.387	0.15063988
976.55	0.15032611
976.713	0.14992459
976.876	0.15013532
977.039	0.14963564
977.202	0.14932594
977.365	0.14856027
977.528	0.14843166
977.692	0.14831582
977.855	0.14796686
978.018	0.14751605
978.181	0.14777388
978.344	0.14754263
978.506	0.14765461
978.669	0.1474429
978.832	0.14660561
978.995	0.14662882
979.158	0.14653209
979.321	0.1460924
979.484	0.14580852
979.646	0.14559191
979.809	0.14517747
979.972	0.14535516
980.135	0.14546131
980.297	0.14530578
980.46	0.14519339
980.623	0.14529682
980.786	0.14504025
980.948	0.1448178
981.111	0.14436189
981.273	0.14366931
981.436	0.14317786
981.599	0.14265556
981.761	0.14195246
981.924	0.14169578
982.086	0.14139473
982.249	0.14107565
982.411	0.14127717
982.573	0.14103712
982.736	0.14120792
982.898	0.14085725
983.061	0.14048462
983.223	0.14037561
983.385	0.14043082
983.548	0.14019178
983.71	0.13979328
983.872	0.13939719
984.034	0.13934131
984.197	0.13880892
984.359	0.13835203
984.521	0.13783007
984.683	0.13736455
984.845	0.13741753
985.008	0.13699783
985.17	0.13700678
985.332	0.13719281
985.494	0.13668968
985.656	0.13689635
985.818	0.13650582
985.98	0.13651703
986.142	0.13588013
986.304	0.13550173
986.466	0.13481857
986.628	0.13449179
986.79	0.13386866
986.952	0.13368514
987.113	0.13282976
987.275	0.13322845
987.437	0.13303467
987.599	0.13310641
987.761	0.13345335
987.922	0.13322051
988.084	0.13303333
988.246	0.13280183
988.408	0.13208518
988.569	0.13151731
988.731	0.1310429
988.893	0.1307616
989.054	0.13067725
989.216	0.13017085
989.377	0.12964766
989.539	0.12917997
989.701	0.12874621
989.862	0.12832485
990.024	0.12751573
990.185	0.12704355
990.347	0.1271596
990.508	0.12691461
990.669	0.12730721
990.831	0.12703583
990.992	0.12758008
991.154	0.12746952
991.315	0.12776201
991.476	0.12761591
991.638	0.12777354
991.799	0.12714067
991.96	0.12730158
992.121	0.12723384
992.283	0.12710918
992.444	0.12620738
992.605	0.12557955
992.766	0.12515301
992.927	0.12474385
993.088	0.12474243
993.249	0.12395612
993.41	0.12374775
993.572	0.12363192
993.733	0.12405809
993.894	0.12411945
994.055	0.12389288
994.216	0.12345199
994.376	0.1229281
994.537	0.12311112
994.698	0.12278838
994.859	0.12191941
995.02	0.12176503
995.181	0.12113911
995.342	0.12089399
995.503	0.120885
995.663	0.12020954
995.824	0.1200257
995.985	0.12027554
996.146	0.1199336
996.306	0.12054988
996.467	0.12014946
996.628	0.12003777
996.788	0.11994328
996.949	0.12071304
997.11	0.12022545
997.27	0.11984894
997.431	0.11958066
997.591	0.11913814
997.752	0.1186758
997.912	0.1187314
998.073	0.11769881
998.233	0.11805863
998.394	0.11785715
998.554	0.11818702
998.714	0.1182077
998.875	0.11762201
999.035	0.11685978
999.196	0.11674034
999.356	0.11608569
999.516	0.11614323
999.676	0.11552586
999.837	0.11539757
999.997	0.11497062
1000.157	0.11519717
1000.317	0.11444725
1000.477	0.11400411
1000.638	0.11381992
1000.798	0.11360303
1000.958	0.1137817
1001.118	0.11438843
1001.278	0.11447237
1001.438	0.11482924
1001.598	0.11421215
1001.758	0.1138648
1001.918	0.11354187
1002.078	0.11248582
1002.238	0.11242488
1002.398	0.11155928
1002.558	0.11101235
1002.718	0.1113985
1002.878	0.11105999
1003.037	0.10989147
1003.197	0.11046226
1003.357	0.10961294
1003.517	0.11003211
1003.677	0.11022074
1003.836	0.10909701
1003.996	0.10919416
1004.156	0.10999386
1004.315	0.11008265
1004.475	0.11131638
1004.635	0.11146353
1004.794	0.11158183
1004.954	0.1123444
1005.114	0.11206763
1005.273	0.11235558
1005.433	0.11142468
1005.592	0.11094546
1005.752	0.11037968
1005.911	0.10967447
1006.071	0.11000852
1006.23	0.10939995
1006.389	0.10892777
1006.549	0.10934638
1006.708	0.10841636
1006.868	0.1076265
1007.027	0.10756198
1007.186	0.1071965
1007.345	0.10750842
1007.505	0.10706808
1007.664	0.10643565
1007.823	0.10633509
1007.982	0.10726977
1008.142	0.10786959
1008.301	0.10711154
1008.46	0.10675651
1008.619	0.10635845
1008.778	0.10582645
1008.937	0.10564391
1009.096	0.10477314
1009.255	0.10376768
1009.414	0.10347893
1009.573	0.10316944
1009.732	0.10359266
1009.891	0.10361525
1010.05	0.10453637
1010.209	0.1045126
1010.368	0.10407092
1010.527	0.10402159
1010.686	0.10485282
1010.845	0.10353596
1011.003	0.10410816
1011.162	0.10310455
1011.321	0.10145062
1011.48	0.10229134
1011.638	0.10228413
1011.797	0.10175375
1011.956	0.10276639
1012.115	0.10270357
1012.273	0.10210813
1012.432	0.10345742
1012.59	0.10270997
1012.749	0.10260882
1012.908	0.10209803
1013.066	0.10211902
1013.225	0.10121246
1013.383	0.10234276
1013.542	0.10186461
1013.7	0.1019225
1013.859	0.10154402
1014.017	0.10254786
1014.175	0.10122654
1014.334	0.1027262
1014.492	0.103093
1014.65	0.10338876
1014.809	0.10335891
1014.967	0.10452527
1015.125	0.10411152
1015.284	0.1069419
1015.442	0.10644885
1015.6	0.10513987
1015.758	0.10414413
1015.916	0.10435953
1016.075	0.1030029
1016.233	0.10247485
1016.391	0.10119829
1016.549	0.10044564
1016.707	0.0999687
1016.865	0.09978979
1017.023	0.09841741
1017.181	0.09867333
1017.339	0.09833711
1017.497	0.09661617
1017.655	0.09644501
1017.813	0.09724979
1017.971	0.0985929
1018.129	0.09950926
1018.286	0.09987262
1018.444	0.09969955
1018.602	0.10139773
1018.76	0.10101403
1018.918	0.10098707
1019.075	0.10084294
1019.233	0.10091805
1019.391	0.10060813
1019.549	0.10061324
1019.706	0.09969259
1019.864	0.10159373
1020.022	0.10153574
1020.179	0.10218804
1020.337	0.10259436
1020.494	0.10239525
1020.652	0.10235947
1020.809	0.10195231
1020.967	0.10027244
1021.124	0.09854886
1021.282	0.09882583
1021.439	0.09780314
1021.597	0.09842583
1021.754	0.09897268
1021.911	0.1004501
1022.069	0.09982233
1022.226	0.10030364
1022.384	0.09758597
1022.541	0.0970442
1022.698	0.09678408
1022.855	0.09701939
1023.013	0.0957111
1023.17	0.09655394
1023.327	0.09739039
1023.484	0.09917129
1023.641	0.10020971
1023.798	0.10135355
1023.956	0.10264549
1024.113	0.10140911
1024.27	0.10060297
1024.427	0.10080309
1024.584	0.10046881
1024.741	0.09919238
1024.898	0.09689061
1025.055	0.09496349
1025.212	0.09473272
1025.369	0.09487359
1025.525	0.09457244
1025.682	0.09483894
1025.839	0.09591435
1025.996	0.09686771
1026.153	0.09784832
1026.31	0.1008553
1026.466	0.10247649
1026.623	0.10210097
1026.78	0.10382334
1026.937	0.10367996
1027.093	0.10548235
1027.25	0.10739066
1027.407	0.1066794
1027.563	0.10562488
1027.72	0.10483167
1027.876	0.10322272
1028.033	0.10408859
1028.19	0.10257191
1028.346	0.10003955
1028.503	0.09992199
1028.659	0.0999204
1028.816	0.10263919
1028.972	0.1027939
1029.128	0.10431124
1029.285	0.10536931
1029.441	0.10559132
1029.598	0.10488197
1029.754	0.10717154
1029.91	0.1058233
1030.067	0.10446784
1030.223	0.10351988
1030.379	0.10428382
1030.535	0.10310122
1030.691	0.10340098
1030.848	0.103725
1031.004	0.10346992
1031.16	0.10583799
1031.316	0.10684783
1031.472	0.10463033
1031.628	0.10549129
1031.784	0.10705369
1031.94	0.10690449
1032.096	0.10997869
1032.252	0.11012738
1032.408	0.10894339
1032.564	0.10990048
1032.72	0.11032729
1032.876	0.10869672
1033.032	0.10649545
1033.188	0.10454829
1033.344	0.10822005
1033.5	0.11287852
1033.655	0.11369014
1033.811	0.116749
1033.967	0.12140265
