Data from 1_mm_pl_60pc_Absorbance__0__16-38-27-279.txt Node

Date: Wed Mar 08 16:38:27 CET 2023
User: Ange
Spectrometer: FLMT08341
Trigger mode: 0
Integration Time (sec): 1.000000E-2
Scans to average: 400
Electric dark correction enabled: true
Nonlinearity correction enabled: false
Boxcar width: 3
XAxis mode: Wavelengths
Number of Pixels in Spectrum: 3648
>>>>>Begin Spectral Data<<<<<
345.271	0.02128445
345.487	0.02152563
345.704	0.02984737
345.921	0.03203335
346.137	0.02171059
346.354	0.00518239
346.571	0.02288311
346.787	-0.12274855
347.004	0.07607899
347.22	0.11464273
347.437	0.23689135
347.653	0.1816536
347.87	0.37131002
348.086	0.19335992
348.303	-0
348.519	0.3961213
348.736	0.35567192
348.952	0.35484033
349.169	0.36981995
349.385	0.38180352
349.601	0.38101095
349.818	0.37420289
350.034	0.36931768
350.251	0.37023387
350.467	0.37744632
350.683	0.36391268
350.9	0.36421873
351.116	0.36239821
351.332	0.36007258
351.549	0.3737869
351.765	0.38583911
351.981	0.39119286
352.197	0.40729324
352.414	0.42422476
352.63	0.43368105
352.846	0.44648113
353.062	0.43966378
353.278	0.42945562
353.495	0.44086099
353.711	0.44275713
353.927	0.44343722
354.143	0.44328487
354.359	0.43913941
354.575	0.43657404
354.792	0.44567508
355.008	0.43587576
355.224	0.4298044
355.44	0.42230673
355.656	0.41841203
355.872	0.42618812
356.088	0.45073119
356.304	0.45405887
356.52	0.45677865
356.736	0.46152492
356.952	0.46815266
357.168	0.47247659
357.384	0.47693773
357.6	0.45799897
357.816	0.46256592
358.032	0.46731544
358.248	0.48132668
358.464	0.48054976
358.679	0.4862877
358.895	0.48595276
359.111	0.49743218
359.327	0.49005731
359.543	0.49635198
359.759	0.50079864
359.974	0.50198274
360.19	0.50135121
360.406	0.50303914
360.622	0.50005471
360.838	0.50098177
361.053	0.50477467
361.269	0.505807
361.485	0.50998488
361.701	0.51420738
361.916	0.50831649
362.132	0.50672236
362.348	0.51112163
362.563	0.51078212
362.779	0.50611762
362.995	0.50978276
363.21	0.51637964
363.426	0.52004935
363.641	0.5253639
363.857	0.53155091
364.073	0.53087548
364.288	0.5297297
364.504	0.53903662
364.719	0.5375322
364.935	0.53962543
365.15	0.54057529
365.366	0.54105504
365.581	0.54839448
365.797	0.55074706
366.012	0.54219175
366.228	0.53910575
366.443	0.54866157
366.658	0.5521875
366.874	0.54911794
367.089	0.55293859
367.305	0.55824437
367.52	0.56286357
367.735	0.5666702
367.951	0.56079474
368.166	0.5636102
368.381	0.57486054
368.597	0.5710249
368.812	0.57570879
369.027	0.57983986
369.243	0.58211215
369.458	0.5945578
369.673	0.59493275
369.888	0.59503626
370.104	0.59211667
370.319	0.59695061
370.534	0.59690244
370.749	0.59974675
370.964	0.60105585
371.179	0.60381883
371.395	0.60047372
371.61	0.60975056
371.825	0.60086423
372.04	0.60275071
372.255	0.60063517
372.47	0.59530397
372.685	0.59138109
372.9	0.59089059
373.115	0.5868232
373.33	0.59376379
373.545	0.59329633
373.76	0.59659478
373.975	0.59707353
374.19	0.59882553
374.405	0.6043153
374.62	0.61384862
374.835	0.62043179
375.05	0.62567957
375.265	0.62866474
375.48	0.63490546
375.695	0.64767181
375.91	0.64748153
376.125	0.63906564
376.339	0.62901099
376.554	0.62917129
376.769	0.62972008
376.984	0.62705622
377.199	0.62731373
377.414	0.62569159
377.628	0.63468499
377.843	0.6422433
378.058	0.6451066
378.273	0.64857051
378.487	0.65264731
378.702	0.65495363
378.917	0.65833598
379.131	0.65478357
379.346	0.65027751
379.561	0.64873778
379.775	0.64757104
379.99	0.64441629
380.205	0.63680344
380.419	0.63295754
380.634	0.62830251
380.848	0.63417288
381.063	0.6359144
381.278	0.64273296
381.492	0.64070446
381.707	0.64812587
381.921	0.64931351
382.136	0.6609112
382.35	0.65824578
382.565	0.65490041
382.779	0.65415476
382.994	0.65805101
383.208	0.65269549
383.422	0.66202794
383.637	0.66045055
383.851	0.66740671
384.066	0.67401684
384.28	0.67729669
384.494	0.68018063
384.709	0.6875045
384.923	0.685732
385.137	0.68101319
385.352	0.68045212
385.566	0.68276833
385.78	0.68165495
385.995	0.67890096
386.209	0.67527788
386.423	0.67830325
386.637	0.68376723
386.852	0.67980695
387.066	0.67824807
387.28	0.67571997
387.494	0.68204691
387.708	0.68458521
387.923	0.68288444
388.137	0.68595474
388.351	0.68992088
388.565	0.69494272
388.779	0.69832266
388.993	0.70464834
389.207	0.70822179
389.421	0.71124933
389.635	0.70757589
389.85	0.70836644
390.064	0.70713357
390.278	0.70860373
390.492	0.70828132
390.706	0.70887439
390.92	0.70958239
391.134	0.71622012
391.348	0.72441314
391.561	0.72297509
391.775	0.72160048
391.989	0.71643188
392.203	0.71847775
392.417	0.72067812
392.631	0.72397842
392.845	0.71812478
393.059	0.72379081
393.273	0.72387587
393.486	0.72216067
393.7	0.71763082
393.914	0.71999523
394.128	0.71610893
394.342	0.71611653
394.555	0.71093289
394.769	0.71265669
394.983	0.71700292
395.197	0.72291235
395.41	0.72292044
395.624	0.72554571
395.838	0.72671319
396.051	0.73494215
396.265	0.73375813
396.479	0.73617815
396.692	0.73601222
396.906	0.73357847
397.12	0.73264981
397.333	0.73621559
397.547	0.73294493
397.76	0.7374181
397.974	0.73792669
398.187	0.73999092
398.401	0.74402228
398.614	0.745616
398.828	0.74504622
399.041	0.74645692
399.255	0.74613509
399.468	0.74630196
399.682	0.74562974
399.895	0.74572571
400.109	0.74485033
400.322	0.74423333
400.536	0.74138363
400.749	0.74484315
400.962	0.74550712
401.176	0.74510943
401.389	0.74452347
401.602	0.74110031
401.816	0.74340595
402.029	0.74632706
402.242	0.74355795
402.456	0.74273926
402.669	0.74034802
402.882	0.7373033
403.095	0.74409715
403.309	0.7430061
403.522	0.74366024
403.735	0.74279344
403.948	0.74239762
404.161	0.74953399
404.375	0.75144259
404.588	0.75031929
404.801	0.75074463
405.014	0.74865481
405.227	0.7525933
405.44	0.7543896
405.653	0.75380132
405.866	0.75217002
406.079	0.75057285
406.293	0.74980165
406.506	0.75042719
406.719	0.74864548
406.932	0.74726635
407.145	0.74367688
407.358	0.74894141
407.571	0.74676953
407.784	0.74787444
407.996	0.74865951
408.209	0.74585338
408.422	0.74419495
408.635	0.74528113
408.848	0.74374821
409.061	0.74095108
409.274	0.7389038
409.487	0.73728723
409.7	0.73762988
409.912	0.73952542
410.125	0.73848556
410.338	0.73701974
410.551	0.73898257
410.764	0.73988282
410.976	0.73976231
411.189	0.74017836
411.402	0.7378073
411.615	0.73835396
411.827	0.73869127
412.04	0.73931264
412.253	0.73796217
412.465	0.73719113
412.678	0.73544254
412.891	0.73682356
413.103	0.73174246
413.316	0.72909665
413.529	0.72996539
413.741	0.73118459
413.954	0.73104182
414.166	0.73125436
414.379	0.72943663
414.591	0.73251877
414.804	0.73115312
415.016	0.72905674
415.229	0.7261529
415.441	0.72384132
415.654	0.72410884
415.866	0.72332212
416.079	0.72250203
416.291	0.72222993
416.504	0.72308557
416.716	0.72296477
416.928	0.7230785
417.141	0.72043583
417.353	0.72068055
417.566	0.71708198
417.778	0.71612317
417.99	0.71119725
418.203	0.7081756
418.415	0.70674206
418.627	0.70609949
418.839	0.7042505
419.052	0.70662155
419.264	0.70539105
419.476	0.70633906
419.688	0.70662823
419.901	0.70598779
420.113	0.70439407
420.325	0.7023964
420.537	0.69879069
420.749	0.69900048
420.961	0.69802676
421.174	0.69664343
421.386	0.69454767
421.598	0.6932755
421.81	0.69208535
422.022	0.69048374
422.234	0.68830219
422.446	0.68588382
422.658	0.68382868
422.87	0.68271947
423.082	0.68096919
423.294	0.67867011
423.506	0.67811409
423.718	0.67647693
423.93	0.67420874
424.142	0.6720775
424.354	0.66971082
424.566	0.66782502
424.778	0.66740699
424.99	0.66558626
425.202	0.6632805
425.414	0.6625241
425.625	0.6623343
425.837	0.65993559
426.049	0.65949971
426.261	0.65680083
426.473	0.65373198
426.684	0.65278019
426.896	0.65216256
427.108	0.64927071
427.32	0.64875492
427.531	0.64604345
427.743	0.64485759
427.955	0.64553246
428.167	0.64309323
428.378	0.64067396
428.59	0.63950327
428.802	0.63778602
429.013	0.63574649
429.225	0.63330496
429.436	0.63010793
429.648	0.62907359
429.86	0.62795539
430.071	0.62658836
430.283	0.62468693
430.494	0.62280345
430.706	0.62144317
430.917	0.61963997
431.129	0.61764062
431.34	0.61505824
431.552	0.61318916
431.763	0.61105713
431.975	0.61020587
432.186	0.60752604
432.398	0.60557649
432.609	0.60188369
432.821	0.59985
433.032	0.59760761
433.243	0.59539667
433.455	0.59322197
433.666	0.59196723
433.877	0.59071926
434.089	0.58897219
434.3	0.58638923
434.511	0.58343372
434.723	0.58120097
434.934	0.57802812
435.145	0.57466494
435.356	0.57144454
435.568	0.56987793
435.779	0.56746223
435.99	0.56465113
436.201	0.56246341
436.412	0.56021975
436.624	0.55932433
436.835	0.55797747
437.046	0.55650348
437.257	0.55460799
437.468	0.5542911
437.679	0.55297596
437.89	0.55132343
438.101	0.54960016
438.312	0.54719814
438.523	0.54469711
438.734	0.54286634
438.945	0.54019532
439.156	0.5372482
439.367	0.53536265
439.578	0.53345026
439.789	0.53070039
440	0.52881389
440.211	0.52621769
440.422	0.52437109
440.633	0.52329154
440.844	0.52051573
441.055	0.51793176
441.266	0.51672063
441.477	0.51389677
441.687	0.51221147
441.898	0.50977962
442.109	0.50681631
442.32	0.50480097
442.531	0.50174788
442.741	0.49849875
442.952	0.49645721
443.163	0.49433268
443.374	0.49198694
443.584	0.48968823
443.795	0.48765671
444.006	0.48596589
444.216	0.48385068
444.427	0.48132225
444.638	0.47874537
444.848	0.47646194
445.059	0.47423675
445.27	0.47159264
445.48	0.46894622
445.691	0.4670464
445.901	0.46520737
446.112	0.4630046
446.323	0.46045834
446.533	0.45802126
446.744	0.4558641
446.954	0.45366709
447.165	0.45127982
447.375	0.44939369
447.586	0.4477412
447.796	0.44607803
448.006	0.44401493
448.217	0.44238662
448.427	0.44019396
448.638	0.43768399
448.848	0.4348563
449.058	0.43206547
449.269	0.42969084
449.479	0.42779798
449.689	0.42523331
449.9	0.42329138
450.11	0.42138399
450.32	0.41998726
450.531	0.41782456
450.741	0.41562374
450.951	0.41362908
451.161	0.41153093
451.372	0.40960099
451.582	0.40844294
451.792	0.40605754
452.002	0.40430624
452.212	0.40216985
452.422	0.40012857
452.633	0.39816946
452.843	0.39645762
453.053	0.39334129
453.263	0.39138044
453.473	0.38928379
453.683	0.38782951
453.893	0.38533756
454.103	0.38370145
454.313	0.38165294
454.523	0.37998836
454.733	0.37825912
454.943	0.37684282
455.153	0.37496848
455.363	0.37341838
455.573	0.3716459
455.783	0.36988152
455.993	0.368167
456.203	0.36653907
456.413	0.36448518
456.623	0.3625431
456.833	0.3612186
457.042	0.35939757
457.252	0.35768087
457.462	0.35579387
457.672	0.35402761
457.882	0.3524147
458.091	0.35079908
458.301	0.34886911
458.511	0.34716569
458.721	0.34555742
458.931	0.34409794
459.14	0.3425245
459.35	0.34118092
459.56	0.33982255
459.769	0.33848335
459.979	0.33698056
460.189	0.33547822
460.398	0.33393622
460.608	0.33276178
460.817	0.3311567
461.027	0.32949844
461.237	0.32787857
461.446	0.32647528
461.656	0.32508547
461.865	0.32357986
462.075	0.32173224
462.284	0.3205084
462.494	0.3190307
462.703	0.31753456
462.913	0.31604314
463.122	0.31457944
463.332	0.31325195
463.541	0.31219658
463.751	0.31079863
463.96	0.30951806
464.169	0.30834217
464.379	0.30741075
464.588	0.30633477
464.797	0.30534719
465.007	0.30409649
465.216	0.30294739
465.425	0.30218705
465.635	0.30103324
465.844	0.29971084
466.053	0.29863951
466.263	0.29754978
466.472	0.29650073
466.681	0.29557636
466.89	0.29440502
467.099	0.29362234
467.309	0.29283665
467.518	0.29196577
467.727	0.29106705
467.936	0.29024117
468.145	0.28936023
468.354	0.28865885
468.563	0.28774448
468.772	0.28683254
468.982	0.28590642
469.191	0.28522824
469.4	0.28436876
469.609	0.28352497
469.818	0.28279757
470.027	0.28216114
470.236	0.28152804
470.445	0.28082278
470.654	0.28003885
470.863	0.27928018
471.072	0.27863468
471.28	0.2777638
471.489	0.27696082
471.698	0.27627701
471.907	0.27571549
472.116	0.27511454
472.325	0.27464952
472.534	0.27415857
472.743	0.27356273
472.951	0.2732418
473.16	0.27279345
473.369	0.27230795
473.578	0.27187543
473.786	0.27155471
473.995	0.27091931
474.204	0.2706121
474.413	0.26998546
474.621	0.26961156
474.83	0.26932098
475.039	0.268892
475.247	0.26842563
475.456	0.26825897
475.665	0.26797934
475.873	0.26782564
476.082	0.26740996
476.291	0.26721423
476.499	0.26708734
476.708	0.26677155
476.916	0.26662543
477.125	0.26642055
477.333	0.26616386
477.542	0.26598193
477.75	0.26565748
477.959	0.26555361
478.167	0.26557098
478.376	0.26527528
478.584	0.2651069
478.793	0.265025
479.001	0.26495382
479.209	0.26487126
479.418	0.26465351
479.626	0.26462928
479.834	0.26457681
480.043	0.26464509
480.251	0.26450733
480.459	0.26449503
480.668	0.26448415
480.876	0.26453778
481.084	0.2645582
481.293	0.26468091
481.501	0.26475999
481.709	0.26507014
481.917	0.26526271
482.125	0.26546669
482.334	0.26568688
482.542	0.26567582
482.75	0.26584861
482.958	0.26601569
483.166	0.2661628
483.374	0.2662977
483.583	0.26647147
483.791	0.26660393
483.999	0.26689719
484.207	0.26714512
484.415	0.26737392
484.623	0.26753892
484.831	0.26779132
485.039	0.26814152
485.247	0.26845814
485.455	0.2688786
485.663	0.26925859
485.871	0.26959632
486.079	0.26999317
486.287	0.27041451
486.495	0.27070843
486.702	0.2710893
486.91	0.27150772
487.118	0.27187547
487.326	0.27232959
487.534	0.27281598
487.742	0.2732378
487.95	0.2738127
488.157	0.2743841
488.365	0.27486441
488.573	0.27540758
488.781	0.2759702
488.988	0.27671308
489.196	0.27742734
489.404	0.2779558
489.612	0.27858602
489.819	0.27922446
490.027	0.27990623
490.235	0.28050858
490.442	0.28109323
490.65	0.28163445
490.857	0.28234625
491.065	0.28296314
491.273	0.28357418
491.48	0.28422
491.688	0.28479536
491.895	0.28545097
492.103	0.28620059
492.31	0.286966
492.518	0.28771891
492.725	0.28855924
492.933	0.28930971
493.14	0.29015808
493.348	0.29086747
493.555	0.29170716
493.763	0.29247428
493.97	0.29332845
494.177	0.29405988
494.385	0.29489823
494.592	0.29575959
494.8	0.29660052
495.007	0.29740546
495.214	0.29831926
495.422	0.29914183
495.629	0.30007183
495.836	0.30097764
496.043	0.301998
496.251	0.30296338
496.458	0.3038248
496.665	0.30472633
496.872	0.30576302
497.08	0.30670823
497.287	0.30774804
497.494	0.30870945
497.701	0.30970316
497.908	0.31079596
498.115	0.31180939
498.322	0.31274767
498.53	0.31378922
498.737	0.31479588
498.944	0.31581798
499.151	0.31689509
499.358	0.31797555
499.565	0.31901622
499.772	0.32012143
499.979	0.32114493
500.186	0.32221847
500.393	0.32332069
500.6	0.32444644
500.807	0.325601
501.014	0.32674705
501.221	0.32789908
501.427	0.32910712
501.634	0.33034105
501.841	0.33155859
502.048	0.33271337
502.255	0.33368907
502.462	0.33480786
502.669	0.33603787
502.875	0.33732909
503.082	0.33846608
503.289	0.33955275
503.496	0.34081673
503.702	0.34215014
503.909	0.34343771
504.116	0.34472269
504.323	0.34594977
504.529	0.34728196
504.736	0.34864119
504.943	0.34982573
505.149	0.35116861
505.356	0.35251379
505.563	0.35378789
505.769	0.35511692
505.976	0.35631528
506.182	0.35762524
506.389	0.35903832
506.595	0.36045244
506.802	0.36181652
507.008	0.36316485
507.215	0.36450339
507.421	0.36596258
507.628	0.3672802
507.834	0.36857812
508.041	0.36978949
508.247	0.37100568
508.454	0.37231859
508.66	0.37361137
508.866	0.37498482
509.073	0.37640123
509.279	0.3778951
509.486	0.37941158
509.692	0.38091398
509.898	0.38246563
510.105	0.38396306
510.311	0.38532684
510.517	0.38679222
510.723	0.38824093
510.93	0.38965898
511.136	0.391098
511.342	0.39249529
511.548	0.3938958
511.754	0.39543534
511.961	0.39689214
512.167	0.39823818
512.373	0.3997067
512.579	0.40117453
512.785	0.40260517
512.991	0.4040628
513.197	0.40549411
513.404	0.40697291
513.61	0.40860065
513.816	0.41005232
514.022	0.41166273
514.228	0.41313674
514.434	0.41460826
514.64	0.41609711
514.846	0.41772736
515.052	0.41918815
515.258	0.42066982
515.464	0.42208032
515.669	0.4236606
515.875	0.42523036
516.081	0.42677954
516.287	0.42827557
516.493	0.42985816
516.699	0.43142474
516.905	0.43300226
517.111	0.4344789
517.316	0.43605239
517.522	0.4377081
517.728	0.43933659
517.934	0.4408826
518.139	0.44253019
518.345	0.4441176
518.551	0.44585512
518.757	0.44750303
518.962	0.44902787
519.168	0.45053658
519.374	0.45205618
519.579	0.45355941
519.785	0.45517335
519.991	0.4567707
520.196	0.45828122
520.402	0.45990376
520.607	0.46168115
520.813	0.46347364
521.018	0.46515703
521.224	0.46673172
521.429	0.46832725
521.635	0.47002263
521.84	0.47143436
522.046	0.47287433
522.251	0.47437519
522.457	0.47591653
522.662	0.47752728
522.868	0.47916506
523.073	0.48068908
523.279	0.48236759
523.484	0.48390039
523.689	0.48543798
523.895	0.48700642
524.1	0.48858282
524.305	0.49005749
524.511	0.49158824
524.716	0.49325055
524.921	0.49486884
525.126	0.49647178
525.332	0.49804909
525.537	0.49953658
525.742	0.50126034
525.947	0.50299062
526.153	0.50453476
526.358	0.5062648
526.563	0.50789698
526.768	0.50954943
526.973	0.51123423
527.178	0.51289333
527.383	0.51452977
527.588	0.51620321
527.794	0.51762819
527.999	0.51915968
528.204	0.52069045
528.409	0.52215813
528.614	0.52368297
528.819	0.52524504
529.024	0.52672335
529.229	0.52825195
529.434	0.52996066
529.639	0.53155916
529.843	0.5332408
530.048	0.53470657
530.253	0.53615259
530.458	0.53773541
530.663	0.5393859
530.868	0.54098949
531.073	0.54254825
531.278	0.54407458
531.482	0.54563408
531.687	0.54733555
531.892	0.54882644
532.097	0.55028221
532.302	0.55184833
532.506	0.55344432
532.711	0.55493998
532.916	0.55644695
533.12	0.55780517
533.325	0.55939383
533.53	0.56099125
533.734	0.56226445
533.939	0.56371863
534.144	0.56533138
534.348	0.56686256
534.553	0.56849047
534.757	0.56993285
534.962	0.57142192
535.167	0.57305384
535.371	0.57456032
535.576	0.5761303
535.78	0.57769244
535.985	0.57914433
536.189	0.58066914
536.394	0.58224475
536.598	0.58361497
536.803	0.58507025
537.007	0.58652213
537.211	0.58803023
537.416	0.58947349
537.62	0.5909582
537.825	0.59233918
538.029	0.59413326
538.233	0.59563364
538.438	0.59713685
538.642	0.59847635
538.846	0.60005621
539.05	0.60138122
539.255	0.60274488
539.459	0.60401267
539.663	0.60533994
539.867	0.60663927
540.072	0.60818948
540.276	0.60947591
540.48	0.61111599
540.684	0.61255836
540.888	0.61406333
541.092	0.61552211
541.297	0.61699387
541.501	0.61825513
541.705	0.61971617
541.909	0.62099238
542.113	0.62237273
542.317	0.62385387
542.521	0.62526234
542.725	0.62664958
542.929	0.62808921
543.133	0.62937821
543.337	0.63079894
543.541	0.63219401
543.745	0.63328859
543.949	0.63459858
544.153	0.63588063
544.357	0.63710901
544.56	0.6385344
544.764	0.63985689
544.968	0.64114516
545.172	0.64237165
545.376	0.64375586
545.58	0.64508491
545.783	0.64657392
545.987	0.64772901
546.191	0.64900066
546.395	0.65041208
546.598	0.6519951
546.802	0.65332295
547.006	0.6546721
547.21	0.65560183
547.413	0.65701464
547.617	0.65836101
547.821	0.65967476
548.024	0.66087022
548.228	0.66194125
548.431	0.6631222
548.635	0.66453882
548.839	0.66569083
549.042	0.66685188
549.246	0.66784917
549.449	0.66903544
549.653	0.67033655
549.856	0.67148337
550.06	0.67260164
550.263	0.67387511
550.467	0.67504575
550.67	0.67632647
550.874	0.67744687
551.077	0.67871839
551.28	0.67999817
551.484	0.6813148
551.687	0.68241245
551.891	0.68363028
552.094	0.68472531
552.297	0.68592504
552.501	0.68713118
552.704	0.68827742
552.907	0.68929048
553.11	0.69030841
553.314	0.69132942
553.517	0.69221331
553.72	0.69328103
553.923	0.69429157
554.127	0.6954365
554.33	0.69641743
554.533	0.69754404
554.736	0.69849919
554.939	0.69971239
555.142	0.70089489
555.345	0.70202553
555.549	0.70306786
555.752	0.70431895
555.955	0.70544826
556.158	0.7068071
556.361	0.70797808
556.564	0.70885721
556.767	0.70982272
556.97	0.71088513
557.173	0.71194195
557.376	0.71319229
557.579	0.71406056
557.782	0.7150372
557.984	0.71617048
558.187	0.71707784
558.39	0.71796921
558.593	0.71899165
558.796	0.71971247
558.999	0.72062977
559.202	0.72161139
559.404	0.72238876
559.607	0.72349273
559.81	0.7244843
560.013	0.72537111
560.216	0.72641898
560.418	0.72748274
560.621	0.72834915
560.824	0.72942349
561.026	0.73028138
561.229	0.73113115
561.432	0.73199624
561.634	0.73283271
561.837	0.73351847
562.04	0.73443573
562.242	0.73522464
562.445	0.73610469
562.647	0.73703722
562.85	0.73774653
563.053	0.73852152
563.255	0.7394451
563.458	0.74027248
563.66	0.74119163
563.863	0.74217734
564.065	0.74311594
564.268	0.74410201
564.47	0.74503232
564.672	0.74586211
564.875	0.7468435
565.077	0.74761148
565.28	0.7481684
565.482	0.74886788
565.684	0.7495897
565.887	0.75036218
566.089	0.75129444
566.291	0.75191101
566.494	0.75267579
566.696	0.75336555
566.898	0.75415437
567.1	0.75486589
567.303	0.75555454
567.505	0.75608397
567.707	0.75659235
567.909	0.75717316
568.111	0.75794487
568.314	0.75853962
568.516	0.75928719
568.718	0.75987948
568.92	0.76054832
569.122	0.76132324
569.324	0.76198978
569.526	0.76254492
569.728	0.76323077
569.93	0.76370356
570.132	0.76428679
570.334	0.76490213
570.536	0.7653841
570.738	0.76586456
570.94	0.76640115
571.142	0.76696559
571.344	0.76746911
571.546	0.768088
571.748	0.76876404
571.95	0.76935257
572.152	0.76991474
572.354	0.77048393
572.555	0.77103758
572.757	0.77187037
572.959	0.77232102
573.161	0.77244574
573.363	0.77298596
573.564	0.7736977
573.766	0.77417127
573.968	0.77467526
574.17	0.77473325
574.371	0.77517345
574.573	0.77571224
574.775	0.7759747
574.976	0.77624339
575.178	0.77664764
575.38	0.77673118
575.581	0.77719039
575.783	0.77766212
575.985	0.77812588
576.186	0.77867987
576.388	0.77901469
576.589	0.77927594
576.791	0.77984496
576.992	0.78027433
577.194	0.78048934
577.395	0.78073324
577.597	0.78112433
577.798	0.78155486
578	0.78194347
578.201	0.78222017
578.402	0.78254467
578.604	0.78282462
578.805	0.78324488
579.007	0.78346656
579.208	0.78367483
579.409	0.78399356
579.611	0.78411398
579.812	0.78440656
580.013	0.78461778
580.215	0.78457103
580.416	0.78459764
580.617	0.7846498
580.818	0.78485901
581.019	0.78511256
581.221	0.78527275
581.422	0.78544903
581.623	0.78581424
581.824	0.78594531
582.025	0.78613895
582.226	0.78616687
582.428	0.78633225
582.629	0.78639894
582.83	0.78658821
583.031	0.78662451
583.232	0.78719369
583.433	0.78751654
583.634	0.78771829
583.835	0.78781029
584.036	0.78783318
584.237	0.78780541
584.438	0.78791602
584.639	0.78752358
584.84	0.78745546
585.041	0.7873551
585.242	0.78732141
585.442	0.7874292
585.643	0.78755802
585.844	0.78751846
586.045	0.78772844
586.246	0.78764128
586.447	0.78758242
586.647	0.78744605
586.848	0.78726028
587.049	0.78707217
587.25	0.7868741
587.45	0.78662154
587.651	0.78658784
587.852	0.7865712
588.053	0.78669017
588.253	0.78656839
588.454	0.78663123
588.655	0.78658567
588.855	0.78637581
589.056	0.78623971
589.256	0.78616169
589.457	0.78587905
589.658	0.78585333
589.858	0.78555193
590.059	0.78545116
590.259	0.78547194
590.46	0.78521954
590.66	0.7850022
590.861	0.78485384
591.061	0.78469204
591.262	0.7846702
591.462	0.78459181
591.662	0.78433327
591.863	0.78415938
592.063	0.78392213
592.264	0.78377649
592.464	0.78345014
592.664	0.78304971
592.865	0.78283275
593.065	0.78244684
593.265	0.78243572
593.465	0.78221549
593.666	0.78192219
593.866	0.78174368
594.066	0.78154768
594.266	0.78117979
594.467	0.78075911
594.667	0.780243
594.867	0.77990117
595.067	0.77947268
595.267	0.77903631
595.467	0.77861745
595.668	0.7781434
595.868	0.77788367
596.068	0.77743801
596.268	0.77700047
596.468	0.77667923
596.668	0.77642473
596.868	0.77596195
597.068	0.77568017
597.268	0.77546791
597.468	0.77512441
597.668	0.77471055
597.868	0.77429423
598.068	0.77369627
598.268	0.77329671
598.467	0.77293042
598.667	0.77240586
598.867	0.77173866
599.067	0.77132476
599.267	0.77084101
599.467	0.77042516
599.667	0.76978238
599.866	0.76924881
600.066	0.76861467
600.266	0.76804198
600.466	0.76738119
600.665	0.76680345
600.865	0.76606184
601.065	0.76590682
601.264	0.76534414
601.464	0.76502524
601.664	0.76479715
601.863	0.76434473
602.063	0.76386155
602.263	0.76323878
602.462	0.76248234
602.662	0.76184702
602.861	0.7610355
603.061	0.76031492
603.26	0.75973214
603.46	0.75909524
603.659	0.75863883
603.859	0.75811472
604.058	0.75746665
604.258	0.75692154
604.457	0.75644712
604.657	0.75564661
604.856	0.75484993
605.056	0.75429355
605.255	0.75348584
605.454	0.75276758
605.654	0.75195203
605.853	0.75112288
606.052	0.75038719
606.252	0.74980106
606.451	0.74907981
606.65	0.74847477
606.849	0.74768912
607.049	0.74703175
607.248	0.74624347
607.447	0.74555182
607.646	0.74482896
607.845	0.74393238
608.045	0.74301189
608.244	0.74238441
608.443	0.74173237
608.642	0.74106418
608.841	0.74029929
609.04	0.73938909
609.239	0.73879922
609.438	0.73807319
609.637	0.73734269
609.836	0.73651439
610.035	0.73568857
610.234	0.73495127
610.433	0.73424536
610.632	0.73328671
610.831	0.73249519
611.03	0.73150196
611.229	0.73076508
611.428	0.73003178
611.627	0.72926414
611.826	0.7284484
612.025	0.72772865
612.224	0.72679063
612.422	0.72595426
612.621	0.72499585
612.82	0.72410955
613.019	0.72317427
613.218	0.72232856
613.416	0.72129682
613.615	0.72048207
613.814	0.71944701
614.012	0.71848718
614.211	0.717364
614.41	0.71644735
614.608	0.71552092
614.807	0.71463978
615.006	0.71375448
615.204	0.71293187
615.403	0.71212119
615.602	0.71130545
615.8	0.71034944
615.999	0.70917414
616.197	0.70824167
616.396	0.70725682
616.594	0.70623446
616.793	0.70530145
616.991	0.70434398
617.19	0.70331201
617.388	0.70277617
617.586	0.70182731
617.785	0.70093906
617.983	0.70007937
618.182	0.69901636
618.38	0.69798679
618.578	0.6970261
618.777	0.69584427
618.975	0.69494997
619.173	0.69389735
619.372	0.69302445
619.57	0.69199502
619.768	0.69112618
619.966	0.69016272
620.165	0.68898869
620.363	0.68798027
620.561	0.68692908
620.759	0.6858001
620.957	0.68495975
621.155	0.68392622
621.354	0.68289833
621.552	0.68210984
621.75	0.68089428
621.948	0.67988073
622.146	0.67876201
622.344	0.67741335
622.542	0.67630224
622.74	0.67508802
622.938	0.67384086
623.136	0.67284545
623.334	0.67181319
623.532	0.67067279
623.73	0.66967532
623.928	0.66860593
624.126	0.66753838
624.324	0.66652985
624.522	0.66533428
624.719	0.66402259
624.917	0.66300322
625.115	0.66167659
625.313	0.66063759
625.511	0.6595972
625.708	0.65833628
625.906	0.65709086
626.104	0.65594546
626.302	0.65475486
626.499	0.65367788
626.697	0.65229758
626.895	0.65094274
627.093	0.64985362
627.29	0.64886778
627.488	0.64775469
627.686	0.64670181
627.883	0.64551727
628.081	0.64432343
628.278	0.64337248
628.476	0.64216113
628.673	0.64101083
628.871	0.63992979
629.068	0.6386762
629.266	0.63766639
629.463	0.63656582
629.661	0.63537026
629.858	0.63422544
630.056	0.63295823
630.253	0.63176393
630.451	0.6304561
630.648	0.62902099
630.845	0.62768277
631.043	0.62639842
631.24	0.62516755
631.438	0.62394396
631.635	0.62265858
631.832	0.62139832
632.029	0.62033219
632.227	0.61908084
632.424	0.61781858
632.621	0.61653032
632.818	0.61523521
633.016	0.61393545
633.213	0.61264756
633.41	0.61129884
633.607	0.61012648
633.804	0.60893784
634.001	0.60769649
634.199	0.60644463
634.396	0.60526704
634.593	0.6040712
634.79	0.60297824
634.987	0.60171914
635.184	0.60047632
635.381	0.59922962
635.578	0.59806056
635.775	0.59675766
635.972	0.59554606
636.169	0.59419264
636.366	0.5929635
636.563	0.5916498
636.76	0.59032794
636.957	0.58899866
637.153	0.58768505
637.35	0.5865789
637.547	0.58536627
637.744	0.58405182
637.941	0.58290668
638.138	0.5816251
638.334	0.58031068
638.531	0.57910951
638.728	0.57781261
638.925	0.57667652
639.121	0.57557877
639.318	0.57430673
639.515	0.57306357
639.711	0.57195708
639.908	0.5706186
640.105	0.56924742
640.301	0.56776494
640.498	0.56629727
640.695	0.56498206
640.891	0.56360757
641.088	0.56220064
641.284	0.56092666
641.481	0.5597031
641.677	0.55851599
641.874	0.55723376
642.07	0.55594083
642.267	0.55486863
642.463	0.55355848
642.66	0.55235948
642.856	0.55100088
643.053	0.54964158
643.249	0.54845616
643.445	0.54725917
643.642	0.54595328
643.838	0.54488835
644.034	0.54366579
644.231	0.54242635
644.427	0.54124063
644.623	0.53989459
644.82	0.53864448
645.016	0.53729366
645.212	0.53584634
645.408	0.53453316
645.604	0.53346451
645.801	0.53227381
645.997	0.53107526
646.193	0.52990808
646.389	0.52885957
646.585	0.52773801
646.781	0.5265341
646.977	0.52530279
647.173	0.52399633
647.37	0.52277491
647.566	0.52141476
647.762	0.52010245
647.958	0.51892591
648.154	0.51761663
648.35	0.51629407
648.546	0.51504772
648.742	0.51390109
648.937	0.51261558
649.133	0.51144038
649.329	0.51012987
649.525	0.50886281
649.721	0.50753687
649.917	0.50639849
650.113	0.5050239
650.309	0.50390103
650.504	0.50256351
650.7	0.50129884
650.896	0.50006032
651.092	0.49885847
651.287	0.49756315
651.483	0.49638124
651.679	0.49507876
651.875	0.49382008
652.07	0.49261575
652.266	0.49141901
652.462	0.49025539
652.657	0.4890325
652.853	0.4878066
653.048	0.48657417
653.244	0.48531797
653.44	0.48413064
653.635	0.4827843
653.831	0.48139647
654.026	0.48020706
654.222	0.47886959
654.417	0.47765377
654.613	0.47640756
654.808	0.47501647
655.004	0.47388347
655.199	0.472677
655.394	0.47134215
655.59	0.47022713
655.785	0.46895391
655.98	0.46783949
656.176	0.46672679
656.371	0.46566532
656.566	0.46454721
656.762	0.46334149
656.957	0.46208245
657.152	0.46095273
657.348	0.45969158
657.543	0.45848812
657.738	0.45715285
657.933	0.45592223
658.128	0.45469172
658.324	0.45343069
658.519	0.45215176
658.714	0.45087159
658.909	0.44950502
659.104	0.44826283
659.299	0.44697082
659.494	0.44573407
659.689	0.44454623
659.884	0.44326583
660.079	0.44202325
660.274	0.44088051
660.469	0.43975827
660.664	0.43869615
660.859	0.43754215
661.054	0.43633628
661.249	0.43527144
661.444	0.43420592
661.639	0.43304494
661.834	0.43176307
662.029	0.43054543
662.224	0.42936748
662.418	0.42820591
662.613	0.426996
662.808	0.42570338
663.003	0.42453052
663.198	0.42332848
663.392	0.42207074
663.587	0.42098463
663.782	0.41977092
663.977	0.41855583
664.171	0.41746385
664.366	0.41623827
664.561	0.41506842
664.755	0.41385706
664.95	0.41264812
665.144	0.41151394
665.339	0.41039317
665.534	0.40921767
665.728	0.40809301
665.923	0.4069253
666.117	0.40583263
666.312	0.40462614
666.506	0.40348348
666.701	0.40218772
666.895	0.4009973
667.09	0.3997913
667.284	0.39883261
667.479	0.39766483
667.673	0.39657988
667.867	0.39548843
668.062	0.39453782
668.256	0.39355914
668.45	0.3926456
668.645	0.39144497
668.839	0.39043149
669.033	0.38930867
669.228	0.38812875
669.422	0.38697765
669.616	0.38572281
669.81	0.38452309
670.004	0.38337542
670.199	0.38220424
670.393	0.38107198
670.587	0.3799397
670.781	0.37878861
670.975	0.37767121
671.169	0.37638241
671.363	0.3751678
671.558	0.37400352
671.752	0.37292394
671.946	0.37191992
672.14	0.37087876
672.334	0.36981221
672.528	0.36895742
672.722	0.36794443
672.916	0.36702153
673.11	0.36589961
673.304	0.36490131
673.497	0.36373674
673.691	0.3627567
673.885	0.36161183
674.079	0.36062446
674.273	0.35949688
674.467	0.3585702
674.661	0.35748023
674.854	0.35639481
675.048	0.35530692
675.242	0.35429849
675.436	0.35319918
675.629	0.3521017
675.823	0.35093375
676.017	0.34997684
676.211	0.34906392
676.404	0.34813463
676.598	0.3472012
676.792	0.34622485
676.985	0.34531934
677.179	0.34441591
677.372	0.34339615
677.566	0.34248065
677.76	0.34147101
677.953	0.34041879
678.147	0.339503
678.34	0.33857169
678.534	0.3375592
678.727	0.33663169
678.921	0.3356964
679.114	0.3346665
679.307	0.33375333
679.501	0.33280715
679.694	0.33190073
679.888	0.33094792
680.081	0.32997103
680.274	0.32890309
680.468	0.32797513
680.661	0.32695501
680.854	0.3261199
681.048	0.32514141
681.241	0.32417549
681.434	0.32322926
681.627	0.32230874
681.821	0.32137298
682.014	0.32049273
682.207	0.31932864
682.4	0.3182287
682.593	0.31727054
682.786	0.31622559
682.98	0.31526103
683.173	0.3143188
683.366	0.31335883
683.559	0.31253273
683.752	0.31178961
683.945	0.31097506
684.138	0.31023982
684.331	0.30940065
684.524	0.30858819
684.717	0.30772395
684.91	0.30688332
685.103	0.30599192
685.296	0.30508215
685.489	0.30413592
685.682	0.30328809
685.874	0.30251069
686.067	0.30166923
686.26	0.30086204
686.453	0.30007145
686.646	0.29928108
686.839	0.29859022
687.031	0.29776327
687.224	0.29684376
687.417	0.29614283
687.61	0.29525669
687.802	0.29438847
687.995	0.29356829
688.188	0.29265981
688.38	0.29182942
688.573	0.29100315
688.766	0.29017656
688.958	0.28937709
689.151	0.28856531
689.343	0.28787645
689.536	0.28716622
689.729	0.28640518
689.921	0.28565501
690.114	0.28480644
690.306	0.28400517
690.499	0.28324506
690.691	0.28236148
690.884	0.28147764
691.076	0.28068238
691.268	0.27982681
691.461	0.2789825
691.653	0.27828182
691.846	0.27747865
692.038	0.27664345
692.23	0.27578954
692.423	0.27500464
692.615	0.27431756
692.807	0.27361849
692.999	0.27283811
693.192	0.27212243
693.384	0.27156455
693.576	0.27098778
693.768	0.27042135
693.961	0.26970069
694.153	0.26904832
694.345	0.26837634
694.537	0.26764257
694.729	0.26686466
694.921	0.26615672
695.113	0.26548067
695.305	0.26485706
695.498	0.26416704
695.69	0.26349007
695.882	0.26288768
696.074	0.26227202
696.266	0.26159772
696.458	0.26077707
696.65	0.26005375
696.842	0.25940832
697.033	0.25871931
697.225	0.25795704
697.417	0.25724595
697.609	0.25658198
697.801	0.25596675
697.993	0.25531866
698.185	0.25463953
698.376	0.2539874
698.568	0.25342537
698.76	0.25290752
698.952	0.25236119
699.144	0.25181164
699.335	0.25133083
699.527	0.25072347
699.719	0.2502366
699.91	0.24969098
700.102	0.24900068
700.294	0.24836227
700.485	0.24779174
700.677	0.24706669
700.869	0.24648845
701.06	0.24583264
701.252	0.2452161
701.443	0.24471186
701.635	0.24415498
701.826	0.24361808
702.018	0.24313382
702.209	0.24268076
702.401	0.24217019
702.592	0.24171775
702.784	0.24116978
702.975	0.2406172
703.166	0.24010293
703.358	0.23954631
703.549	0.23899234
703.741	0.23851148
703.932	0.23796542
704.123	0.23746006
704.315	0.23698679
704.506	0.2364545
704.697	0.23592992
704.888	0.23539685
705.08	0.23485186
705.271	0.23431629
705.462	0.23369489
705.653	0.23317302
705.844	0.23264858
706.035	0.23225893
706.227	0.23186949
706.418	0.23141542
706.609	0.23100097
706.8	0.23071965
706.991	0.23031454
707.182	0.22987127
707.373	0.22939537
707.564	0.22894466
707.755	0.22850415
707.946	0.2280525
708.137	0.22756783
708.328	0.22705648
708.519	0.22666402
708.71	0.22620375
708.901	0.22568482
709.092	0.22529213
709.283	0.22490827
709.473	0.22452509
709.664	0.22421769
709.855	0.22376501
710.046	0.22341674
710.237	0.22305557
710.427	0.22259641
710.618	0.22215417
710.809	0.22169874
711	0.22127132
711.19	0.2208362
711.381	0.22038955
711.572	0.21993804
711.762	0.21959042
711.953	0.21915457
712.144	0.21877638
712.334	0.21835109
712.525	0.21806804
712.715	0.21770897
712.906	0.21737
713.097	0.21699161
713.287	0.21669294
713.478	0.21633225
713.668	0.2160189
713.859	0.21561245
714.049	0.21529676
714.239	0.21504675
714.43	0.21479675
714.62	0.21443913
714.811	0.21407409
715.001	0.21381524
715.191	0.21354305
715.382	0.21320776
715.572	0.21286894
715.762	0.21254063
715.953	0.21229296
716.143	0.21198695
716.333	0.21159689
716.523	0.21129805
716.714	0.21107846
716.904	0.21074976
717.094	0.21038111
717.284	0.21005824
717.474	0.20978533
717.664	0.20958386
717.855	0.20932215
718.045	0.20904564
718.235	0.20886359
718.425	0.20874493
718.615	0.20859716
718.805	0.20850983
718.995	0.20842591
719.185	0.20833032
719.375	0.20815076
719.565	0.20796528
719.755	0.20774351
719.945	0.20752398
720.135	0.20727292
720.325	0.20697359
720.515	0.20672354
720.704	0.20655586
720.894	0.20638316
721.084	0.20622108
721.274	0.20607722
721.464	0.20595337
721.654	0.20582554
721.843	0.20570098
722.033	0.20549734
722.223	0.20526492
722.413	0.20512506
722.602	0.20495787
722.792	0.20480843
722.982	0.20464885
723.171	0.20447915
723.361	0.20433813
723.55	0.20422648
723.74	0.2040217
723.93	0.20379888
724.119	0.20357337
724.309	0.20335865
724.498	0.20305472
724.688	0.20287779
724.877	0.202694
725.067	0.20250965
725.256	0.20238683
725.446	0.20224044
725.635	0.20204192
725.825	0.20196782
726.014	0.20187103
726.203	0.20173606
726.393	0.2015926
726.582	0.20142324
726.771	0.20131148
726.961	0.20123583
727.15	0.20108933
727.339	0.20085249
727.529	0.20078487
727.718	0.20072375
727.907	0.20064327
728.096	0.20055729
728.286	0.20046546
728.475	0.20045625
728.664	0.20044981
728.853	0.20032484
729.042	0.2002098
729.231	0.20012616
729.42	0.20001492
729.609	0.19985799
729.799	0.19972192
729.988	0.199616
730.177	0.19957001
730.366	0.19950159
730.555	0.19949503
730.744	0.19950153
730.933	0.19965039
731.122	0.19972496
731.31	0.1997989
731.499	0.19979312
731.688	0.19977036
731.877	0.19964199
732.066	0.19954067
732.255	0.19922637
732.444	0.19892889
732.632	0.198659
732.821	0.19849694
733.01	0.19836991
733.199	0.19824257
733.388	0.19813072
733.576	0.19815606
733.765	0.1981847
733.954	0.19813334
734.142	0.19806958
734.331	0.19802367
734.52	0.1980672
734.708	0.19808378
734.897	0.19811786
735.086	0.19807402
735.274	0.19805838
735.463	0.19804591
735.651	0.1979921
735.84	0.19798816
736.028	0.19792127
736.217	0.19789267
736.405	0.19790922
736.594	0.19800786
736.782	0.19804044
736.971	0.19810987
737.159	0.19806887
737.347	0.19809224
737.536	0.19805698
737.724	0.19811624
737.912	0.19807535
738.101	0.19809665
738.289	0.19818119
738.477	0.19831818
738.666	0.19845701
738.854	0.19861148
739.042	0.19870444
739.23	0.19877442
739.418	0.19885331
739.607	0.1988495
739.795	0.19876863
739.983	0.19871537
740.171	0.19865144
740.359	0.19866464
740.547	0.19878031
740.735	0.19891655
740.923	0.19906338
741.112	0.19921755
741.3	0.19936719
741.488	0.19951546
741.676	0.19963368
741.864	0.19970083
742.052	0.19975452
742.239	0.19982686
742.427	0.19999323
742.615	0.20003891
742.803	0.20003592
742.991	0.20001445
743.179	0.20005783
743.367	0.20004023
743.555	0.20005043
743.742	0.20003151
743.93	0.20014513
744.118	0.20031929
744.306	0.20047546
744.494	0.20058776
744.681	0.20075323
744.869	0.20089951
745.057	0.20104128
745.244	0.20120093
745.432	0.20141444
745.62	0.20161625
745.807	0.20184078
745.995	0.20194165
746.182	0.20202363
746.37	0.20219388
746.558	0.2022617
746.745	0.20225377
746.933	0.20232276
747.12	0.20236461
747.308	0.20252962
747.495	0.20262922
747.683	0.20267607
747.87	0.20279448
748.057	0.20295804
748.245	0.20306073
748.432	0.20318599
748.62	0.20324922
748.807	0.20342157
748.994	0.20359125
749.182	0.20370173
749.369	0.20378929
749.556	0.20392925
749.743	0.20405052
749.931	0.20414418
750.118	0.20430042
750.305	0.20441572
750.492	0.20463176
750.68	0.20486533
750.867	0.20505372
751.054	0.20527152
751.241	0.20554853
751.428	0.20573428
751.615	0.20592655
751.802	0.20603605
751.989	0.20615749
752.176	0.20642559
752.363	0.20673347
752.55	0.2069007
752.737	0.20707408
752.924	0.207222
753.111	0.20745486
753.298	0.20754343
753.485	0.20750958
753.672	0.20737744
753.859	0.2074703
754.046	0.20753999
754.233	0.20762314
754.42	0.20767437
754.606	0.20780363
754.793	0.20793863
754.98	0.20806185
755.167	0.2080448
755.353	0.20806198
755.54	0.20817097
755.727	0.20816612
755.914	0.20826241
756.1	0.20836084
756.287	0.20860428
756.474	0.20887247
756.66	0.20922684
756.847	0.20956154
757.033	0.20990368
757.22	0.2102232
757.407	0.21054218
757.593	0.21083083
757.78	0.21117199
757.966	0.21133322
758.153	0.21155845
758.339	0.21185571
758.526	0.21216136
758.712	0.21239059
758.898	0.21258247
759.085	0.21275256
759.271	0.2129779
759.458	0.2131503
759.644	0.21334698
759.83	0.21345043
760.017	0.21352993
760.203	0.2136637
760.389	0.21373563
760.576	0.21386489
760.762	0.21394198
760.948	0.21403326
761.134	0.21426164
761.32	0.21458374
761.507	0.21480522
761.693	0.21517976
761.879	0.21549718
762.065	0.21585964
762.251	0.21613101
762.437	0.2163718
762.623	0.21659588
762.809	0.21687031
762.995	0.21700459
763.181	0.21721903
763.367	0.21742694
763.553	0.21776646
763.739	0.21807351
763.925	0.21846243
764.111	0.21881399
764.297	0.21924655
764.483	0.21960922
764.669	0.21990072
764.855	0.22014122
765.041	0.2203548
765.227	0.22044687
765.412	0.22065046
765.598	0.22081612
765.784	0.2209943
765.97	0.22118495
766.156	0.22136181
766.341	0.22145329
766.527	0.22164879
766.713	0.22178389
766.898	0.22197006
767.084	0.22217423
767.27	0.22246222
767.455	0.22273681
767.641	0.22312359
767.827	0.22351592
768.012	0.22388634
768.198	0.22427523
768.383	0.22459935
768.569	0.22494058
768.754	0.2253046
768.94	0.22561082
769.125	0.22594227
769.311	0.22622849
769.496	0.22655313
769.682	0.22692935
769.867	0.22716504
770.052	0.227425
770.238	0.227763
770.423	0.22800942
770.608	0.22834818
770.794	0.22860504
770.979	0.22883362
771.164	0.22922014
771.35	0.22958586
771.535	0.22984207
771.72	0.23010963
771.905	0.23030603
772.09	0.2305575
772.276	0.23082751
772.461	0.23093028
772.646	0.23101147
772.831	0.23122397
773.016	0.2314704
773.201	0.23171992
773.386	0.2319248
773.571	0.23214323
773.756	0.23238233
773.941	0.2327616
774.126	0.23305986
774.311	0.233284
774.496	0.2335335
774.681	0.23387183
774.866	0.23424794
775.051	0.23466127
775.236	0.23489471
775.421	0.23511713
775.606	0.23536366
775.791	0.23563365
775.976	0.23583255
776.16	0.23598868
776.345	0.23609139
776.53	0.2362806
776.715	0.23644615
776.899	0.23662437
777.084	0.23675162
777.269	0.23686787
777.454	0.23700504
777.638	0.23725925
777.823	0.23750982
778.008	0.23779444
778.192	0.23803972
778.377	0.23827438
778.561	0.23847165
778.746	0.23862297
778.931	0.23872667
779.115	0.23889255
779.3	0.23904368
779.484	0.23919461
779.669	0.2394394
779.853	0.23972898
780.037	0.24000906
780.222	0.24020391
780.406	0.2403573
780.591	0.2404834
780.775	0.24063009
780.959	0.24063298
781.144	0.24059954
781.328	0.24056827
781.512	0.24067665
781.697	0.24069274
781.881	0.24077536
782.065	0.24091738
782.249	0.24107584
782.434	0.24132066
782.618	0.24158954
782.802	0.24179779
782.986	0.24200267
783.17	0.24218685
783.354	0.24228686
783.539	0.24251796
783.723	0.24262999
783.907	0.24278442
784.091	0.24294133
784.275	0.24315935
784.459	0.24334331
784.643	0.24362781
784.827	0.24380131
785.011	0.24401626
785.195	0.24424
785.379	0.24445099
785.563	0.24462025
785.747	0.24486085
785.93	0.24509414
786.114	0.24529446
786.298	0.24547131
786.482	0.24551929
786.666	0.24572031
786.85	0.24589873
787.033	0.24595069
787.217	0.245966
787.401	0.24607496
787.585	0.24625135
787.768	0.24655906
787.952	0.24673602
788.136	0.24689823
788.319	0.24719191
788.503	0.24758137
788.687	0.24792373
788.87	0.24825547
789.054	0.2486604
789.237	0.24899233
789.421	0.24932247
789.605	0.2496332
789.788	0.24988245
789.972	0.25008928
790.155	0.25024442
790.338	0.25030891
790.522	0.25045032
790.705	0.25059542
790.889	0.25070915
791.072	0.25089597
791.256	0.25114182
791.439	0.25133439
791.622	0.25158938
791.806	0.25192323
791.989	0.25224713
792.172	0.25261302
792.355	0.2529362
792.539	0.25330252
792.722	0.25376083
792.905	0.25412683
793.088	0.2543499
793.271	0.25471283
793.455	0.25512429
793.638	0.25547616
793.821	0.25580286
794.004	0.25614156
794.187	0.25661221
794.37	0.25705343
794.553	0.25749228
794.736	0.25788522
794.919	0.25817298
795.102	0.25851292
795.285	0.25891603
795.468	0.25908975
795.651	0.25933139
795.834	0.25962649
796.017	0.25983917
796.2	0.26016506
796.383	0.2603243
796.566	0.2604658
796.749	0.26066689
796.931	0.26091501
797.114	0.26109706
797.297	0.26137628
797.48	0.26160467
797.663	0.26197216
797.845	0.26228168
798.028	0.26268517
798.211	0.2630773
798.393	0.26338992
798.576	0.26369366
798.759	0.26397113
798.941	0.26428339
799.124	0.26450861
799.307	0.26472625
799.489	0.26485625
799.672	0.26508939
799.854	0.26514539
800.037	0.26531196
800.219	0.26541793
800.402	0.26573472
800.584	0.26597703
800.767	0.26624454
800.949	0.26647374
801.132	0.26691836
801.314	0.26721801
801.496	0.26745419
801.679	0.26754824
801.861	0.26768157
802.043	0.2677487
802.226	0.26787968
802.408	0.26795016
802.59	0.26819485
802.772	0.26843683
802.955	0.26875221
803.137	0.26895183
803.319	0.26925165
803.501	0.26950349
803.684	0.26972892
803.866	0.26976366
804.048	0.26996663
804.23	0.27014195
804.412	0.27046383
804.594	0.27075762
804.776	0.27104021
804.958	0.2712833
805.14	0.27165746
805.322	0.27179867
805.504	0.27189682
805.686	0.27187942
805.868	0.27182709
806.05	0.27172867
806.232	0.27168849
806.414	0.27162529
806.596	0.27161077
806.778	0.27156249
806.96	0.27159299
807.141	0.27162032
807.323	0.27168972
807.505	0.27172529
807.687	0.27177403
807.869	0.27180663
808.05	0.27190418
808.232	0.27201699
808.414	0.27225868
808.595	0.27241907
808.777	0.27254327
808.959	0.27267004
809.14	0.27273072
809.322	0.27283264
809.504	0.27287623
809.685	0.27282616
809.867	0.27277573
810.048	0.27277685
810.23	0.27279058
810.411	0.27292344
810.593	0.27298269
810.774	0.27303923
810.956	0.27313802
811.137	0.27316015
811.319	0.27324033
811.5	0.2733363
811.681	0.27341417
811.863	0.27339402
812.044	0.27339072
812.225	0.27351007
812.407	0.27362276
812.588	0.27375132
812.769	0.27380325
812.951	0.2738726
813.132	0.27398261
813.313	0.27417251
813.494	0.27411399
813.675	0.27427373
813.857	0.27427529
814.038	0.27433748
814.219	0.27434079
814.4	0.27427691
814.581	0.27426933
814.762	0.27426112
814.943	0.27419763
815.124	0.27418453
815.305	0.27420299
815.486	0.27435538
815.667	0.27473848
815.848	0.27497258
816.029	0.27521122
816.21	0.27551482
816.391	0.27587773
816.572	0.27618319
816.753	0.2764426
816.934	0.27654166
817.115	0.27665058
817.295	0.27694836
817.476	0.27702409
817.657	0.27721938
817.838	0.27747535
818.019	0.27752948
818.199	0.27777881
818.38	0.27803191
818.561	0.27820226
818.741	0.27853688
818.922	0.27877353
819.103	0.27903749
819.283	0.27952482
819.464	0.27982958
819.645	0.28006704
819.825	0.28040646
820.006	0.28063956
820.186	0.28086695
820.367	0.28104487
820.547	0.28118781
820.728	0.28131342
820.908	0.28165012
821.089	0.281821
821.269	0.28200012
821.45	0.28222604
821.63	0.28232025
821.81	0.28247581
821.991	0.28264276
822.171	0.28285304
822.351	0.28301236
822.532	0.28329603
822.712	0.28352722
822.892	0.28388207
823.072	0.28420335
823.253	0.28456396
823.433	0.28471967
823.613	0.28494496
823.793	0.28504846
823.973	0.28514171
824.154	0.28519018
824.334	0.28529239
824.514	0.2854579
824.694	0.28570623
824.874	0.2858718
825.054	0.28616513
825.234	0.28635012
825.414	0.2864445
825.594	0.2865633
825.774	0.28668869
825.954	0.28676779
826.134	0.28695983
826.314	0.28704933
826.494	0.28724688
826.674	0.28742888
826.854	0.28755523
827.033	0.28761401
827.213	0.28782192
827.393	0.2879155
827.573	0.28814439
827.753	0.28826028
827.932	0.28849267
828.112	0.28869769
828.292	0.28895044
828.472	0.28896108
828.651	0.28907457
828.831	0.28905142
829.011	0.2892761
829.19	0.28936949
829.37	0.28949071
829.549	0.28958857
829.729	0.28972282
829.909	0.28995396
830.088	0.29026044
830.268	0.29031623
830.447	0.29060901
830.627	0.2908723
830.806	0.29114002
830.986	0.2913452
831.165	0.29155472
831.344	0.29165886
831.524	0.29177211
831.703	0.29174051
831.883	0.29163603
832.062	0.29155004
832.241	0.29161863
832.421	0.29163319
832.6	0.29176581
832.779	0.29196034
832.958	0.29216475
833.138	0.29224755
833.317	0.29253968
833.496	0.29270107
833.675	0.29280328
833.854	0.29298403
834.034	0.29307403
834.213	0.2932067
834.392	0.29354478
834.571	0.29356852
834.75	0.2937815
834.929	0.29386694
835.108	0.29377883
835.287	0.29390595
835.466	0.29392123
835.645	0.29398296
835.824	0.29403892
836.003	0.29418136
836.182	0.29439912
836.361	0.29471958
836.54	0.29464592
836.719	0.29476158
836.897	0.29486541
837.076	0.29511907
837.255	0.29513715
837.434	0.29520043
837.613	0.29515062
837.791	0.29535104
837.97	0.29540962
838.149	0.29538846
838.328	0.29526582
838.506	0.29517573
838.685	0.29522772
838.864	0.29534237
839.042	0.29535324
839.221	0.29553754
839.4	0.29567729
839.578	0.29581745
839.757	0.29590291
839.935	0.2958974
840.114	0.29591701
840.292	0.29609915
840.471	0.29628426
840.649	0.29638916
840.828	0.29647492
841.006	0.29659279
841.185	0.29662394
841.363	0.29675646
841.541	0.29676663
841.72	0.29676829
841.898	0.29682258
842.076	0.29687737
842.255	0.29690993
842.433	0.29709067
842.611	0.29705688
842.789	0.29710798
842.968	0.29713315
843.146	0.29703749
843.324	0.29711559
843.502	0.29732928
843.68	0.29746872
843.859	0.29762374
844.037	0.29781393
844.215	0.2979315
844.393	0.29814342
844.571	0.29824115
844.749	0.29813827
844.927	0.29804175
845.105	0.29795758
845.283	0.29779799
845.461	0.29765172
845.639	0.29761477
845.817	0.29752542
845.995	0.29757291
846.173	0.29762435
846.351	0.29761437
846.529	0.29765403
846.706	0.29748399
846.884	0.2974254
847.062	0.29733751
847.24	0.29720847
847.418	0.29724306
847.595	0.29732702
847.773	0.29744962
847.951	0.29757161
848.129	0.2977199
848.306	0.29789467
848.484	0.29799013
848.662	0.29800837
848.839	0.29809612
849.017	0.29803638
849.194	0.29811839
849.372	0.2979588
849.549	0.29789108
849.727	0.29790702
849.905	0.29771369
850.082	0.29750874
850.26	0.29742586
850.437	0.29730839
850.614	0.29740242
850.792	0.29742571
850.969	0.2974925
851.147	0.29772817
851.324	0.29782397
851.501	0.2978864
851.679	0.29800019
851.856	0.29801247
852.033	0.29811276
852.211	0.29810592
852.388	0.29804135
852.565	0.29816014
852.742	0.29839237
852.92	0.29854649
853.097	0.29867871
853.274	0.29866029
853.451	0.29852701
853.628	0.29845775
853.805	0.29833298
853.982	0.29818325
854.159	0.29804376
854.336	0.29792164
854.514	0.29780128
854.691	0.29790148
854.868	0.29802008
855.045	0.29799618
855.221	0.29795134
855.398	0.29790644
855.575	0.29778664
855.752	0.2977797
855.929	0.29783187
856.106	0.29760515
856.283	0.29755628
856.46	0.29748261
856.637	0.29743569
856.813	0.29748793
856.99	0.29733294
857.167	0.29720768
857.344	0.29732483
857.52	0.29715425
857.697	0.29675018
857.874	0.29658005
858.05	0.29641207
858.227	0.2963704
858.404	0.29617208
858.58	0.29598405
858.757	0.29584036
858.933	0.2960262
859.11	0.29610914
859.287	0.29606311
859.463	0.29598715
859.64	0.29616039
859.816	0.29613392
859.993	0.29629855
860.169	0.2964413
860.345	0.29639045
860.522	0.29636872
860.698	0.29653631
860.875	0.2964337
861.051	0.29640417
861.227	0.2962364
861.404	0.29608817
861.58	0.29596826
861.756	0.29593875
861.932	0.29582594
862.109	0.29560467
862.285	0.29557382
862.461	0.29563431
862.637	0.29551401
862.813	0.29556533
862.99	0.29537109
863.166	0.29517309
863.342	0.29525375
863.518	0.29501953
863.694	0.29494363
863.87	0.2949412
864.046	0.29485633
864.222	0.29497458
864.398	0.29501464
864.574	0.29484288
864.75	0.29474351
864.926	0.29460041
865.102	0.29446641
865.278	0.29424272
865.454	0.2940205
865.63	0.29371575
865.805	0.29363434
865.981	0.29382625
866.157	0.29384566
866.333	0.29365411
866.509	0.2937684
866.684	0.29375202
866.86	0.29390233
867.036	0.29382551
867.212	0.29356263
867.387	0.2934541
867.563	0.29352429
867.739	0.29326767
867.914	0.29313149
868.09	0.29291487
868.265	0.2927537
868.441	0.29273548
868.617	0.29263375
868.792	0.29238682
868.968	0.29222818
869.143	0.29220905
869.319	0.29201797
869.494	0.29178123
869.67	0.29152912
869.845	0.29133702
870.02	0.29123597
870.196	0.29125083
870.371	0.29119801
870.546	0.29119105
870.722	0.29126043
870.897	0.29117944
871.072	0.29106889
871.248	0.29098879
871.423	0.29077278
871.598	0.29056095
871.773	0.29033112
871.949	0.28999981
872.124	0.28988025
872.299	0.28963691
872.474	0.28949629
872.649	0.28933114
872.824	0.28915987
872.999	0.28908112
873.174	0.28918074
873.349	0.28912357
873.524	0.28916276
873.699	0.28905992
873.874	0.28896014
874.049	0.28879687
874.224	0.28868518
874.399	0.28842745
874.574	0.28824775
874.749	0.2879723
874.924	0.28772207
875.099	0.28752203
875.274	0.28751127
875.449	0.28741563
875.623	0.28731186
875.798	0.28715908
875.973	0.28717625
876.148	0.28707431
876.322	0.28706065
876.497	0.28689789
876.672	0.28683838
876.846	0.28678639
877.021	0.28662796
877.196	0.28615116
877.37	0.28595725
877.545	0.28569558
877.72	0.28530242
877.894	0.28498276
878.069	0.28467978
878.243	0.28444545
878.418	0.28469115
878.592	0.28463644
878.767	0.28447432
878.941	0.28440255
879.116	0.28424029
879.29	0.28404051
879.464	0.28377991
879.639	0.28328901
879.813	0.28313063
879.987	0.2829562
880.162	0.28272793
880.336	0.28260896
880.51	0.28259227
880.685	0.28249852
880.859	0.28253259
881.033	0.28219285
881.207	0.28205872
881.381	0.28206373
881.556	0.28192616
881.73	0.28162934
881.904	0.28152443
882.078	0.28117173
882.252	0.28102076
882.426	0.28059164
882.6	0.2803333
882.774	0.27997158
882.948	0.27969415
883.122	0.27918848
883.296	0.27895976
883.47	0.27880761
883.644	0.27886784
883.818	0.27849597
883.992	0.27853061
884.166	0.27849286
884.34	0.27865653
884.514	0.27877232
884.687	0.2787084
884.861	0.27836903
885.035	0.27832357
885.209	0.27799539
885.382	0.27771984
885.556	0.27742728
885.73	0.27711419
885.904	0.27680057
886.077	0.27648201
886.251	0.27611852
886.425	0.27587387
886.598	0.27578206
886.772	0.27553374
886.945	0.27511079
887.119	0.27471396
887.292	0.27469288
887.466	0.2745858
887.64	0.27426797
887.813	0.27393918
887.986	0.27379054
888.16	0.27385042
888.333	0.27362012
888.507	0.2734731
888.68	0.2731855
888.854	0.27321526
889.027	0.27303235
889.2	0.27300338
889.374	0.27277888
889.547	0.27293908
889.72	0.27282789
889.893	0.27274778
890.067	0.27235985
890.24	0.27200727
890.413	0.27159197
890.586	0.27108793
890.759	0.27070175
890.933	0.27035626
891.106	0.27004395
891.279	0.26986854
891.452	0.2697275
891.625	0.26943213
891.798	0.26938594
891.971	0.26928793
892.144	0.26900595
892.317	0.26903219
892.49	0.26888561
892.663	0.2688976
892.836	0.26905385
893.009	0.2689981
893.182	0.26887373
893.355	0.26889734
893.527	0.26860985
893.7	0.26854525
893.873	0.26833796
894.046	0.26788844
894.219	0.26769441
894.391	0.26724641
894.564	0.26699114
894.737	0.26675652
894.91	0.26642726
895.082	0.26616728
895.255	0.26607489
895.428	0.26569817
895.6	0.26549465
895.773	0.26516258
895.945	0.26475883
896.118	0.26458635
896.291	0.26421773
896.463	0.26372427
896.636	0.26332646
896.808	0.26310924
896.981	0.26279545
897.153	0.26268607
897.326	0.26235394
897.498	0.26214572
897.67	0.26200865
897.843	0.26205491
898.015	0.26213539
898.187	0.26212667
898.36	0.26181141
898.532	0.26157532
898.704	0.26154822
898.877	0.26144606
899.049	0.2614079
899.221	0.26106077
899.393	0.260918
899.566	0.26098413
899.738	0.26100124
899.91	0.26072294
900.082	0.26061478
900.254	0.26018335
900.426	0.25987672
900.598	0.25947004
900.77	0.2589454
900.942	0.2585377
901.114	0.25822513
901.286	0.25783444
901.458	0.25759926
901.63	0.25743302
901.802	0.25735706
901.974	0.25730016
902.146	0.2570375
902.318	0.25676571
902.49	0.25638688
902.662	0.25601337
902.834	0.25547139
903.005	0.25504274
903.177	0.25459671
903.349	0.25441337
903.521	0.25396992
903.693	0.25385258
903.864	0.25364115
904.036	0.25355273
904.208	0.25315856
904.379	0.25284385
904.551	0.25252208
904.723	0.25241437
904.894	0.25207233
905.066	0.25184658
905.237	0.25155044
905.409	0.25142495
905.58	0.25142905
905.752	0.25119292
905.923	0.25099541
906.095	0.25063084
906.266	0.25033058
906.438	0.25011724
906.609	0.24996686
906.78	0.24961542
906.952	0.2494283
907.123	0.249042
907.295	0.24902377
907.466	0.24890145
907.637	0.24872213
907.808	0.24832929
907.98	0.24807084
908.151	0.24767653
908.322	0.24744759
908.493	0.24698478
908.665	0.24659382
908.836	0.24613952
909.007	0.24580855
909.178	0.24530228
909.349	0.2450426
909.52	0.2449433
909.691	0.24477458
909.862	0.24459354
910.033	0.24431386
910.204	0.24411167
910.375	0.24407756
910.546	0.24395519
910.717	0.24353456
910.888	0.24328774
911.059	0.24284633
911.23	0.24255498
911.401	0.24209825
911.572	0.24163588
911.742	0.2410617
911.913	0.24077745
912.084	0.24024103
912.255	0.23996473
912.426	0.23973788
912.596	0.23962348
912.767	0.23957233
912.938	0.23952706
913.108	0.23943391
913.279	0.2392738
913.45	0.23908001
913.62	0.23878754
913.791	0.2385573
913.962	0.2382055
914.132	0.23769506
914.303	0.23717288
914.473	0.23694682
914.644	0.23651751
914.814	0.23624299
914.985	0.23597456
915.155	0.23570841
915.326	0.23554442
915.496	0.2353314
915.666	0.23490408
915.837	0.23479213
916.007	0.2345034
916.177	0.23406458
916.348	0.23375766
916.518	0.23351505
916.688	0.23325862
916.858	0.23323184
917.029	0.23287513
917.199	0.2327387
917.369	0.23266279
917.539	0.23243842
917.709	0.23214296
917.88	0.23175865
918.05	0.23136084
918.22	0.23103595
918.39	0.23062011
918.56	0.23026925
918.73	0.23005331
918.9	0.229735
919.07	0.22958819
919.24	0.22946319
919.41	0.22931697
919.58	0.22896413
919.75	0.22863896
919.92	0.22821356
920.09	0.22800214
920.26	0.22763101
920.429	0.22718169
920.599	0.22677435
920.769	0.2266256
920.939	0.2262961
921.109	0.22598978
921.278	0.22559862
921.448	0.22524155
921.618	0.22489869
921.787	0.22474586
921.957	0.22428952
922.127	0.22389348
922.296	0.22380545
922.466	0.22357005
922.636	0.22337833
922.805	0.22317487
922.975	0.22265678
923.144	0.22241697
923.314	0.22221576
923.483	0.22183368
923.653	0.22144075
923.822	0.22112633
923.992	0.22081287
924.161	0.22073534
924.331	0.22036653
924.5	0.2199056
924.669	0.21949898
924.839	0.21923301
925.008	0.21888441
925.177	0.21851439
925.347	0.21820954
925.516	0.21813344
925.685	0.21805929
925.854	0.21786767
926.023	0.21750345
926.193	0.21732158
926.362	0.21683131
926.531	0.21654618
926.7	0.21593936
926.869	0.21579524
927.038	0.21534646
927.207	0.21513635
927.376	0.21484216
927.545	0.21477964
927.715	0.21427008
927.884	0.21414524
928.052	0.21384862
928.221	0.21348349
928.39	0.21302861
928.559	0.21250294
928.728	0.21221445
928.897	0.21215156
929.066	0.21200372
929.235	0.21140842
929.404	0.21121029
929.572	0.21114194
929.741	0.21118101
929.91	0.21096395
930.079	0.21072816
930.247	0.21028641
930.416	0.21012444
930.585	0.20973539
930.753	0.20934988
930.922	0.20879594
931.091	0.20863555
931.259	0.20815212
931.428	0.20802085
931.596	0.20785533
931.765	0.20781237
931.934	0.20766268
932.102	0.20739698
932.27	0.20703205
932.439	0.2067969
932.607	0.20631742
932.776	0.20617921
932.944	0.2057643
933.113	0.20566026
933.281	0.20545077
933.449	0.20515849
933.618	0.20490437
933.786	0.20508136
933.954	0.20478058
934.123	0.20481162
934.291	0.20464616
934.459	0.20465414
934.627	0.20457007
934.795	0.20464626
934.964	0.2041538
935.132	0.20367365
935.3	0.20316745
935.468	0.20261996
935.636	0.20237527
935.804	0.20190672
935.972	0.20127506
936.14	0.20107164
936.308	0.20107032
936.476	0.20092979
936.644	0.20094897
936.812	0.20078889
936.98	0.20077513
937.148	0.20079138
937.316	0.20062254
937.484	0.20097136
937.652	0.20092535
937.82	0.2009759
937.987	0.20053858
938.155	0.20054709
938.323	0.20050723
938.491	0.2001763
938.658	0.20000206
938.826	0.19958131
938.994	0.19933599
939.162	0.19965146
939.329	0.19962109
939.497	0.19979351
939.665	0.19989699
939.832	0.19972023
940	0.20014602
940.167	0.20008208
940.335	0.19957506
940.502	0.19871965
940.67	0.19872614
940.837	0.19949014
941.005	0.19872811
941.172	0.1989228
941.34	0.19934398
941.507	0.2004463
941.674	0.20126996
941.842	0.20082421
942.009	0.20083601
942.177	0.20066131
942.344	0.20102763
942.511	0.2007518
942.678	0.20070451
942.846	0.20027555
943.013	0.20136716
943.18	0.20117276
943.347	0.20221712
943.514	0.20196655
943.682	0.20286319
943.849	0.2022512
944.016	0.20223728
944.183	0.20068046
944.35	0.20004544
944.517	0.19987726
944.684	0.19987662
944.851	0.19608115
945.018	0.19556987
945.185	0.19536624
945.352	0.19481078
945.519	0.19455653
945.686	0.19309581
945.853	0.1928668
946.02	0.19346057
946.187	0.19290929
946.353	0.19301626
946.52	0.19383917
946.687	0.19300434
946.854	0.19298083
947.021	0.1918355
947.187	0.19165346
947.354	0.19054667
947.521	0.18969879
947.687	0.18754192
947.854	0.18746222
948.021	0.18591804
948.187	0.18536459
948.354	0.18488492
948.52	0.1843793
948.687	0.1845855
948.854	0.18538797
949.02	0.184492
949.187	0.18526012
949.353	0.18476779
949.52	0.18417944
949.686	0.18445532
949.852	0.18365364
950.019	0.18290447
950.185	0.1832218
950.352	0.18194564
950.518	0.18131169
950.684	0.18077715
950.851	0.17969836
951.017	0.1784152
951.183	0.17761938
951.349	0.17694427
951.516	0.17576239
951.682	0.17579964
951.848	0.17496746
952.014	0.17454136
952.18	0.17476623
952.346	0.17430491
952.512	0.17319936
952.679	0.17363761
952.845	0.17280149
953.011	0.17256861
953.177	0.17222277
953.343	0.1711507
953.509	0.1713307
953.675	0.17131858
953.841	0.17050728
954.007	0.17020683
954.172	0.17034491
954.338	0.16951701
954.504	0.16900957
954.67	0.16801945
954.836	0.16756893
955.002	0.16734984
955.167	0.16692145
955.333	0.16577913
955.499	0.16565209
955.665	0.16536652
955.83	0.16504663
955.996	0.16441682
956.162	0.16376129
956.327	0.16330452
956.493	0.16340048
956.659	0.163175
956.824	0.16276343
956.99	0.16210893
957.155	0.16127605
957.321	0.16146837
957.486	0.16136963
957.652	0.16078328
957.817	0.16067998
957.983	0.16011792
958.148	0.15975953
958.314	0.15995524
958.479	0.15847429
958.644	0.15793384
958.81	0.1578166
958.975	0.15734007
959.14	0.15739914
959.306	0.15717163
959.471	0.1566289
959.636	0.15666723
959.801	0.15677929
959.967	0.15644426
960.132	0.15601057
960.297	0.1556986
960.462	0.15546515
960.627	0.15525197
960.792	0.15512571
960.957	0.15427809
961.123	0.15373465
961.288	0.15365305
961.453	0.15292387
961.618	0.15309684
961.783	0.15306255
961.948	0.1524862
962.113	0.15226725
962.277	0.15219012
962.442	0.15187595
962.607	0.151807
962.772	0.15099462
962.937	0.15076675
963.102	0.15077869
963.267	0.15059137
963.431	0.15022015
963.596	0.14992882
963.761	0.1496003
963.926	0.14941632
964.09	0.14891113
964.255	0.14887104
964.42	0.14859085
964.584	0.14863876
964.749	0.14794491
964.914	0.14776319
965.078	0.14715719
965.243	0.14665102
965.407	0.1463096
965.572	0.1460187
965.736	0.14587085
965.901	0.14605473
966.065	0.14610748
966.23	0.14623403
966.394	0.14637826
966.559	0.1460647
966.723	0.14525265
966.887	0.14464873
967.052	0.14406836
967.216	0.14340264
967.38	0.14235296
967.545	0.14177671
967.709	0.14165701
967.873	0.14206537
968.037	0.14177328
968.202	0.14159259
968.366	0.14163781
968.53	0.14230843
968.694	0.14216055
968.858	0.14173039
969.022	0.14127991
969.187	0.14099769
969.351	0.14070914
969.515	0.1403951
969.679	0.1396015
969.843	0.13909775
970.007	0.1387384
970.171	0.13852873
970.335	0.13843717
970.499	0.13818021
970.662	0.13779279
970.826	0.13776087
970.99	0.1379359
971.154	0.1381441
971.318	0.13769728
971.482	0.13738031
971.645	0.13762388
971.809	0.13761611
971.973	0.13772365
972.137	0.13731082
972.3	0.13646262
972.464	0.13633346
972.628	0.13649399
972.791	0.13622859
972.955	0.13586951
973.119	0.13531412
973.282	0.13510353
973.446	0.13516425
973.609	0.13516641
973.773	0.13458514
973.936	0.13402809
974.1	0.13392844
974.263	0.13397196
974.427	0.13382308
974.59	0.13372296
974.754	0.13326671
974.917	0.1328949
975.08	0.13275448
975.244	0.13236959
975.407	0.13203906
975.57	0.13162986
975.734	0.13122848
975.897	0.13097168
976.06	0.13105469
976.223	0.13074577
976.387	0.1304175
976.55	0.12997735
976.713	0.12999422
976.876	0.1297269
977.039	0.12932656
977.202	0.12890067
977.365	0.128617
977.528	0.12853093
977.692	0.12835676
977.855	0.12788484
978.018	0.12759026
978.181	0.12757423
978.344	0.12704565
978.506	0.12684894
978.669	0.12678442
978.832	0.12666894
978.995	0.12646283
979.158	0.12657643
979.321	0.1265299
979.484	0.12637158
979.646	0.12638076
979.809	0.1261759
979.972	0.12592577
980.135	0.12621221
980.297	0.12571498
980.46	0.12539804
980.623	0.12576653
980.786	0.12533592
980.948	0.12507778
981.111	0.12495205
981.273	0.12424077
981.436	0.12410563
981.599	0.12380182
981.761	0.12283126
981.924	0.12252981
982.086	0.12223566
982.249	0.12168638
982.411	0.12160121
982.573	0.12144971
982.736	0.12177203
982.898	0.12162442
983.061	0.12145993
983.223	0.12144361
983.385	0.12143329
983.548	0.12160049
983.71	0.12119321
983.872	0.12046017
984.034	0.12031126
984.197	0.1200073
984.359	0.11957767
984.521	0.11947071
984.683	0.11910064
984.845	0.11912785
985.008	0.11895417
985.17	0.11911156
985.332	0.11890156
985.494	0.118247
985.656	0.1182599
985.818	0.11766558
985.98	0.11765942
986.142	0.11714714
986.304	0.11653665
986.466	0.11591047
986.628	0.11591891
986.79	0.11518887
986.952	0.11508009
987.113	0.11465702
987.275	0.11465835
987.437	0.11446093
987.599	0.11482877
987.761	0.11494527
987.922	0.1149168
988.084	0.11467903
988.246	0.11421203
988.408	0.11413997
988.569	0.11386522
988.731	0.11341225
988.893	0.11305217
989.054	0.11315882
989.216	0.11310865
989.377	0.11259255
989.539	0.11225687
989.701	0.11207927
989.862	0.11180376
990.024	0.11118507
990.185	0.11069273
990.347	0.1104145
990.508	0.11054215
990.669	0.11026243
990.831	0.11009137
990.992	0.11047595
991.154	0.1103411
991.315	0.11066773
991.476	0.11091631
991.638	0.11088914
991.799	0.11077654
991.96	0.1106062
992.121	0.11051555
992.283	0.11096312
992.444	0.1101802
992.605	0.10899862
992.766	0.10838856
992.927	0.1079428
993.088	0.10831965
993.249	0.10760781
993.41	0.10696388
993.572	0.10694039
993.733	0.10735243
993.894	0.10766755
994.055	0.10727134
994.216	0.10661454
994.376	0.10614166
994.537	0.10630349
994.698	0.10577215
994.859	0.10528019
995.02	0.10485038
995.181	0.10455669
995.342	0.10425297
995.503	0.1044135
995.663	0.10413038
995.824	0.1041363
995.985	0.10468312
996.146	0.10435535
996.306	0.10491237
996.467	0.10518113
996.628	0.10532304
996.788	0.10526903
996.949	0.10526089
997.11	0.10456671
997.27	0.10466123
997.431	0.10430521
997.591	0.10365139
997.752	0.1031495
997.912	0.10264423
998.073	0.102138
998.233	0.10220806
998.394	0.10172707
998.554	0.10211208
998.714	0.10195683
998.875	0.10138142
999.035	0.10089011
999.196	0.10065383
999.356	0.1003829
999.516	0.1004701
999.676	0.10015497
999.837	0.10007772
999.997	0.10006089
1000.157	0.10019225
1000.317	0.09990002
1000.477	0.09935068
1000.638	0.09911421
1000.798	0.09871511
1000.958	0.09893784
1001.118	0.09882569
1001.278	0.09852042
1001.438	0.09843168
1001.598	0.0981392
1001.758	0.09769011
1001.918	0.09763405
1002.078	0.09650129
1002.238	0.09665696
1002.398	0.09640245
1002.558	0.09633759
1002.718	0.09640788
1002.878	0.09643776
1003.037	0.09533992
1003.197	0.09573471
1003.357	0.09471212
1003.517	0.09543558
1003.677	0.09505933
1003.836	0.0948715
1003.996	0.09526563
1004.156	0.09590653
1004.315	0.09637125
1004.475	0.09743402
1004.635	0.09689314
1004.794	0.09778571
1004.954	0.09782004
1005.114	0.0971609
1005.273	0.09771122
1005.433	0.09623794
1005.592	0.0957307
1005.752	0.09560487
1005.911	0.09453341
1006.071	0.09471261
1006.23	0.09460007
1006.389	0.09374491
1006.549	0.09441339
1006.708	0.09421866
1006.868	0.09368758
1007.027	0.09407782
1007.186	0.09393979
1007.345	0.0941643
1007.505	0.09352129
1007.664	0.09328353
1007.823	0.09309791
1007.982	0.09361886
1008.142	0.09375523
1008.301	0.09335815
1008.46	0.09286592
1008.619	0.09262324
1008.778	0.09278113
1008.937	0.09285314
1009.096	0.09138901
1009.255	0.09032714
1009.414	0.08947087
1009.573	0.08978327
1009.732	0.09034679
1009.891	0.09001744
1010.05	0.09023586
1010.209	0.09141156
1010.368	0.09132322
1010.527	0.09180971
1010.686	0.09098337
1010.845	0.09027905
1011.003	0.09029102
1011.162	0.08908917
1011.321	0.08834919
1011.48	0.08901078
1011.638	0.08931084
1011.797	0.0900321
1011.956	0.09018494
1012.115	0.09014206
1012.273	0.09049656
1012.432	0.09082641
1012.59	0.09060815
1012.749	0.09029285
1012.908	0.08915253
1013.066	0.08970091
1013.225	0.08951193
1013.383	0.09014264
1013.542	0.08995491
1013.7	0.089787
1013.859	0.08928968
1014.017	0.09087642
1014.175	0.09036207
1014.334	0.09089264
1014.492	0.09083949
1014.65	0.09041587
1014.809	0.08991225
1014.967	0.090634
1015.125	0.08996309
1015.284	0.0906923
1015.442	0.09045194
1015.6	0.08869554
1015.758	0.08821532
1015.916	0.08820503
1016.075	0.08700199
1016.233	0.0873823
1016.391	0.08740727
1016.549	0.08740325
1016.707	0.08825581
1016.865	0.08838006
1017.023	0.08811898
1017.181	0.08889237
1017.339	0.08744576
1017.497	0.0858233
1017.655	0.0851617
1017.813	0.08585726
1017.971	0.08624973
1018.129	0.08797249
1018.286	0.0872416
1018.444	0.08734401
1018.602	0.08835223
1018.76	0.08914649
1018.918	0.08914274
1019.075	0.08956748
1019.233	0.08827747
1019.391	0.08827248
1019.549	0.08915289
1019.706	0.08865466
1019.864	0.08953527
1020.022	0.0892277
1020.179	0.08913475
1020.337	0.08964809
1020.494	0.0909508
1020.652	0.09031901
1020.809	0.09039062
1020.967	0.08819261
1021.124	0.0867318
1021.282	0.08793713
1021.439	0.08642542
1021.597	0.08623595
1021.754	0.08660204
1021.911	0.08933241
1022.069	0.08988808
1022.226	0.09101025
1022.384	0.08886092
1022.541	0.09077859
1022.698	0.09026418
1022.855	0.09023626
1023.013	0.08655404
1023.17	0.086435
1023.327	0.08678061
1023.484	0.08819313
1023.641	0.08724621
1023.798	0.08719697
1023.956	0.08833241
1024.113	0.08811115
1024.27	0.08822643
1024.427	0.08826077
1024.584	0.08832434
1024.741	0.08705208
1024.898	0.08604412
1025.055	0.08502045
1025.212	0.08440972
1025.369	0.08434002
1025.525	0.08292936
1025.682	0.08199855
1025.839	0.08330841
1025.996	0.08460446
1026.153	0.08500814
1026.31	0.08745415
1026.466	0.08828688
1026.623	0.09067017
1026.78	0.09235534
1026.937	0.09269791
1027.093	0.09415229
1027.25	0.09523902
1027.407	0.09601813
1027.563	0.09504486
1027.72	0.09631079
1027.876	0.09599153
1028.033	0.09545857
1028.19	0.0962017
1028.346	0.09375766
1028.503	0.0940072
1028.659	0.0952658
1028.816	0.09500805
1028.972	0.09368188
1029.128	0.09585729
1029.285	0.09275902
1029.441	0.09297466
1029.598	0.09264772
1029.754	0.09338832
1029.91	0.0909252
1030.067	0.09004042
1030.223	0.08963253
1030.379	0.09081291
1030.535	0.09231622
1030.691	0.09078667
1030.848	0.08989921
1031.004	0.09053583
1031.16	0.09422366
1031.316	0.09567522
1031.472	0.09742192
1031.628	0.09787416
1031.784	0.09864714
1031.94	0.09998504
1032.096	0.10253223
1032.252	0.10060624
1032.408	0.09939753
1032.564	0.09972534
1032.72	0.10092973
1032.876	0.10135013
1033.032	0.09885702
1033.188	0.09922198
1033.344	0.10380445
1033.5	0.10744921
1033.655	0.10737707
1033.811	0.10768864
1033.967	0.11224256
