Data from 1_mm_pl_90pc_Absorbance__1__16-46-08-050.txt Node

Date: Wed Mar 08 16:46:08 CET 2023
User: Ange
Spectrometer: FLMT08341
Trigger mode: 0
Integration Time (sec): 1.000000E-2
Scans to average: 400
Electric dark correction enabled: true
Nonlinearity correction enabled: false
Boxcar width: 3
XAxis mode: Wavelengths
Number of Pixels in Spectrum: 3648
>>>>>Begin Spectral Data<<<<<
345.271	-0.03530492
345.487	-0.04547249
345.704	-0.05376946
345.921	-0.06604317
346.137	-0.06337945
346.354	-0.0824597
346.571	-0.09655315
346.787	-0.25049254
347.004	0.16486439
347.22	0.00062606
347.437	-0.05333489
347.653	-0.10945547
347.87	0.40213803
348.086	0.6412403
348.303	-0.29828856
348.519	0.25831748
348.736	0.23034255
348.952	0.23305744
349.169	0.24280265
349.385	0.25277205
349.601	0.25365161
349.818	0.2502725
350.034	0.2487461
350.251	0.24735677
350.467	0.24859894
350.683	0.23876545
350.9	0.2373296
351.116	0.23311595
351.332	0.2315199
351.549	0.23509722
351.765	0.24063931
351.981	0.24314693
352.197	0.25043137
352.414	0.25561582
352.63	0.25843342
352.846	0.26185884
353.062	0.25787528
353.278	0.25280677
353.495	0.25569682
353.711	0.25649232
353.927	0.25716102
354.143	0.25817501
354.359	0.25394582
354.575	0.25259723
354.792	0.25835721
355.008	0.25702431
355.224	0.25325142
355.44	0.25222401
355.656	0.25064267
355.872	0.2533537
356.088	0.26230605
356.304	0.26155556
356.52	0.26121413
356.736	0.2626551
356.952	0.26358061
357.168	0.26348881
357.384	0.26491529
357.6	0.25975212
357.816	0.26152562
358.032	0.2639985
358.248	0.27032701
358.464	0.27062683
358.679	0.27207867
358.895	0.2755556
359.111	0.27955209
359.327	0.27527485
359.543	0.27444861
359.759	0.27262207
359.974	0.27113785
360.19	0.27019965
360.406	0.26876401
360.622	0.26537314
360.838	0.26661957
361.053	0.26766186
361.269	0.26823087
361.485	0.26808895
361.701	0.26865362
361.916	0.26641134
362.132	0.26844958
362.348	0.26868227
362.563	0.2691159
362.779	0.26688838
362.995	0.26814677
363.21	0.27079142
363.426	0.27157511
363.641	0.27152498
363.857	0.27354915
364.073	0.27225276
364.288	0.27142377
364.504	0.27377625
364.719	0.27335594
364.935	0.27427424
365.15	0.27422279
365.366	0.27309711
365.581	0.27498712
365.797	0.27695991
366.012	0.27497839
366.228	0.27278397
366.443	0.27500619
366.658	0.27447205
366.874	0.2731903
367.089	0.2753112
367.305	0.27707511
367.52	0.27702556
367.735	0.27747965
367.951	0.27481832
368.166	0.27534894
368.381	0.27905649
368.597	0.27653575
368.812	0.27428857
369.027	0.27598624
369.243	0.27748782
369.458	0.28140778
369.673	0.28161544
369.888	0.28019117
370.104	0.27996715
370.319	0.2812594
370.534	0.28005137
370.749	0.27899813
370.964	0.27900065
371.179	0.27886312
371.395	0.27801513
371.61	0.27763569
371.825	0.27703779
372.04	0.27660823
372.255	0.27572053
372.47	0.27402224
372.685	0.27166402
372.9	0.27149624
373.115	0.27027499
373.33	0.2706021
373.545	0.27132912
373.76	0.27237675
373.975	0.27117505
374.19	0.27137245
374.405	0.27068293
374.62	0.27332667
374.835	0.27458519
375.05	0.27375424
375.265	0.27258517
375.48	0.2721736
375.695	0.27391303
375.91	0.27334381
376.125	0.27082432
376.339	0.2670556
376.554	0.26660275
376.769	0.26644083
376.984	0.26581342
377.199	0.26550729
377.414	0.26424444
377.628	0.26441449
377.843	0.26525462
378.058	0.26559584
378.273	0.26608702
378.487	0.26590978
378.702	0.26607587
378.917	0.26581601
379.131	0.26470516
379.346	0.26223666
379.561	0.26064227
379.775	0.25882153
379.99	0.25657381
380.205	0.25285419
380.419	0.25040698
380.634	0.24789751
380.848	0.24816858
381.063	0.2467813
381.278	0.24757663
381.492	0.24704163
381.707	0.248565
381.921	0.24870036
382.136	0.25047576
382.35	0.24964334
382.565	0.24858154
382.779	0.24730479
382.994	0.24649218
383.208	0.24496048
383.422	0.24533529
383.637	0.24314128
383.851	0.24373611
384.066	0.24336024
384.28	0.24209193
384.494	0.24156613
384.709	0.24061285
384.923	0.23963315
385.137	0.23816658
385.352	0.23594099
385.566	0.23554545
385.78	0.2347303
385.995	0.23298569
386.209	0.23128636
386.423	0.23077824
386.637	0.23035644
386.852	0.22922363
387.066	0.22769424
387.28	0.22602578
387.494	0.2259592
387.708	0.22534581
387.923	0.22392301
388.137	0.22336319
388.351	0.22235348
388.565	0.22185348
388.779	0.22085879
388.993	0.22066662
389.207	0.21929095
389.421	0.21799362
389.635	0.21590816
389.85	0.21445815
390.064	0.21316585
390.278	0.21258614
390.492	0.21183107
390.706	0.21104244
390.92	0.21027669
391.134	0.21029708
391.348	0.21018634
391.561	0.20888617
391.775	0.20732646
391.989	0.20509301
392.203	0.20421882
392.417	0.20287302
392.631	0.20229056
392.845	0.20078264
393.059	0.20037885
393.273	0.19966733
393.486	0.1981909
393.7	0.19670874
393.914	0.19613699
394.128	0.19410755
394.342	0.19251359
394.555	0.19044076
394.769	0.18894563
394.983	0.18807694
395.197	0.18758406
395.41	0.18611152
395.624	0.18564863
395.838	0.18527514
396.051	0.18523907
396.265	0.18368415
396.479	0.18288398
396.692	0.1815827
396.906	0.18023824
397.12	0.17870588
397.333	0.17742809
397.547	0.17553452
397.76	0.17497539
397.974	0.17361529
398.187	0.17237434
398.401	0.1714494
398.614	0.17031759
398.828	0.16910468
399.041	0.16812598
399.255	0.16721794
399.468	0.16615335
399.682	0.16510067
399.895	0.16452415
400.109	0.16340139
400.322	0.16241588
400.536	0.16109902
400.749	0.16043011
400.962	0.1595855
401.176	0.15856531
401.389	0.15702137
401.602	0.15580202
401.816	0.15485351
402.029	0.15432351
402.242	0.15283263
402.456	0.15174971
402.669	0.15079577
402.882	0.14955467
403.095	0.14914846
403.309	0.14796418
403.522	0.1469737
403.735	0.14605025
403.948	0.14517618
404.161	0.14459522
404.375	0.14391485
404.588	0.14300703
404.801	0.14212408
405.014	0.14091888
405.227	0.14011128
405.44	0.13936866
405.653	0.13848769
405.866	0.1373237
406.079	0.13631762
406.293	0.13548966
406.506	0.13452066
406.719	0.13369151
406.932	0.13274026
407.145	0.13152634
407.358	0.13113036
407.571	0.12996853
407.784	0.12929719
407.996	0.12871508
408.209	0.12751322
408.422	0.12643495
408.635	0.12608767
408.848	0.12526206
409.061	0.12447133
409.274	0.12385612
409.487	0.12316019
409.7	0.12254313
409.912	0.12188363
410.125	0.12053136
410.338	0.11950631
410.551	0.11854472
410.764	0.11760645
410.976	0.1168582
411.189	0.11629208
411.402	0.11570223
411.615	0.11531337
411.827	0.11464507
412.04	0.11420173
412.253	0.11348946
412.465	0.1127399
412.678	0.11183868
412.891	0.11127679
413.103	0.11042332
413.316	0.10985345
413.529	0.10943197
413.741	0.1088907
413.954	0.10826509
414.166	0.10776525
414.379	0.10712053
414.591	0.10678609
414.804	0.10617316
415.016	0.10552138
415.229	0.10491393
415.441	0.10426772
415.654	0.10394973
415.866	0.10344725
416.079	0.10289838
416.291	0.10239333
416.504	0.10196656
416.716	0.10159129
416.928	0.10116798
417.141	0.10072416
417.353	0.10020922
417.566	0.09962725
417.778	0.09910448
417.99	0.09829753
418.203	0.09741696
418.415	0.09706347
418.627	0.09662047
418.839	0.09632532
419.052	0.09625688
419.264	0.09611884
419.476	0.09611146
419.688	0.09594014
419.901	0.09545013
420.113	0.0948761
420.325	0.09451815
420.537	0.09388165
420.749	0.09345982
420.961	0.09310837
421.174	0.09270338
421.386	0.09222363
421.598	0.09192
421.81	0.09152436
422.022	0.09126843
422.234	0.09113129
422.446	0.09069722
422.658	0.09055106
422.87	0.09050694
423.082	0.09025018
423.294	0.08987802
423.506	0.08963688
423.718	0.08933136
423.93	0.08892811
424.142	0.08861852
424.354	0.08832661
424.566	0.08827618
424.778	0.08826772
424.99	0.08796842
425.202	0.0876475
425.414	0.08750077
425.625	0.08739597
425.837	0.08722895
426.049	0.08702057
426.261	0.0868561
426.473	0.0868088
426.684	0.08666217
426.896	0.08657116
427.108	0.08642667
427.32	0.08653901
427.531	0.08657701
427.743	0.08652763
427.955	0.08659935
428.167	0.08667094
428.378	0.08679704
428.59	0.08677899
428.802	0.08659031
429.013	0.08634575
429.225	0.08621887
429.436	0.0860729
429.648	0.08595645
429.86	0.08607623
430.071	0.08626999
430.283	0.0863262
430.494	0.08629899
430.706	0.08635076
430.917	0.08629337
431.129	0.08636277
431.34	0.08610617
431.552	0.08591997
431.763	0.08575777
431.975	0.08577264
432.186	0.08579441
432.398	0.08587424
432.609	0.08587721
432.821	0.08623249
433.032	0.08632929
433.243	0.08637095
433.455	0.08662864
433.666	0.08658314
433.877	0.08668504
434.089	0.08664643
434.3	0.08634618
434.511	0.08638715
434.723	0.0865428
434.934	0.08625794
435.145	0.08630159
435.356	0.0862945
435.568	0.08623694
435.779	0.08639244
435.99	0.08627213
436.201	0.08627414
436.412	0.08645939
436.624	0.08638121
436.835	0.08646282
437.046	0.086797
437.257	0.08683637
437.468	0.08721363
437.679	0.08735713
437.89	0.08754545
438.101	0.0878564
438.312	0.08795602
438.523	0.08799607
438.734	0.08810268
438.945	0.08816024
439.156	0.08822911
439.367	0.08846727
439.578	0.08866043
439.789	0.08884818
440	0.0890796
440.211	0.08929866
440.422	0.08936293
440.633	0.0896763
440.844	0.08975591
441.055	0.08996505
441.266	0.09012541
441.477	0.09020471
441.687	0.09056861
441.898	0.09085788
442.109	0.09095195
442.32	0.09114688
442.531	0.09119559
442.741	0.09141629
442.952	0.09168586
443.163	0.09181641
443.374	0.09191938
443.584	0.09209582
443.795	0.09245749
444.006	0.09281666
444.216	0.09290458
444.427	0.09318924
444.638	0.09335645
444.848	0.09354486
445.059	0.09387264
445.27	0.09406496
445.48	0.09421171
445.691	0.09448051
445.901	0.09467949
446.112	0.09497737
446.323	0.09523075
446.533	0.09544465
446.744	0.09562721
446.954	0.09587734
447.165	0.09622078
447.375	0.09654105
447.586	0.09680719
447.796	0.09727943
448.006	0.09755417
448.217	0.09777325
448.427	0.09814188
448.638	0.09833109
448.848	0.09847697
449.058	0.09878969
449.269	0.09893192
449.479	0.09915109
449.689	0.09952279
449.9	0.09968897
450.11	0.10004785
450.32	0.10044309
450.531	0.10069096
450.741	0.10090924
450.951	0.10133341
451.161	0.10156016
451.372	0.1018226
451.582	0.10233777
451.792	0.10253727
452.002	0.10285936
452.212	0.10316594
452.422	0.10340699
452.633	0.1036846
452.843	0.10420427
453.053	0.10425973
453.263	0.10458868
453.473	0.10484613
453.683	0.1052378
453.893	0.10542901
454.103	0.1058341
454.313	0.10604119
454.523	0.10649944
454.733	0.10684093
454.943	0.1072147
455.153	0.10740013
455.363	0.10796453
455.573	0.10833334
455.783	0.10868464
455.993	0.10906955
456.203	0.1095555
456.413	0.10986913
456.623	0.1105003
456.833	0.1108382
457.042	0.11121692
457.252	0.11162016
457.462	0.11185588
457.672	0.11217125
457.882	0.11248899
458.091	0.11270715
458.301	0.11302753
458.511	0.11338231
458.721	0.1137472
458.931	0.11426457
459.14	0.11463697
459.35	0.11524275
459.56	0.1158136
459.769	0.11638269
459.979	0.11677979
460.189	0.11720626
460.398	0.11766407
460.608	0.11799317
460.817	0.11841941
461.027	0.11882772
461.237	0.11918183
461.446	0.11962651
461.656	0.12018704
461.865	0.12057898
462.075	0.12104385
462.284	0.12142739
462.494	0.12171831
462.703	0.12200801
462.913	0.12248746
463.122	0.12286455
463.332	0.1232954
463.541	0.12378156
463.751	0.12421056
463.96	0.12481188
464.169	0.12543377
464.379	0.12603621
464.588	0.12659642
464.797	0.12713569
465.007	0.12771833
465.216	0.12827748
465.425	0.12872332
465.635	0.12916364
465.844	0.12962722
466.053	0.1300283
466.263	0.13052709
466.472	0.1309062
466.681	0.13134822
466.89	0.13185422
467.099	0.13255717
467.309	0.13302313
467.518	0.13361525
467.727	0.13412089
467.936	0.1347882
468.145	0.13543931
468.354	0.13608301
468.563	0.13654248
468.772	0.13707044
468.982	0.13767592
469.191	0.13830473
469.4	0.13882366
469.609	0.13939198
469.818	0.14004283
470.027	0.14069214
470.236	0.14124042
470.445	0.14184052
470.654	0.14238095
470.863	0.14297887
471.072	0.14355088
471.28	0.14401136
471.489	0.14455104
471.698	0.14518522
471.907	0.14575159
472.116	0.14641707
472.325	0.1471546
472.534	0.14788316
472.743	0.14871854
472.951	0.14950665
473.16	0.15029415
473.369	0.15108033
473.578	0.15184359
473.786	0.1525205
473.995	0.15322393
474.204	0.15389876
474.413	0.15454099
474.621	0.15535979
474.83	0.15622614
475.039	0.15698081
475.247	0.15780812
475.456	0.15855541
475.665	0.15931761
475.873	0.16014913
476.082	0.16086107
476.291	0.16151896
476.499	0.16234148
476.708	0.1630426
476.916	0.16387792
477.125	0.1647321
477.333	0.1655167
477.542	0.16636775
477.75	0.16716004
477.959	0.16791821
478.167	0.16878777
478.376	0.16958369
478.584	0.1704189
478.793	0.1712333
479.001	0.17216537
479.209	0.17299532
479.418	0.17395364
479.626	0.17485091
479.834	0.17580452
480.043	0.17675901
480.251	0.17769599
480.459	0.17858758
480.668	0.17958502
480.876	0.18051315
481.084	0.1814559
481.293	0.18233082
481.501	0.18319172
481.709	0.1842788
481.917	0.18525344
482.125	0.18618529
482.334	0.18716036
482.542	0.18814997
482.75	0.18925656
482.958	0.19033574
483.166	0.19128591
483.374	0.19236582
483.583	0.1933864
483.791	0.19438481
483.999	0.19535457
484.207	0.19632965
484.415	0.19729565
484.623	0.19828406
484.831	0.1992234
485.039	0.20031605
485.247	0.20142838
485.455	0.20260671
485.663	0.20364378
485.871	0.20474018
486.079	0.20577298
486.287	0.2069484
486.495	0.20791182
486.702	0.20897975
486.91	0.21007927
487.118	0.21122856
487.326	0.21234404
487.534	0.21356556
487.742	0.21458142
487.95	0.21579944
488.157	0.21699976
488.365	0.21819656
488.573	0.21940898
488.781	0.22066604
488.988	0.22201804
489.196	0.22331183
489.404	0.22457238
489.612	0.22584553
489.819	0.2270958
490.027	0.22834463
490.235	0.22955332
490.442	0.23076595
490.65	0.23208144
490.857	0.23333366
491.065	0.23456686
491.273	0.23591891
491.48	0.23727722
491.688	0.23852957
491.895	0.23989866
492.103	0.24127327
492.31	0.24264624
492.518	0.24400169
492.725	0.24534588
492.933	0.24668458
493.14	0.24810893
493.348	0.24937208
493.555	0.25070144
493.763	0.25209845
493.97	0.25350991
494.177	0.25493846
494.385	0.25639898
494.592	0.25791844
494.8	0.25937611
495.007	0.26077054
495.214	0.26208573
495.422	0.26351578
495.629	0.26487701
495.836	0.26626207
496.043	0.26767166
496.251	0.26926072
496.458	0.27077997
496.665	0.27226034
496.872	0.27377305
497.08	0.27523725
497.287	0.2767573
497.494	0.27826014
497.701	0.27968954
497.908	0.28121855
498.115	0.28269859
498.322	0.28419145
498.53	0.28569917
498.737	0.28716939
498.944	0.28858564
499.151	0.29005239
499.358	0.29152968
499.565	0.29308661
499.772	0.29467576
499.979	0.296228
500.186	0.29793407
500.393	0.29962104
500.6	0.30128691
500.807	0.30285305
501.014	0.30446822
501.221	0.30612056
501.427	0.30772609
501.634	0.30923307
501.841	0.31082302
502.048	0.31235798
502.255	0.31393895
502.462	0.31557457
502.669	0.31722681
502.875	0.31900284
503.082	0.32071576
503.289	0.32233496
503.496	0.32400422
503.702	0.32566493
503.909	0.32740272
504.116	0.32910276
504.323	0.33076374
504.529	0.33242595
504.736	0.33418778
504.943	0.3359405
505.149	0.33776459
505.356	0.33945339
505.563	0.34118638
505.769	0.34296159
505.976	0.34465979
506.182	0.34637938
506.389	0.34812795
506.595	0.34985449
506.802	0.35151587
507.008	0.3531072
507.215	0.35471274
507.421	0.35638016
507.628	0.35812308
507.834	0.35980915
508.041	0.36151494
508.247	0.36328526
508.454	0.36511268
508.66	0.36675899
508.866	0.36861759
509.073	0.37041081
509.279	0.37216327
509.486	0.37396151
509.692	0.37574938
509.898	0.37759946
510.105	0.37951983
510.311	0.38124967
510.517	0.38304771
510.723	0.38490035
510.93	0.38661244
511.136	0.38839801
511.342	0.39010752
511.548	0.39178466
511.754	0.39363613
511.961	0.39544635
512.167	0.39718436
512.373	0.39894936
512.579	0.40087812
512.785	0.40266149
512.991	0.40454711
513.197	0.40633884
513.404	0.40810617
513.61	0.40997238
513.816	0.41172426
514.022	0.41343275
514.228	0.41525818
514.434	0.4169701
514.64	0.41873715
514.846	0.42056093
515.052	0.42231215
515.258	0.42414936
515.464	0.42595298
515.669	0.42778024
515.875	0.42969952
516.081	0.43154272
516.287	0.43338636
516.493	0.43517301
516.699	0.43684522
516.905	0.43852054
517.111	0.44015968
517.316	0.44178395
517.522	0.4434884
517.728	0.44524931
517.934	0.44713604
518.139	0.44897684
518.345	0.45076264
518.551	0.45270807
518.757	0.45459509
518.962	0.4563786
519.168	0.45814848
519.374	0.45975878
519.579	0.46155923
519.785	0.46344565
519.991	0.46518437
520.196	0.46689028
520.402	0.46853609
520.607	0.47026803
520.813	0.47213527
521.018	0.47387785
521.224	0.47539889
521.429	0.47712113
521.635	0.47890372
521.84	0.48060503
522.046	0.48236853
522.251	0.48402317
522.457	0.48567112
522.662	0.48758221
522.868	0.48928082
523.073	0.49084635
523.279	0.49255624
523.484	0.49407367
523.689	0.49566741
523.895	0.49745755
524.1	0.49909368
524.305	0.50065185
524.511	0.50234284
524.716	0.50404645
524.921	0.50573457
525.126	0.50744486
525.332	0.50901026
525.537	0.51058673
525.742	0.51232129
525.947	0.51400715
526.153	0.51558148
526.358	0.51730788
526.563	0.51890115
526.768	0.52050095
526.973	0.52215219
527.178	0.52371197
527.383	0.52533606
527.588	0.52692491
527.794	0.52829534
527.999	0.52981063
528.204	0.53135585
528.409	0.53276859
528.614	0.53433986
528.819	0.53580602
529.024	0.53724633
529.229	0.53881332
529.434	0.54056668
529.639	0.54207218
529.843	0.54363981
530.048	0.54510591
530.253	0.54658077
530.458	0.54818619
530.663	0.54969531
530.868	0.55110051
531.073	0.5525075
531.278	0.55391748
531.482	0.55526261
531.687	0.55666545
531.892	0.55801579
532.097	0.55936444
532.302	0.5607592
532.506	0.56217615
532.711	0.56343701
532.916	0.56492657
533.12	0.56632804
533.325	0.56772794
533.53	0.56915758
533.734	0.57046387
533.939	0.57186756
534.144	0.57337108
534.348	0.57467842
534.553	0.57591469
534.757	0.57704745
534.962	0.57825542
535.167	0.57954155
535.371	0.58074518
535.576	0.58218835
535.78	0.58338136
535.985	0.58480114
536.189	0.5861984
536.394	0.58762184
536.598	0.58876531
536.803	0.59004119
537.007	0.59108908
537.211	0.5923792
537.416	0.59337133
537.62	0.5944508
537.825	0.59541793
538.029	0.59675109
538.233	0.5977388
538.438	0.59889218
538.642	0.5998091
538.846	0.60107331
539.05	0.60216695
539.255	0.60332446
539.459	0.60434295
539.663	0.60546101
539.867	0.60650567
540.072	0.60776616
540.276	0.60874883
540.48	0.60992821
540.684	0.61092544
540.888	0.61206824
541.092	0.61319877
541.297	0.61416973
541.501	0.61509463
541.705	0.61609957
541.909	0.61693094
542.113	0.61785518
542.317	0.6187162
542.521	0.61959927
542.725	0.62055728
542.929	0.62152481
543.133	0.62242103
543.337	0.62337074
543.541	0.62427306
543.745	0.62511375
543.949	0.62609025
544.153	0.6268979
544.357	0.62753669
544.56	0.62844512
544.764	0.62928325
544.968	0.63006823
545.172	0.63076293
545.376	0.63154146
545.58	0.63232891
545.783	0.63337692
545.987	0.63395533
546.191	0.63473194
546.395	0.63558324
546.598	0.63648436
546.802	0.63718652
547.006	0.6379714
547.21	0.6383569
547.413	0.63923124
547.617	0.64002261
547.821	0.64073012
548.024	0.64138913
548.228	0.64199913
548.431	0.6426488
548.635	0.64349918
548.839	0.64406974
549.042	0.64465308
549.246	0.64514047
549.449	0.64574362
549.653	0.64628322
549.856	0.64678244
550.06	0.64729987
550.263	0.64784713
550.467	0.64837623
550.67	0.64907346
550.874	0.64944708
551.077	0.65004769
551.28	0.65068851
551.484	0.65127395
551.687	0.65176717
551.891	0.6523324
552.094	0.65273685
552.297	0.65332177
552.501	0.65387328
552.704	0.65432966
552.907	0.65473144
553.11	0.65514604
553.314	0.65545665
553.517	0.65560962
553.72	0.65596492
553.923	0.65621432
554.127	0.6564606
554.33	0.65658113
554.533	0.65691785
554.736	0.6570932
554.939	0.65752665
555.142	0.65792395
555.345	0.65834907
555.549	0.65882202
555.752	0.65929666
555.955	0.65963482
556.158	0.6601627
556.361	0.66047629
556.564	0.66059471
556.767	0.66073925
556.97	0.66094906
557.173	0.66123251
557.376	0.66162526
557.579	0.66176662
557.782	0.6621544
557.984	0.66263279
558.187	0.66302157
558.39	0.66316682
558.593	0.66342319
558.796	0.66329203
558.999	0.66331615
559.202	0.66335527
559.404	0.66325794
559.607	0.66333459
559.81	0.66336181
560.013	0.66335028
560.216	0.66358524
560.418	0.66386309
560.621	0.66394359
560.824	0.66406635
561.026	0.66415547
561.229	0.66419039
561.432	0.66431914
561.634	0.66438814
561.837	0.6643193
562.04	0.66433449
562.242	0.66426451
562.445	0.66411281
562.647	0.66414644
562.85	0.66402575
563.053	0.66383307
563.255	0.66380688
563.458	0.66365629
563.66	0.66364298
563.863	0.66366103
564.065	0.66362196
564.268	0.66348169
564.47	0.66342228
564.672	0.66318177
564.875	0.66322082
565.077	0.66307702
565.28	0.66286898
565.482	0.66268713
565.684	0.66254608
565.887	0.66243432
566.089	0.66248144
566.291	0.66222147
566.494	0.6619374
566.696	0.66168743
566.898	0.66149632
567.1	0.66131738
567.303	0.66108895
567.505	0.66069875
567.707	0.66034644
567.909	0.66004794
568.111	0.65987065
568.314	0.65949812
568.516	0.6591819
568.718	0.65868352
568.92	0.65841483
569.122	0.65814512
569.324	0.65787007
569.526	0.65728683
569.728	0.65702328
569.93	0.65668959
570.132	0.65645942
570.334	0.65608221
570.536	0.65567267
570.738	0.65534786
570.94	0.65509048
571.142	0.65470232
571.344	0.65417284
571.546	0.65370926
571.748	0.65331757
571.95	0.65286313
572.152	0.65247387
572.354	0.65209916
572.555	0.6517043
572.757	0.65146813
572.959	0.65107831
573.161	0.65043621
573.363	0.64998447
573.564	0.64939685
573.766	0.64875144
573.968	0.64813491
574.17	0.64732818
574.371	0.64673183
574.573	0.64627721
574.775	0.64563866
574.976	0.6450131
575.178	0.64443137
575.38	0.64362969
575.581	0.6430166
575.783	0.64245293
575.985	0.64187494
576.186	0.64128918
576.388	0.6406638
576.589	0.64001675
576.791	0.6395894
576.992	0.63901473
577.194	0.63826353
577.395	0.63744669
577.597	0.63677562
577.798	0.63608589
578	0.63539212
578.201	0.63465313
578.402	0.63393082
578.604	0.63313256
578.805	0.63251914
579.007	0.63183457
579.208	0.63118142
579.409	0.63045732
579.611	0.62967505
579.812	0.62904215
580.013	0.62834528
580.215	0.62738302
580.416	0.62654251
580.617	0.62560959
580.818	0.62488677
581.019	0.62396714
581.221	0.62298972
581.422	0.62216781
581.623	0.62148088
581.824	0.6204505
582.025	0.61964454
582.226	0.61873233
582.428	0.61800811
582.629	0.61723407
582.83	0.61624974
583.031	0.61525968
583.232	0.61466716
583.433	0.61387328
583.634	0.61289164
583.835	0.61197107
584.036	0.61092641
584.237	0.61006024
584.438	0.60920273
584.639	0.60804188
584.84	0.60710674
585.041	0.60616451
585.242	0.60517043
585.442	0.60422089
585.643	0.60338492
585.844	0.60236328
586.045	0.60146946
586.246	0.60028574
586.447	0.59929731
586.647	0.59822635
586.848	0.59720446
587.049	0.59610517
587.25	0.59505092
587.45	0.59401154
587.651	0.59303982
587.852	0.59200272
588.053	0.59119906
588.253	0.59015137
588.454	0.58914901
588.655	0.58812244
588.855	0.58690941
589.056	0.58592157
589.256	0.5848868
589.457	0.58376723
589.658	0.58284099
589.858	0.58161375
590.059	0.58054255
590.259	0.57962921
590.46	0.57848461
590.66	0.57730666
590.861	0.57618521
591.061	0.57495979
591.262	0.57399446
591.462	0.57290009
591.662	0.57168964
591.863	0.57056045
592.063	0.56946032
592.264	0.56827679
592.464	0.56710755
592.664	0.56600411
592.865	0.56497135
593.065	0.5639002
593.265	0.56292706
593.465	0.56182254
593.666	0.5607039
593.866	0.55965118
594.066	0.5585103
594.266	0.55727868
594.467	0.55597032
594.667	0.55462563
594.867	0.55350683
595.067	0.55230573
595.267	0.55104253
595.467	0.54983667
595.668	0.548629
595.868	0.54751099
596.068	0.54627346
596.268	0.54486679
596.468	0.54366444
596.668	0.54248597
596.868	0.54115053
597.068	0.53993122
597.268	0.53872384
597.468	0.53752666
597.668	0.53642065
597.868	0.53523944
598.068	0.53399954
598.268	0.53277488
598.467	0.53162838
598.667	0.53040804
598.867	0.52906356
599.067	0.52786105
599.267	0.52663734
599.467	0.52539085
599.667	0.52413441
599.866	0.52284665
600.066	0.52151211
600.266	0.52032556
600.466	0.51904946
600.665	0.51779291
600.865	0.51642667
601.065	0.5152496
601.264	0.5138133
601.464	0.51254979
601.664	0.51124066
601.863	0.50985147
602.063	0.50850169
602.263	0.50707396
602.462	0.50574089
602.662	0.50438717
602.861	0.50298568
603.061	0.50165375
603.26	0.5002865
603.46	0.4989225
603.659	0.49779011
603.859	0.49644897
604.058	0.49517302
604.258	0.49402289
604.457	0.4928962
604.657	0.49160148
604.856	0.49033445
605.056	0.489059
605.255	0.48778745
605.454	0.48657114
605.654	0.4851578
605.853	0.48372991
606.052	0.48234217
606.252	0.48099026
606.451	0.47962301
606.65	0.47831341
606.849	0.47685915
607.049	0.47560923
607.248	0.47420533
607.447	0.4729122
607.646	0.47160066
607.845	0.47029151
608.045	0.46878205
608.244	0.46758244
608.443	0.46616448
608.642	0.46502462
608.841	0.46361467
609.04	0.46218828
609.239	0.46082216
609.438	0.45953713
609.637	0.45820858
609.836	0.45695342
610.035	0.45555009
610.234	0.45429451
610.433	0.45301578
610.632	0.45158724
610.831	0.45022559
611.03	0.44871088
611.229	0.44734573
611.428	0.44590942
611.627	0.44459295
611.826	0.44329622
612.025	0.44219586
612.224	0.44087929
612.422	0.4397173
612.621	0.43841138
612.82	0.43718363
613.019	0.43587821
613.218	0.4345447
613.416	0.43296601
613.615	0.43162727
613.814	0.43016329
614.012	0.42877275
614.211	0.42729947
614.41	0.42594365
614.608	0.42465585
614.807	0.4233688
615.006	0.42210697
615.204	0.4208633
615.403	0.41965986
615.602	0.41849167
615.8	0.41728736
615.999	0.41586693
616.197	0.41467126
616.396	0.41347889
616.594	0.4121575
616.793	0.41091113
616.991	0.40957553
617.19	0.40813294
617.388	0.40696939
617.586	0.40563711
617.785	0.40422841
617.983	0.40298369
618.182	0.40158035
618.38	0.40026473
618.578	0.39905005
618.777	0.39777736
618.975	0.39650489
619.173	0.39523665
619.372	0.39394886
619.57	0.39266551
619.768	0.39150771
619.966	0.39019999
620.165	0.38886872
620.363	0.38764871
620.561	0.38636863
620.759	0.38515407
620.957	0.38399665
621.155	0.38271229
621.354	0.38146108
621.552	0.38033206
621.75	0.37902141
621.948	0.37784381
622.146	0.37661792
622.344	0.37529005
622.542	0.37404289
622.74	0.37276024
622.938	0.37144376
623.136	0.37022442
623.334	0.36900836
623.532	0.36762854
623.73	0.36635192
623.928	0.36511934
624.126	0.36385999
624.324	0.3626019
624.522	0.36125743
624.719	0.35991298
624.917	0.35876763
625.115	0.35749394
625.313	0.35638182
625.511	0.35526281
625.708	0.35393539
625.906	0.35264851
626.104	0.35138736
626.302	0.35020313
626.499	0.3489747
626.697	0.3475531
626.895	0.34610227
627.093	0.34497176
627.29	0.34386793
627.488	0.3426368
627.686	0.34144711
627.883	0.34020805
628.081	0.3389166
628.278	0.33791839
628.476	0.33662131
628.673	0.33534985
628.871	0.33423417
629.068	0.33299958
629.266	0.33189896
629.463	0.33074882
629.661	0.32949116
629.858	0.32823665
630.056	0.32707148
630.253	0.32590147
630.451	0.32469654
630.648	0.32337061
630.845	0.3222005
631.043	0.32102769
631.24	0.31996669
631.438	0.31878671
631.635	0.31760299
631.832	0.31629402
632.029	0.31519918
632.227	0.31395839
632.424	0.3127539
632.621	0.3114533
632.818	0.31027457
633.016	0.30906975
633.213	0.30803595
633.41	0.30690985
633.607	0.30582786
633.804	0.30472291
634.001	0.30360046
634.199	0.30242627
634.396	0.30127777
634.593	0.29997282
634.79	0.29883775
634.987	0.29771278
635.184	0.29660767
635.381	0.29558665
635.578	0.29455993
635.775	0.29347165
635.972	0.29248502
636.169	0.29139429
636.366	0.29025809
636.563	0.28913595
636.76	0.28787245
636.957	0.28672656
637.153	0.2855079
637.35	0.28449674
637.547	0.28342537
637.744	0.28231122
637.941	0.28124544
638.138	0.2803163
638.334	0.27920101
638.531	0.27820696
638.728	0.27708165
638.925	0.27606648
639.121	0.27515297
639.318	0.27419939
639.515	0.27314698
639.711	0.27228006
639.908	0.2712338
640.105	0.2701938
640.301	0.26913908
640.498	0.26809663
640.695	0.26706864
640.891	0.26608807
641.088	0.26504637
641.284	0.26415684
641.481	0.26332191
641.677	0.2624091
641.874	0.26137665
642.07	0.26043362
642.267	0.25958013
642.463	0.25862915
642.66	0.25774437
642.856	0.25671026
643.053	0.25572834
643.249	0.25490811
643.445	0.25405355
643.642	0.25304648
643.838	0.25223522
644.034	0.25140821
644.231	0.25057075
644.427	0.24976086
644.623	0.24891287
644.82	0.24808749
645.016	0.24729101
645.212	0.24639814
645.408	0.2455214
645.604	0.24473455
645.801	0.24387761
645.997	0.24289906
646.193	0.24196559
646.389	0.24123641
646.585	0.24046785
646.781	0.23961881
646.977	0.23878056
647.173	0.23787606
647.37	0.23710248
647.566	0.23629506
647.762	0.23539716
647.958	0.23452767
648.154	0.2336461
648.35	0.23278218
648.546	0.23199393
648.742	0.23133798
648.937	0.23054299
649.133	0.22979509
649.329	0.22915108
649.525	0.22838906
649.721	0.22769428
649.917	0.22709594
650.113	0.22622208
650.309	0.22558444
650.504	0.22480689
650.7	0.22395523
650.896	0.22325647
651.092	0.22246588
651.287	0.22165737
651.483	0.2209745
651.679	0.22015306
651.875	0.21940718
652.07	0.21860696
652.266	0.21780526
652.462	0.21712954
652.657	0.21646715
652.853	0.21583078
653.048	0.21516143
653.244	0.21446403
653.44	0.21381574
653.635	0.21309667
653.831	0.21238087
654.026	0.2117047
654.222	0.21086612
654.417	0.21013874
654.613	0.20937917
654.808	0.20863021
655.004	0.20798282
655.199	0.20730098
655.394	0.20657674
655.59	0.20604731
655.785	0.20543466
655.98	0.20492829
656.176	0.20432072
656.371	0.20382789
656.566	0.20317324
656.762	0.202439
656.957	0.20173376
657.152	0.20110454
657.348	0.20044215
657.543	0.19987539
657.738	0.19915902
657.933	0.19859334
658.128	0.19801216
658.324	0.19739507
658.519	0.19677522
658.714	0.19617112
658.909	0.19558732
659.104	0.19507805
659.299	0.19448677
659.494	0.19400029
659.689	0.19350917
659.884	0.19300891
660.079	0.19244665
660.274	0.19185267
660.469	0.191238
660.664	0.1907057
660.859	0.19011269
661.054	0.18955419
661.249	0.18895935
661.444	0.1883545
661.639	0.18779886
661.834	0.18724594
662.029	0.18676334
662.224	0.18631777
662.418	0.18574294
662.613	0.18522353
662.808	0.18469769
663.003	0.18412888
663.198	0.18356671
663.392	0.18294728
663.587	0.18246928
663.782	0.18195141
663.977	0.18143357
664.171	0.18099693
664.366	0.18055654
664.561	0.18010659
664.755	0.17965351
664.95	0.17910555
665.144	0.17868757
665.339	0.17825232
665.534	0.17782824
665.728	0.17744665
665.923	0.17707211
666.117	0.17665251
666.312	0.17619142
666.506	0.17575397
666.701	0.1753152
666.895	0.17484871
667.09	0.17440536
667.284	0.17400181
667.479	0.17354442
667.673	0.17317347
667.867	0.17281566
668.062	0.17245872
668.256	0.17210345
668.45	0.17180346
668.645	0.1713937
668.839	0.17104213
669.033	0.17065151
669.228	0.17026547
669.422	0.16994849
669.616	0.16964367
669.81	0.16922706
670.004	0.1688939
670.199	0.16854475
670.393	0.16815069
670.587	0.16769016
670.781	0.16719085
670.975	0.1667087
671.169	0.16618333
671.363	0.16566539
671.558	0.16524856
671.752	0.16484669
671.946	0.16454788
672.14	0.16425163
672.334	0.16385192
672.528	0.16364185
672.722	0.16335547
672.916	0.16304555
673.11	0.16272681
673.304	0.16243716
673.497	0.16205015
673.691	0.16183274
673.885	0.16145014
674.079	0.16119076
674.273	0.16093917
674.467	0.16074795
674.661	0.16042746
674.854	0.16012817
675.048	0.15985583
675.242	0.15963268
675.436	0.15940431
675.629	0.15920072
675.823	0.15893863
676.017	0.15877572
676.211	0.15863409
676.404	0.1583926
676.598	0.15818909
676.792	0.15795918
676.985	0.15759766
677.179	0.15729109
677.372	0.15700968
677.566	0.15675226
677.76	0.15649382
677.953	0.15618717
678.147	0.15596034
678.34	0.15584937
678.534	0.1556441
678.727	0.15543736
678.921	0.15531642
679.114	0.15518973
679.307	0.15513961
679.501	0.15492619
679.694	0.15471506
679.888	0.15451457
680.081	0.15427285
680.274	0.15394963
680.468	0.15372247
680.661	0.15346231
680.854	0.15336683
681.048	0.15314601
681.241	0.15298185
681.434	0.15286463
681.627	0.15281703
681.821	0.15269861
682.014	0.1525537
682.207	0.15220986
682.4	0.15202257
682.593	0.15189595
682.786	0.15170548
682.98	0.1514334
683.173	0.15122171
683.366	0.15104312
683.559	0.15106014
683.752	0.15097616
683.945	0.15089081
684.138	0.15085975
684.331	0.1508081
684.524	0.15077867
684.717	0.15073289
684.91	0.15064957
685.103	0.15063864
685.296	0.15050831
685.489	0.1504276
685.682	0.15040416
685.874	0.15036274
686.067	0.15027454
686.26	0.15026436
686.453	0.15021299
686.646	0.15021243
686.839	0.15018053
687.031	0.15007613
687.224	0.14992991
687.417	0.14996443
687.61	0.1497707
687.802	0.14963673
687.995	0.14951477
688.188	0.1493905
688.38	0.1493262
688.573	0.14931299
688.766	0.14922146
688.958	0.14919481
689.151	0.14911634
689.343	0.14910761
689.536	0.14904593
689.729	0.14902898
689.921	0.14902518
690.114	0.14895455
690.306	0.14891704
690.499	0.14887096
690.691	0.14878926
690.884	0.14879009
691.076	0.14873697
691.268	0.14872457
691.461	0.14871387
691.653	0.14877837
691.846	0.14886538
692.038	0.14900925
692.23	0.14901254
692.423	0.14906204
692.615	0.14905035
692.807	0.14906667
692.999	0.14902491
693.192	0.14905494
693.384	0.14907936
693.576	0.14916835
693.768	0.14934061
693.961	0.14941331
694.153	0.1495669
694.345	0.1497254
694.537	0.14987333
694.729	0.14996941
694.921	0.15002763
695.113	0.15006689
695.305	0.15015759
695.498	0.15017369
695.69	0.1503339
695.882	0.15032697
696.074	0.15034889
696.266	0.15040363
696.458	0.15036155
696.65	0.15046376
696.842	0.15060301
697.033	0.15060641
697.225	0.15069412
697.417	0.15082853
697.609	0.15099371
697.801	0.151198
697.993	0.15138002
698.185	0.15154635
698.376	0.15170451
698.568	0.15184901
698.76	0.15198686
698.952	0.15214376
699.144	0.15229918
699.335	0.15238085
699.527	0.15239661
699.719	0.15250439
699.91	0.15270811
700.102	0.15277564
700.294	0.15287293
700.485	0.15300136
700.677	0.15308747
700.869	0.15331184
701.06	0.15341385
701.252	0.15351049
701.443	0.15372732
701.635	0.1539513
701.826	0.15420266
702.018	0.15450893
702.209	0.15481832
702.401	0.15507949
702.592	0.15535675
702.784	0.15554178
702.975	0.15568504
703.166	0.15582551
703.358	0.15588544
703.549	0.15591311
703.741	0.15602046
703.932	0.15615272
704.123	0.15632901
704.315	0.15653111
704.506	0.15670257
704.697	0.15691263
704.888	0.15718992
705.08	0.15752355
705.271	0.15786848
705.462	0.15815027
705.653	0.15850349
705.844	0.15878571
706.035	0.15906731
706.227	0.15928469
706.418	0.15946868
706.609	0.15961945
706.8	0.15987348
706.991	0.16002615
707.182	0.16025381
707.373	0.16049948
707.564	0.16071705
707.755	0.16099575
707.946	0.16128155
708.137	0.1614784
708.328	0.1617136
708.519	0.16203541
708.71	0.16238472
708.901	0.16265368
709.092	0.1629194
709.283	0.16314963
709.473	0.16346026
709.664	0.16381664
709.855	0.16407468
710.046	0.16435279
710.237	0.16468486
710.427	0.16495904
710.618	0.16524021
710.809	0.16552806
711	0.16576128
711.19	0.16597353
711.381	0.16622152
711.572	0.16648115
711.762	0.16676282
711.953	0.16704825
712.144	0.16735767
712.334	0.16764947
712.525	0.16800539
712.715	0.16830282
712.906	0.16864334
713.097	0.16898714
713.287	0.1693843
713.478	0.16981692
713.668	0.17031842
713.859	0.17071127
714.049	0.17110341
714.239	0.17152696
714.43	0.17196726
714.62	0.17228483
714.811	0.17248464
715.001	0.17269361
715.191	0.17299044
715.382	0.1732487
715.572	0.17351589
715.762	0.17380826
715.953	0.17420193
716.143	0.17465522
716.333	0.17497328
716.523	0.17542195
716.714	0.17600022
716.904	0.17649239
717.094	0.17702177
717.284	0.17748156
717.474	0.17792634
717.664	0.17846135
717.855	0.17888563
718.045	0.17925172
718.235	0.17972425
718.425	0.18017727
718.615	0.18067668
718.805	0.18115996
718.995	0.18169174
719.185	0.18217703
719.375	0.18263939
719.565	0.18311111
719.755	0.18351016
719.945	0.18391632
720.135	0.18440368
720.325	0.18475659
720.515	0.18517144
720.704	0.18554535
720.894	0.18587396
721.084	0.18619654
721.274	0.18653737
721.464	0.18693112
721.654	0.18737178
721.843	0.18775595
722.033	0.18814286
722.223	0.18856519
722.413	0.18908849
722.602	0.18968162
722.792	0.19022033
722.982	0.19078144
723.171	0.19134872
723.361	0.19194903
723.55	0.19246892
723.74	0.19292359
723.93	0.19331546
724.119	0.19372957
724.309	0.19414236
724.498	0.19460206
724.688	0.19506556
724.877	0.19556908
725.067	0.19605394
725.256	0.19652713
725.446	0.19700849
725.635	0.19743808
725.825	0.19793152
726.014	0.19849116
726.203	0.19905729
726.393	0.19957184
726.582	0.20007404
726.771	0.20054405
726.961	0.20104658
727.15	0.20146789
727.339	0.20186302
727.529	0.20222695
727.718	0.20263676
727.907	0.20313471
728.096	0.20365039
728.286	0.20420391
728.475	0.20472216
728.664	0.20525651
728.853	0.20575861
729.042	0.20629529
729.231	0.20673663
729.42	0.20709779
729.609	0.20748605
729.799	0.20788994
729.988	0.20834277
730.177	0.2088088
730.366	0.20932133
730.555	0.20986429
730.744	0.21039939
730.933	0.210965
731.122	0.21154129
731.31	0.2120684
731.499	0.21265238
731.688	0.21325859
731.877	0.21375554
732.066	0.21434499
732.255	0.21479612
732.444	0.21529738
732.632	0.21569704
732.821	0.21605391
733.01	0.2163065
733.199	0.21666781
733.388	0.21702879
733.576	0.21758457
733.765	0.21807676
733.954	0.21858396
734.142	0.21913266
734.331	0.21972615
734.52	0.22036236
734.708	0.22098689
734.897	0.22148578
735.086	0.22201583
735.274	0.22254535
735.463	0.22312276
735.651	0.22371004
735.84	0.22420009
736.028	0.22468205
736.217	0.2251702
736.405	0.22574442
736.594	0.22637121
736.782	0.22688912
736.971	0.22747272
737.159	0.2280412
737.347	0.22863179
737.536	0.22922053
737.724	0.22969597
737.912	0.23019498
738.101	0.23073436
738.289	0.23126625
738.477	0.23183647
738.666	0.23243253
738.854	0.23302363
739.042	0.23362768
739.23	0.23417966
739.418	0.23474491
739.607	0.23534248
739.795	0.23598573
739.983	0.23656653
740.171	0.23706632
740.359	0.23760822
740.547	0.23817184
740.735	0.23876365
740.923	0.23931792
741.112	0.23988435
741.3	0.24045369
741.488	0.24106061
741.676	0.24168407
741.864	0.24228164
742.052	0.24290486
742.239	0.24339181
742.427	0.24392307
742.615	0.24447614
742.803	0.24507925
742.991	0.24563609
743.179	0.24625781
743.367	0.2469134
743.555	0.2476854
743.742	0.24833542
743.93	0.24898111
744.118	0.24964546
744.306	0.25036702
744.494	0.25106121
744.681	0.25160878
744.869	0.25225622
745.057	0.25284215
745.244	0.25339121
745.432	0.25398161
745.62	0.2545883
745.807	0.25519335
745.995	0.25578649
746.182	0.2562134
746.37	0.25677022
746.558	0.25735666
746.745	0.25786801
746.933	0.25838786
747.12	0.25889074
747.308	0.25952284
747.495	0.26012605
747.683	0.26070402
747.87	0.26130377
748.057	0.26194497
748.245	0.26252672
748.432	0.2632376
748.62	0.26385207
748.807	0.2645196
748.994	0.26513455
749.182	0.26578286
749.369	0.26640768
749.556	0.26703573
749.743	0.2675968
749.931	0.26819624
750.118	0.26879988
750.305	0.26942563
750.492	0.26996872
750.68	0.27055251
750.867	0.27110887
751.054	0.27164941
751.241	0.27217253
751.428	0.2726937
751.615	0.27326879
751.802	0.27391525
751.989	0.27443031
752.176	0.27502732
752.363	0.27559585
752.55	0.27617084
752.737	0.27683746
752.924	0.27749028
753.111	0.27814288
753.298	0.27890217
753.485	0.2795251
753.672	0.28014904
753.859	0.28083305
754.046	0.28137494
754.233	0.28195799
754.42	0.28249779
754.606	0.28302154
754.793	0.28357805
754.98	0.28419462
755.167	0.28474681
755.353	0.28539973
755.54	0.28606331
755.727	0.28670885
755.914	0.28731486
756.1	0.28798587
756.287	0.28857471
756.474	0.28918935
756.66	0.28981557
756.847	0.29037149
757.033	0.29094526
757.22	0.29153148
757.407	0.29214925
757.593	0.29279172
757.78	0.29341111
757.966	0.29406958
758.153	0.29461414
758.339	0.29516598
758.526	0.29583696
758.712	0.29630996
758.898	0.29688813
759.085	0.29747582
759.271	0.29792569
759.458	0.29850351
759.644	0.2990727
759.83	0.29954396
760.017	0.30022687
760.203	0.30076488
760.389	0.30138803
760.576	0.3021106
760.762	0.30273597
760.948	0.30339278
761.134	0.30409051
761.32	0.30480148
761.507	0.30551554
761.693	0.30623004
761.879	0.30683279
762.065	0.307584
762.251	0.30831318
762.437	0.30897784
762.623	0.30954157
762.809	0.31018383
762.995	0.31081909
763.181	0.31150128
763.367	0.3121631
763.553	0.31282447
763.739	0.31351873
763.925	0.3142261
764.111	0.31491684
764.297	0.31553207
764.483	0.31609261
764.669	0.31662846
764.855	0.31722966
765.041	0.31785268
765.227	0.31846848
765.412	0.31911405
765.598	0.31974519
765.784	0.32054023
765.97	0.32134872
766.156	0.3221071
766.341	0.32276681
766.527	0.32339169
766.713	0.32399609
766.898	0.32469406
767.084	0.32534518
767.27	0.32594571
767.455	0.32644948
767.641	0.32711998
767.827	0.32783161
768.012	0.32852957
768.198	0.32919181
768.383	0.32978404
768.569	0.33042632
768.754	0.33123429
768.94	0.33190662
769.125	0.33257679
769.311	0.33319568
769.496	0.33389046
769.682	0.33467563
769.867	0.33542507
770.052	0.33609179
770.238	0.33673147
770.423	0.33750287
770.608	0.33823007
770.794	0.33884842
770.979	0.33940456
771.164	0.33999317
771.35	0.3405872
771.535	0.34119973
771.72	0.34170379
771.905	0.34224505
772.09	0.34278079
772.276	0.3434606
772.461	0.34404903
772.646	0.34466288
772.831	0.34539497
773.016	0.34615753
773.201	0.34685582
773.386	0.34764945
773.571	0.34827592
773.756	0.34894489
773.941	0.34963104
774.126	0.35029382
774.311	0.35073139
774.496	0.35125914
774.681	0.35172181
774.866	0.35224379
775.051	0.35275386
775.236	0.35323994
775.421	0.3536127
775.606	0.3541311
775.791	0.35466841
775.976	0.35519371
776.16	0.35565405
776.345	0.35625125
776.53	0.35694962
776.715	0.35765939
776.899	0.35839729
777.084	0.35905271
777.269	0.35979528
777.454	0.36049697
777.638	0.36111363
777.823	0.36159612
778.008	0.36196705
778.192	0.36251765
778.377	0.36300735
778.561	0.36342835
778.746	0.36382113
778.931	0.36428066
779.115	0.36474387
779.3	0.36525441
779.484	0.36561474
779.669	0.36608302
779.853	0.3665429
780.037	0.36703752
780.222	0.36736527
780.406	0.36769878
780.591	0.36810124
780.775	0.36849374
780.959	0.36885014
781.144	0.36917575
781.328	0.36941372
781.512	0.36972633
781.697	0.3700112
781.881	0.37033988
782.065	0.37064783
782.249	0.37078581
782.434	0.37106711
782.618	0.37141337
782.802	0.37178751
782.986	0.37212534
783.17	0.37237246
783.354	0.37273315
783.539	0.37315296
783.723	0.37347979
783.907	0.37389579
784.091	0.37432947
784.275	0.37483141
784.459	0.37539118
784.643	0.37588229
784.827	0.3763465
785.011	0.37679007
785.195	0.37727426
785.379	0.3777109
785.563	0.37813311
785.747	0.37853624
785.93	0.37910208
786.114	0.37956535
786.298	0.37995283
786.482	0.38026719
786.666	0.38065733
786.85	0.38101356
787.033	0.38138872
787.217	0.38168239
787.401	0.38213647
787.585	0.38256146
787.768	0.38314693
787.952	0.38356275
788.136	0.38407778
788.319	0.38453316
788.503	0.38486268
788.687	0.38527512
788.87	0.38580516
789.054	0.3862543
789.237	0.38677213
789.421	0.38735386
789.605	0.38795092
789.788	0.38867333
789.972	0.38940075
790.155	0.39007675
790.338	0.39071171
790.522	0.39136991
790.705	0.39177195
790.889	0.39223928
791.072	0.39273364
791.256	0.39328223
791.439	0.39377012
791.622	0.3943029
791.806	0.39486168
791.989	0.39547495
792.172	0.39610738
792.355	0.39664153
792.539	0.39712286
792.722	0.39766389
792.905	0.39810608
793.088	0.39846648
793.271	0.39905655
793.455	0.39970521
793.638	0.40039418
793.821	0.40103008
794.004	0.40170407
794.187	0.40247589
794.37	0.40326307
794.553	0.40399968
794.736	0.40454415
794.919	0.40502126
795.102	0.40568488
795.285	0.40628885
795.468	0.40674322
795.651	0.40724671
795.834	0.4076836
796.017	0.40829283
796.2	0.40883943
796.383	0.40920879
796.566	0.40972588
796.749	0.41032326
796.931	0.41093755
797.114	0.41153669
797.297	0.41208896
797.48	0.41272625
797.663	0.41344074
797.845	0.41412132
798.028	0.41479233
798.211	0.41530913
798.393	0.41578248
798.576	0.41630431
798.759	0.41668971
798.941	0.41716009
799.124	0.41766506
799.307	0.41813766
799.489	0.41877069
799.672	0.41938028
799.854	0.41979981
800.037	0.42042533
800.219	0.42095888
800.402	0.42136369
800.584	0.42170067
800.767	0.42213953
800.949	0.42258544
801.132	0.42324319
801.314	0.42370425
801.496	0.42416281
801.679	0.42463128
801.861	0.42517735
802.043	0.42552334
802.226	0.42600541
802.408	0.4264339
802.59	0.42693798
802.772	0.42739139
802.955	0.42783208
803.137	0.42824078
803.319	0.42860514
803.501	0.42880735
803.684	0.42901103
803.866	0.42904253
804.048	0.42924394
804.23	0.42941437
804.412	0.42967319
804.594	0.43001362
804.776	0.43055743
804.958	0.43088453
805.14	0.43136046
805.322	0.43162016
805.504	0.43203447
805.686	0.43228692
805.868	0.43260539
806.05	0.4327629
806.232	0.4329939
806.414	0.43332702
806.596	0.43360033
806.778	0.43364352
806.96	0.43396949
807.141	0.43411898
807.323	0.43424202
807.505	0.4342624
807.687	0.43429308
807.869	0.43429036
808.05	0.43436627
808.232	0.43424473
808.414	0.4342957
808.595	0.43439549
808.777	0.43457302
808.959	0.43459653
809.14	0.43475446
809.322	0.43487148
809.504	0.43497274
809.685	0.43509127
809.867	0.43499459
810.048	0.43498189
810.23	0.43506549
810.411	0.43520645
810.593	0.43537789
810.774	0.43555109
810.956	0.43571303
811.137	0.43599418
811.319	0.43629271
811.5	0.43661604
811.681	0.43690579
811.863	0.43728955
812.044	0.43753177
812.225	0.43784079
812.407	0.43797613
812.588	0.43805831
812.769	0.43813757
812.951	0.43822732
813.132	0.43825937
813.313	0.4386056
813.494	0.43862606
813.675	0.43886574
813.857	0.43918419
814.038	0.43951416
814.219	0.43964724
814.4	0.43978166
814.581	0.43996999
814.762	0.44008643
814.943	0.44035654
815.124	0.44048765
815.305	0.44069505
815.486	0.44113193
815.667	0.4416729
815.848	0.44192161
816.029	0.44239943
816.21	0.44285974
816.391	0.44339113
816.572	0.44369184
816.753	0.44405284
816.934	0.44418705
817.115	0.4444724
817.295	0.44482278
817.476	0.44498942
817.657	0.44524699
817.838	0.44572356
818.019	0.44597512
818.199	0.44634368
818.38	0.44669096
818.561	0.44699571
818.741	0.44728893
818.922	0.44753774
819.103	0.44782793
819.283	0.44814955
819.464	0.44863741
819.645	0.4489858
819.825	0.4494141
820.006	0.44979937
820.186	0.45016752
820.367	0.45043496
820.547	0.45067092
820.728	0.45081298
820.908	0.45107114
821.089	0.45136315
821.269	0.45172034
821.45	0.45226289
821.63	0.45254436
821.81	0.45295974
821.991	0.45332851
822.171	0.45373296
822.351	0.45409023
822.532	0.45449261
822.712	0.45480641
822.892	0.45531618
823.072	0.4557711
823.253	0.4563019
823.433	0.45679629
823.613	0.45719824
823.793	0.4576468
823.973	0.45806942
824.154	0.45839694
824.334	0.45875572
824.514	0.45907615
824.694	0.45955005
824.874	0.45988843
825.054	0.46045168
825.234	0.46080606
825.414	0.46109412
825.594	0.46157373
825.774	0.46204
825.954	0.46230909
826.134	0.46272262
826.314	0.46284297
826.494	0.46313306
826.674	0.46333143
826.854	0.46345978
827.033	0.46357157
827.213	0.46389402
827.393	0.46398008
827.573	0.46433844
827.753	0.46460182
827.932	0.46514481
828.112	0.465551
828.292	0.46596269
828.472	0.46605044
828.651	0.46652118
828.831	0.46662061
829.011	0.46683937
829.19	0.46695492
829.37	0.46722814
829.549	0.46737442
829.729	0.46758815
829.909	0.46771482
830.088	0.46803709
830.268	0.46823379
830.447	0.46865041
830.627	0.46897746
830.806	0.46928643
830.986	0.4695062
831.165	0.46981802
831.344	0.47003379
831.524	0.47028093
831.703	0.47031155
831.883	0.47030134
832.062	0.47036355
832.241	0.47058962
832.421	0.47084404
832.6	0.47107048
832.779	0.47130717
832.958	0.47152057
833.138	0.47164948
833.317	0.47207198
833.496	0.47230392
833.675	0.47242935
833.854	0.47280095
834.034	0.47300094
834.213	0.47328238
834.392	0.47376656
834.571	0.47387765
834.75	0.47421574
834.929	0.47435684
835.108	0.47441685
835.287	0.47467571
835.466	0.47476281
835.645	0.47489304
835.824	0.47495848
836.003	0.47504346
836.182	0.47536363
836.361	0.47559472
836.54	0.47573114
836.719	0.47604536
836.897	0.47621001
837.076	0.47643453
837.255	0.47663339
837.434	0.47689701
837.613	0.47699163
837.791	0.47714391
837.97	0.47726702
838.149	0.47727489
838.328	0.47740795
838.506	0.47747069
838.685	0.47751712
838.864	0.47779447
839.042	0.47798306
839.221	0.47830566
839.4	0.47869663
839.578	0.4790615
839.757	0.47924037
839.935	0.47941883
840.114	0.47965519
840.292	0.47976874
840.471	0.47987383
840.649	0.47983718
840.828	0.47979829
841.006	0.48000916
841.185	0.47979258
841.363	0.47974439
841.541	0.47987574
841.72	0.48009091
841.898	0.48034365
842.076	0.48056579
842.255	0.48061171
842.433	0.4810954
842.611	0.48103327
842.789	0.48102335
842.968	0.48095688
843.146	0.48079656
843.324	0.48092848
843.502	0.48102298
843.68	0.48112618
843.859	0.48124561
844.037	0.48121102
844.215	0.48116168
844.393	0.48136526
844.571	0.48132585
844.749	0.48153256
844.927	0.48152261
845.105	0.48161665
845.283	0.48178496
845.461	0.4817831
845.639	0.4818322
845.817	0.48160979
845.995	0.48158445
846.173	0.48152197
846.351	0.48160312
846.529	0.48168374
846.706	0.48182316
846.884	0.48196411
847.062	0.4820996
847.24	0.48200427
847.418	0.4820115
847.595	0.48204916
847.773	0.48206927
847.951	0.48201607
848.129	0.48195543
848.306	0.48223973
848.484	0.48226272
848.662	0.48248448
848.839	0.4826697
849.017	0.48268891
849.194	0.48276031
849.372	0.48263879
849.549	0.48242116
849.727	0.48268745
849.905	0.48261064
850.082	0.48243545
850.26	0.482506
850.437	0.48258278
850.614	0.48277628
850.792	0.48287929
850.969	0.48293671
851.147	0.48304902
851.324	0.48307223
851.501	0.48308107
851.679	0.48299542
851.856	0.48287334
852.033	0.48296701
852.211	0.48275235
852.388	0.48248935
852.565	0.48256986
852.742	0.48260578
852.92	0.48262721
853.097	0.48273088
853.274	0.48249052
853.451	0.48227093
853.628	0.48211404
853.805	0.48178609
853.982	0.48155891
854.159	0.48135792
854.336	0.48132017
854.514	0.4814462
854.691	0.48159808
854.868	0.48192607
855.045	0.48211727
855.221	0.48246977
855.398	0.48261519
855.575	0.4825531
855.752	0.48242338
855.929	0.48243878
856.106	0.48210754
856.283	0.48208038
856.46	0.481856
856.637	0.4819652
856.813	0.48192482
856.99	0.48196285
857.167	0.48203465
857.344	0.48221353
857.52	0.4822049
857.697	0.48188768
857.874	0.48166817
858.05	0.48163434
858.227	0.48154288
858.404	0.48138025
858.58	0.4814709
858.757	0.48134021
858.933	0.48158353
859.11	0.48150803
859.287	0.48117578
859.463	0.48085608
859.64	0.48072441
859.816	0.48036837
859.993	0.48033722
860.169	0.4803382
860.345	0.4803221
860.522	0.48043107
860.698	0.48056286
860.875	0.48043455
861.051	0.48042652
861.227	0.47997526
861.404	0.47962403
861.58	0.47952033
861.756	0.47937298
861.932	0.47934134
862.109	0.47906617
862.285	0.47901725
862.461	0.47938447
862.637	0.47923107
862.813	0.47894961
862.99	0.47867115
863.166	0.47835239
863.342	0.47869308
863.518	0.47824163
863.694	0.47803806
863.87	0.47794221
864.046	0.47791139
864.222	0.47791001
864.398	0.47795355
864.574	0.47739141
864.75	0.47742439
864.926	0.47719168
865.102	0.47708078
865.278	0.47679265
865.454	0.47659919
865.63	0.47622326
865.805	0.47601094
865.981	0.47596223
866.157	0.47572495
866.333	0.47529572
866.509	0.47536338
866.684	0.47537037
866.86	0.47574515
867.036	0.4757822
867.212	0.47554586
867.387	0.47549741
867.563	0.47575
867.739	0.47561372
867.914	0.4754938
868.09	0.47503394
868.265	0.47482858
868.441	0.47471433
868.617	0.47455044
868.792	0.47425444
868.968	0.4738551
869.143	0.47371255
869.319	0.47343282
869.494	0.47292996
869.67	0.47262966
869.845	0.47234519
870.02	0.47205705
870.196	0.47178461
870.371	0.47151892
870.546	0.47116443
870.722	0.47128751
870.897	0.47094848
871.072	0.47059086
871.248	0.47023309
871.423	0.47001042
871.598	0.46978008
871.773	0.46945929
871.949	0.46917924
872.124	0.46934128
872.299	0.46922053
872.474	0.46924636
872.649	0.46910941
872.824	0.46878456
872.999	0.46873284
873.174	0.46867752
873.349	0.46826808
873.524	0.46810955
873.699	0.46777916
873.874	0.4674218
874.049	0.467077
874.224	0.46675926
874.399	0.46630642
874.574	0.46619098
874.749	0.46582039
874.924	0.46541277
875.099	0.46517149
875.274	0.46498196
875.449	0.46490929
875.623	0.46463167
875.798	0.46420403
875.973	0.46408582
876.148	0.46394782
876.322	0.46384914
876.497	0.46360493
876.672	0.46339687
876.846	0.46331393
877.021	0.46306534
877.196	0.46234862
877.37	0.46222735
877.545	0.46211687
877.72	0.4617718
877.894	0.46160482
878.069	0.46119272
878.243	0.46072458
878.418	0.46097503
878.592	0.46050802
878.767	0.46021597
878.941	0.4602145
879.116	0.4598129
879.29	0.45962074
879.464	0.45938413
879.639	0.45873198
879.813	0.45890523
879.987	0.45842291
880.162	0.4578903
880.336	0.45762201
880.51	0.45747543
880.685	0.45749233
880.859	0.45752602
881.033	0.45709641
881.207	0.45698343
881.381	0.45700237
881.556	0.45676179
881.73	0.45618132
881.904	0.45597065
882.078	0.45575529
882.252	0.45527454
882.426	0.45489335
882.6	0.4543676
882.774	0.45403733
882.948	0.45373816
883.122	0.45293347
883.296	0.45248302
883.47	0.45206764
883.644	0.45175178
883.818	0.45121243
883.992	0.45107388
884.166	0.45109366
884.34	0.45128464
884.514	0.45126521
884.687	0.45136496
884.861	0.45108698
885.035	0.45117821
885.209	0.45088041
885.382	0.45057773
885.556	0.45019048
885.73	0.44983573
885.904	0.44945331
886.077	0.44918794
886.251	0.44883758
886.425	0.44855101
886.598	0.44825097
886.772	0.44787618
886.945	0.44735857
887.119	0.44659131
887.292	0.44630498
887.466	0.446189
887.64	0.44570867
887.813	0.44538944
887.986	0.4451022
888.16	0.44512982
888.333	0.44494814
888.507	0.44462496
888.68	0.44403332
888.854	0.44383209
889.027	0.44338435
889.2	0.44317804
889.374	0.44238855
889.547	0.44236183
889.72	0.44207862
889.893	0.44164793
890.067	0.44101027
890.24	0.440366
890.413	0.43990871
890.586	0.43943208
890.759	0.43905785
890.933	0.43857959
891.106	0.43822865
891.279	0.43795523
891.452	0.43772929
891.625	0.4371361
891.798	0.43687788
891.971	0.43646615
892.144	0.43611336
892.317	0.4359107
892.49	0.43564373
892.663	0.43562956
892.836	0.43560308
893.009	0.4354492
893.182	0.43485475
893.355	0.43461546
893.527	0.43404211
893.7	0.43390815
893.873	0.43329108
894.046	0.43256447
894.219	0.43223492
894.391	0.43185409
894.564	0.4313614
894.737	0.43107489
894.91	0.43046362
895.082	0.43007925
895.255	0.42986682
895.428	0.42940368
895.6	0.4290947
895.773	0.42868798
895.945	0.42840134
896.118	0.42807215
896.291	0.42776142
896.463	0.4274497
896.636	0.42703323
896.808	0.42658408
896.981	0.42630027
897.153	0.42582233
897.326	0.425538
897.498	0.42507491
897.67	0.4245582
897.843	0.42423549
898.015	0.42414788
898.187	0.42381023
898.36	0.42314618
898.532	0.42223769
898.704	0.42200203
898.877	0.42151683
899.049	0.42126596
899.221	0.42086364
899.393	0.42043985
899.566	0.42047184
899.738	0.42069845
899.91	0.42048825
900.082	0.42048476
900.254	0.42014814
900.426	0.41986102
900.598	0.4196737
900.77	0.41917662
900.942	0.41869966
901.114	0.41802675
901.286	0.41748846
901.458	0.41686611
901.63	0.41636007
901.802	0.41575784
901.974	0.4152953
902.146	0.41463391
902.318	0.41430274
902.49	0.41392187
902.662	0.4134971
902.834	0.41297721
903.005	0.41288633
903.177	0.41261149
903.349	0.41242094
903.521	0.41193385
903.693	0.41150964
903.864	0.41115443
904.036	0.41092673
904.208	0.4099741
904.379	0.40935011
904.551	0.40895567
904.723	0.40855021
904.894	0.40799048
905.066	0.40759583
905.237	0.40712599
905.409	0.40685991
905.58	0.40671509
905.752	0.40618164
905.923	0.40584613
906.095	0.4054799
906.266	0.40503415
906.438	0.4046578
906.609	0.40436445
906.78	0.40375312
906.952	0.40326819
907.123	0.40254532
907.295	0.40218513
907.466	0.40191781
907.637	0.40146163
907.808	0.40088995
907.98	0.40032191
908.151	0.4000805
908.322	0.39998424
908.493	0.39930837
908.665	0.39854786
908.836	0.39789461
909.007	0.39748012
909.178	0.3972105
909.349	0.39673655
909.52	0.39649911
909.691	0.39614479
909.862	0.39585507
910.033	0.39547406
910.204	0.3951361
910.375	0.39474362
910.546	0.39441693
910.717	0.39359996
910.888	0.39318279
911.059	0.39274614
911.23	0.39236548
911.401	0.3916871
911.572	0.39113423
911.742	0.39033341
911.913	0.38999391
912.084	0.38950619
912.255	0.38921002
912.426	0.38878505
912.596	0.38846245
912.767	0.38826297
912.938	0.38799652
913.108	0.38754944
913.279	0.38706407
913.45	0.38640001
913.62	0.38597054
913.791	0.38569545
913.962	0.3850414
914.132	0.38454168
914.303	0.38399321
914.473	0.38376323
914.644	0.38334939
914.814	0.38281206
914.985	0.38234957
915.155	0.38202401
915.326	0.38160814
915.496	0.38124756
915.666	0.38081726
915.837	0.3806094
916.007	0.379937
916.177	0.37902157
916.348	0.37837783
916.518	0.37779559
916.688	0.37730501
916.858	0.37665761
917.029	0.37577833
917.199	0.37538702
917.369	0.3753516
917.539	0.3752347
917.709	0.37479672
917.88	0.37419448
918.05	0.37363638
918.22	0.37352505
918.39	0.37313018
918.56	0.37272771
918.73	0.37223367
918.9	0.37194043
919.07	0.37169532
919.24	0.37161426
919.41	0.37131778
919.58	0.3707405
919.75	0.37030583
919.92	0.36944013
920.09	0.36909321
920.26	0.36865327
920.429	0.3681249
920.599	0.3675704
920.769	0.36751316
920.939	0.36690163
921.109	0.36683169
921.278	0.36643083
921.448	0.36613903
921.618	0.36595717
921.787	0.36570703
921.957	0.36527881
922.127	0.36474818
922.296	0.36448324
922.466	0.36392687
922.636	0.36354095
922.805	0.3629519
922.975	0.3622923
923.144	0.36176502
923.314	0.36128956
923.483	0.36049936
923.653	0.35994435
923.822	0.35928331
923.992	0.35869569
924.161	0.35821333
924.331	0.35760747
924.5	0.35717571
924.669	0.35667103
924.839	0.35607915
925.008	0.35542969
925.177	0.35466254
925.347	0.35411083
925.516	0.35385609
925.685	0.35361586
925.854	0.35335738
926.023	0.35326759
926.193	0.35319404
926.362	0.35297854
926.531	0.35271913
926.7	0.35193378
926.869	0.35140711
927.038	0.35057213
927.207	0.3496872
927.376	0.34873314
927.545	0.34819142
927.715	0.34733418
927.884	0.34693975
928.052	0.34655668
928.221	0.34595432
928.39	0.34542049
928.559	0.34501827
928.728	0.34453878
928.897	0.34449016
929.066	0.34422666
929.235	0.34327908
929.404	0.34288297
929.572	0.34226534
929.741	0.3419508
929.91	0.34136451
930.079	0.34053411
930.247	0.33991959
930.416	0.33989724
930.585	0.33962464
930.753	0.33955241
930.922	0.33909606
931.091	0.33865373
931.259	0.33825577
931.428	0.33793331
931.596	0.33727421
931.765	0.33694251
931.934	0.33656228
932.102	0.33557633
932.27	0.33514646
932.439	0.33448255
932.607	0.33385623
932.776	0.33389776
932.944	0.33330927
933.113	0.3329945
933.281	0.33284681
933.449	0.33211307
933.618	0.33154187
933.786	0.33150901
933.954	0.33053963
934.123	0.33016505
934.291	0.32942312
934.459	0.32918862
934.627	0.32917306
934.795	0.32914202
934.964	0.32824204
935.132	0.32727303
935.3	0.32630748
935.468	0.32575701
935.636	0.3251674
935.804	0.32415439
935.972	0.32343444
936.14	0.32278331
936.308	0.32267206
936.476	0.32286075
936.644	0.32209334
936.812	0.32142216
936.98	0.32108259
937.148	0.32025763
937.316	0.31893811
937.484	0.31889302
937.652	0.31743793
937.82	0.31793816
937.987	0.31721954
938.155	0.3165359
938.323	0.31640178
938.491	0.31605052
938.658	0.31528528
938.826	0.31553103
938.994	0.3141441
939.162	0.31372583
939.329	0.31403487
939.497	0.31400969
939.665	0.31401906
939.832	0.31437194
940	0.31387082
940.167	0.31339902
940.335	0.31230481
940.502	0.31110976
940.67	0.31010667
940.837	0.31067122
941.005	0.30948049
941.172	0.30882112
941.34	0.30829978
941.507	0.309476
941.674	0.30984211
941.842	0.30918454
942.009	0.3087222
942.177	0.30660606
942.344	0.30712067
942.511	0.30584314
942.678	0.30480194
942.846	0.30290092
943.013	0.30227969
943.18	0.30087819
943.347	0.3015494
943.514	0.29966714
943.682	0.30181239
943.849	0.30100888
944.016	0.30073273
944.183	0.300762
944.35	0.30053758
944.517	0.30238745
944.684	0.30305185
944.851	0.2980262
945.018	0.29747803
945.185	0.29767911
945.352	0.29617505
945.519	0.29508223
945.686	0.29207812
945.853	0.2927351
946.02	0.29280334
946.187	0.29197361
946.353	0.29224054
946.52	0.29184421
946.687	0.29075526
946.854	0.291008
947.021	0.28854348
947.187	0.28896068
947.354	0.28726623
947.521	0.28621854
947.687	0.28555753
947.854	0.28659937
948.021	0.28410303
948.187	0.28304032
948.354	0.2827178
948.52	0.28309833
948.687	0.28319583
948.854	0.2836556
949.02	0.28133388
949.187	0.28185081
949.353	0.28234703
949.52	0.28091574
949.686	0.28041676
949.852	0.2795616
950.019	0.2794258
950.185	0.28033497
950.352	0.28019174
950.518	0.27922086
950.684	0.28005016
950.851	0.27951907
951.017	0.2781425
951.183	0.27710823
951.349	0.27633222
951.516	0.27442849
951.682	0.27388035
951.848	0.27249337
952.014	0.27197229
952.18	0.27169819
952.346	0.27057524
952.512	0.26988894
952.679	0.2706817
952.845	0.26984797
953.011	0.26956916
953.177	0.26907791
953.343	0.26784062
953.509	0.26825704
953.675	0.26771677
953.841	0.2666287
954.007	0.26690016
954.172	0.26730401
954.338	0.26655301
954.504	0.26609501
954.67	0.26459533
954.836	0.26473058
955.002	0.26437248
955.167	0.26384969
955.333	0.26179522
955.499	0.26157407
955.665	0.26088213
955.83	0.26093368
955.996	0.26039114
956.162	0.25958207
956.327	0.25871713
956.493	0.25909871
956.659	0.25928788
956.824	0.25949808
956.99	0.25837633
957.155	0.25796597
957.321	0.25800036
957.486	0.25789511
957.652	0.25753486
957.817	0.2573047
957.983	0.2570355
958.148	0.25705117
958.314	0.25571967
958.479	0.2542823
958.644	0.25350978
958.81	0.25372892
958.975	0.25272046
959.14	0.25202873
959.306	0.25135917
959.471	0.25106421
959.636	0.25056288
959.801	0.25083949
959.967	0.24981837
960.132	0.24926275
960.297	0.24850206
960.462	0.24879659
960.627	0.2485119
960.792	0.24841972
960.957	0.24745949
961.123	0.24715247
961.288	0.24671757
961.453	0.24698052
961.618	0.24644802
961.783	0.24622048
961.948	0.24558072
962.113	0.24471595
962.277	0.24384982
962.442	0.2435995
962.607	0.24325502
962.772	0.2423209
962.937	0.24143418
963.102	0.24122183
963.267	0.24114799
963.431	0.24079201
963.596	0.23979773
963.761	0.23854456
963.926	0.23806729
964.09	0.23809766
964.255	0.23830314
964.42	0.23825472
964.584	0.23839023
964.749	0.23851987
964.914	0.23848639
965.078	0.23780071
965.243	0.23719745
965.407	0.23626802
965.572	0.2353564
965.736	0.23452555
965.901	0.23441896
966.065	0.23482162
966.23	0.23457945
966.394	0.23458603
966.559	0.23435269
966.723	0.23384637
966.887	0.23361104
967.052	0.23298254
967.216	0.23175319
967.38	0.23109519
967.545	0.23052878
967.709	0.2307633
967.873	0.23081909
968.037	0.23037755
968.202	0.22991691
968.366	0.22975303
968.53	0.22987941
968.694	0.22917305
968.858	0.22812034
969.022	0.22722301
969.187	0.22627708
969.351	0.22570481
969.515	0.22559109
969.679	0.22490267
969.843	0.22433424
970.007	0.2241595
970.171	0.22448792
970.335	0.22426833
970.499	0.22401915
970.662	0.22327225
970.826	0.2233151
970.99	0.22355859
971.154	0.22309816
971.318	0.22225472
971.482	0.22172149
971.645	0.22118392
971.809	0.22138693
971.973	0.22074252
972.137	0.21994793
972.3	0.2195054
972.464	0.21924107
972.628	0.21958063
972.791	0.2195396
972.955	0.21887028
973.119	0.21849064
973.282	0.21812386
973.446	0.21764914
973.609	0.2169149
973.773	0.21617953
973.936	0.21550286
974.1	0.21479305
974.263	0.21443647
974.427	0.21410813
974.59	0.21369285
974.754	0.21357002
974.917	0.21337279
975.08	0.21322268
975.244	0.21244718
975.407	0.21205098
975.57	0.21159098
975.734	0.21134367
975.897	0.21094175
976.06	0.21040633
976.223	0.20982297
976.387	0.21044521
976.55	0.21016735
976.713	0.2097821
976.876	0.20949626
977.039	0.20876111
977.202	0.20823797
977.365	0.20727292
977.528	0.20630712
977.692	0.20581506
977.855	0.20518746
978.018	0.20423751
978.181	0.20389674
978.344	0.2037035
978.506	0.20375936
978.669	0.20324906
978.832	0.20214707
978.995	0.20195
979.158	0.20207444
979.321	0.20199995
979.484	0.20119821
979.646	0.2009976
979.809	0.20077501
979.972	0.20088224
980.135	0.20034712
980.297	0.19977681
980.46	0.19906101
980.623	0.19923032
980.786	0.19879894
980.948	0.19833006
981.111	0.19779414
981.273	0.19758132
981.436	0.19715154
981.599	0.19733778
981.761	0.19670653
981.924	0.19634979
982.086	0.19602852
982.249	0.19610883
982.411	0.19564668
982.573	0.19560134
982.736	0.19577201
982.898	0.19542773
983.061	0.19527235
983.223	0.19494845
983.385	0.19414928
983.548	0.19401148
983.71	0.19359366
983.872	0.19230388
984.034	0.19181213
984.197	0.19117812
984.359	0.19062867
984.521	0.19086777
984.683	0.19043582
984.845	0.19033214
985.008	0.18994434
985.17	0.19021361
985.332	0.19033194
985.494	0.18983673
985.656	0.18947544
985.818	0.18901231
985.98	0.18877747
986.142	0.18825546
986.304	0.18742131
986.466	0.18630781
986.628	0.18614074
986.79	0.18537641
986.952	0.18510957
987.113	0.18417388
987.275	0.18384962
987.437	0.18350548
987.599	0.18338331
987.761	0.18313664
987.922	0.18293682
988.084	0.18255903
988.246	0.18251517
988.408	0.18280368
988.569	0.18235408
988.731	0.18251273
988.893	0.18203755
989.054	0.18228893
989.216	0.18204526
989.377	0.18084906
989.539	0.17979242
989.701	0.17922497
989.862	0.17822632
990.024	0.17732634
990.185	0.17589892
990.347	0.17587065
990.508	0.17570906
990.669	0.17606766
990.831	0.17581159
990.992	0.17605925
991.154	0.17610747
991.315	0.17702797
991.476	0.17624931
991.638	0.17577987
991.799	0.17486846
991.96	0.17483758
992.121	0.17404605
992.283	0.17346245
992.444	0.1723061
992.605	0.17195487
992.766	0.17224904
992.927	0.1718596
993.088	0.1712974
993.249	0.1710538
993.41	0.17082699
993.572	0.1707281
993.733	0.17047671
993.894	0.16984967
994.055	0.16911601
994.216	0.16881257
994.376	0.16765431
994.537	0.16790017
994.698	0.16752763
994.859	0.16703415
995.02	0.16693123
995.181	0.16609814
995.342	0.16628971
995.503	0.1668169
995.663	0.16627745
995.824	0.1655131
995.985	0.16611455
996.146	0.16581689
996.306	0.16671737
996.467	0.166509
996.628	0.16674902
996.788	0.16642633
996.949	0.16683753
997.11	0.1658156
997.27	0.16507034
997.431	0.16436918
997.591	0.16253701
997.752	0.16096011
997.912	0.16081426
998.073	0.16011473
998.233	0.15983413
998.394	0.15962052
998.554	0.15989007
998.714	0.16048469
998.875	0.16080342
999.035	0.16012734
999.196	0.15995595
999.356	0.15994734
999.516	0.16047397
999.676	0.16026223
999.837	0.15989489
999.997	0.1595696
1000.157	0.15897165
1000.317	0.15748472
1000.477	0.15605155
1000.638	0.15472376
1000.798	0.15461045
1000.958	0.15412079
1001.118	0.15366596
1001.278	0.15368144
1001.438	0.15440142
1001.598	0.15529771
1001.758	0.15558354
1001.918	0.1547982
1002.078	0.15398343
1002.238	0.1538994
1002.398	0.1541978
1002.558	0.15328856
1002.718	0.15281761
1002.878	0.1521862
1003.037	0.15035218
1003.197	0.15040414
1003.357	0.14914056
1003.517	0.14866067
1003.677	0.14754784
1003.836	0.14699358
1003.996	0.14664499
1004.156	0.14717933
1004.315	0.14781121
1004.475	0.14933205
1004.635	0.14938509
1004.794	0.15022199
1004.954	0.15013603
1005.114	0.14956589
1005.273	0.15006917
1005.433	0.14868574
1005.592	0.1480887
1005.752	0.14736864
1005.911	0.14783828
1006.071	0.14739568
1006.23	0.14723136
1006.389	0.14623402
1006.549	0.14649313
1006.708	0.14480552
1006.868	0.14344278
1007.027	0.14294788
1007.186	0.14248552
1007.345	0.14275772
1007.505	0.14354478
1007.664	0.14324507
1007.823	0.14365699
1007.982	0.14479908
1008.142	0.14494316
1008.301	0.14501334
1008.46	0.14381908
1008.619	0.14199674
1008.778	0.14147319
1008.937	0.14066518
1009.096	0.14022371
1009.255	0.13940357
1009.414	0.13715935
1009.573	0.13738903
1009.732	0.13914904
1009.891	0.13949431
1010.05	0.14071131
1010.209	0.14021432
1010.368	0.13979482
1010.527	0.14128414
1010.686	0.14200534
1010.845	0.13941298
1011.003	0.13856122
1011.162	0.13767801
1011.321	0.13584014
1011.48	0.13622038
1011.638	0.13660314
1011.797	0.13648006
1011.956	0.13751041
1012.115	0.13809116
1012.273	0.13710233
1012.432	0.13837147
1012.59	0.13660241
1012.749	0.1362474
1012.908	0.13430168
1013.066	0.13386492
1013.225	0.13313466
1013.383	0.13382793
1013.542	0.13299962
1013.7	0.133652
1013.859	0.13308736
1014.017	0.13504954
1014.175	0.13451109
1014.334	0.13410816
1014.492	0.13426997
1014.65	0.13401322
1014.809	0.13350227
1014.967	0.13248472
1015.125	0.13125647
1015.284	0.13229387
1015.442	0.13248363
1015.6	0.13086611
1015.758	0.13075323
1015.916	0.13054667
1016.075	0.13066567
1016.233	0.13060541
1016.391	0.13141884
1016.549	0.13165875
1016.707	0.13173119
1016.865	0.13145896
1017.023	0.1310324
1017.181	0.13219834
1017.339	0.13214165
1017.497	0.12968937
1017.655	0.12928408
1017.813	0.12919146
1017.971	0.13037324
1018.129	0.13105348
1018.286	0.13048711
1018.444	0.12831233
1018.602	0.12951699
1018.76	0.12976743
1018.918	0.1292676
1019.075	0.12837595
1019.233	0.12780891
1019.391	0.12706974
1019.549	0.12875168
1019.706	0.12736014
1019.864	0.12559949
1020.022	0.12641707
1020.179	0.12495171
1020.337	0.12602987
1020.494	0.12515086
1020.652	0.12299039
1020.809	0.12260002
1020.967	0.12214426
1021.124	0.1218012
1021.282	0.1240867
1021.439	0.12266291
1021.597	0.12321102
1021.754	0.12432183
1021.911	0.12662674
1022.069	0.12666085
1022.226	0.12596926
1022.384	0.12502015
1022.541	0.12409862
1022.698	0.12362349
1022.855	0.12438797
1023.013	0.12292304
1023.17	0.1235153
1023.327	0.12465449
1023.484	0.12555368
1023.641	0.12819536
1023.798	0.13012522
1023.956	0.13028591
1024.113	0.12955034
1024.27	0.12753244
1024.427	0.12841435
1024.584	0.12723566
1024.741	0.12501544
1024.898	0.12328093
1025.055	0.12091348
1025.212	0.11981986
1025.369	0.11933964
1025.525	0.11825212
1025.682	0.11983731
1025.839	0.1192371
1025.996	0.12059687
1026.153	0.12237644
1026.31	0.12388246
1026.466	0.12632315
1026.623	0.12522506
1026.78	0.12245145
1026.937	0.12524109
1027.093	0.12372534
1027.25	0.12787147
1027.407	0.12646948
1027.563	0.12613382
1027.72	0.12434805
1027.876	0.12456079
1028.033	0.12259104
1028.19	0.12240764
1028.346	0.11704996
1028.503	0.11849272
1028.659	0.11894344
1028.816	0.12134464
1028.972	0.12167627
1029.128	0.12221818
1029.285	0.12215142
1029.441	0.12243816
1029.598	0.1189844
1029.754	0.11811101
1029.91	0.11873846
1030.067	0.11946513
1030.223	0.12052861
1030.379	0.12026514
1030.535	0.12278962
1030.691	0.12597531
1030.848	0.1297
1031.004	0.12927871
1031.16	0.12860673
1031.316	0.12733107
1031.472	0.12751149
1031.628	0.12335983
1031.784	0.12279383
1031.94	0.12243067
1032.096	0.12590662
1032.252	0.12647639
1032.408	0.12884258
1032.564	0.1300143
1032.72	0.13193703
1032.876	0.13103566
1033.032	0.12873159
1033.188	0.12590624
1033.344	0.12734536
1033.5	0.12707496
1033.655	0.12693386
1033.811	0.12918023
1033.967	0.1332694
