Data from 1_mm_pl_80pc_Absorbance__0__16-39-39-844.txt Node

Date: Wed Mar 08 16:39:39 CET 2023
User: Ange
Spectrometer: FLMT08341
Trigger mode: 0
Integration Time (sec): 1.000000E-2
Scans to average: 400
Electric dark correction enabled: true
Nonlinearity correction enabled: false
Boxcar width: 3
XAxis mode: Wavelengths
Number of Pixels in Spectrum: 3648
>>>>>Begin Spectral Data<<<<<
345.271	0.02943846
345.487	0.03872716
345.704	0.03860966
345.921	0.05205738
346.137	0.06233668
346.354	0.05892218
346.571	0.12396576
346.787	0.22643696
347.004	-0.13511639
347.22	-0.02288536
347.437	0.09165834
347.653	0.12532185
347.87	-0.0357166
348.086	-0.14034168
348.303	0.49095196
348.519	0.2839705
348.736	0.30511917
348.952	0.30988313
349.169	0.32072634
349.385	0.33749409
349.601	0.3351094
349.818	0.32969506
350.034	0.32576071
350.251	0.32333968
350.467	0.32604321
350.683	0.31659279
350.9	0.31635893
351.116	0.31490013
351.332	0.31340068
351.549	0.32328149
351.765	0.32982995
351.981	0.33414638
352.197	0.3459686
352.414	0.35287357
352.63	0.35392044
352.846	0.36435524
353.062	0.35685509
353.278	0.35202146
353.495	0.36107907
353.711	0.3617437
353.927	0.36598769
354.143	0.37112555
354.359	0.36616603
354.575	0.36520779
354.792	0.37585441
355.008	0.36635764
355.224	0.36134382
355.44	0.3565807
355.656	0.35281291
355.872	0.35678559
356.088	0.37370966
356.304	0.37281489
356.52	0.37508389
356.736	0.3811824
356.952	0.3843425
357.168	0.38773897
357.384	0.38975499
357.6	0.37833751
357.816	0.38449407
358.032	0.39032686
358.248	0.39672508
358.464	0.39741576
358.679	0.39797237
358.895	0.39852839
359.111	0.40387214
359.327	0.39707618
359.543	0.39809747
359.759	0.40170147
359.974	0.40245139
360.19	0.40413078
360.406	0.40431986
360.622	0.4042222
360.838	0.40389167
361.053	0.40508273
361.269	0.40558315
361.485	0.40705222
361.701	0.41076212
361.916	0.40824061
362.132	0.40758457
362.348	0.41120518
362.563	0.41456249
362.779	0.41139612
362.995	0.41400196
363.21	0.41709536
363.426	0.42012313
363.641	0.421415
363.857	0.42400076
364.073	0.42066085
364.288	0.41996343
364.504	0.42638911
364.719	0.42595505
364.935	0.42540113
365.15	0.42634276
365.366	0.42899161
365.581	0.43437216
365.797	0.43596833
366.012	0.43033738
366.228	0.42717106
366.443	0.43374863
366.658	0.43576352
366.874	0.43261528
367.089	0.43445552
367.305	0.4374663
367.52	0.43998982
367.735	0.44272972
367.951	0.44032721
368.166	0.44277842
368.381	0.44906674
368.597	0.44697142
368.812	0.45097365
369.027	0.45440829
369.243	0.45677898
369.458	0.46481467
369.673	0.46511108
369.888	0.46571496
370.104	0.46603679
370.319	0.46724372
370.534	0.4648939
370.749	0.46540875
370.964	0.46500755
371.179	0.46499178
371.395	0.46269723
371.61	0.46459668
371.825	0.45827759
372.04	0.46041979
372.255	0.46013797
372.47	0.45738217
372.685	0.45562707
372.9	0.45498814
373.115	0.45357732
373.33	0.45912886
373.545	0.45853605
373.76	0.45914176
373.975	0.45794002
374.19	0.4578927
374.405	0.46047641
374.62	0.46605104
374.835	0.46903739
375.05	0.47185417
375.265	0.47383957
375.48	0.4762166
375.695	0.48496836
375.91	0.48300507
376.125	0.47890424
376.339	0.47392437
376.554	0.47418774
376.769	0.47466189
376.984	0.47476848
377.199	0.47428325
377.414	0.47421166
377.628	0.48056339
377.843	0.48446425
378.058	0.48549041
378.273	0.48823849
378.487	0.4903826
378.702	0.49063682
378.917	0.49224038
379.131	0.48804393
379.346	0.48367255
379.561	0.48151793
379.775	0.47809821
379.99	0.47437531
380.205	0.46970654
380.419	0.46786544
380.634	0.4635672
380.848	0.46771534
381.063	0.4698401
381.278	0.47458261
381.492	0.47295366
381.707	0.47835588
381.921	0.47938977
382.136	0.48560491
382.35	0.48328041
382.565	0.48036562
382.779	0.47906307
382.994	0.48046672
383.208	0.47719245
383.422	0.48063379
383.637	0.47976376
383.851	0.48316471
384.066	0.48592243
384.28	0.48742012
384.494	0.48925477
384.709	0.49152235
384.923	0.49042774
385.137	0.48758375
385.352	0.48587698
385.566	0.48688309
385.78	0.48551352
385.995	0.48426517
386.209	0.48161965
386.423	0.48263595
386.637	0.48475951
386.852	0.48266563
387.066	0.48142109
387.28	0.47969345
387.494	0.48193638
387.708	0.48381523
387.923	0.48216981
388.137	0.48319924
388.351	0.48537999
388.565	0.48629268
388.779	0.48765664
388.993	0.49009807
389.207	0.49050234
389.421	0.49274143
389.635	0.49164531
389.85	0.49116185
390.064	0.49158832
390.278	0.49144608
390.492	0.49207044
390.706	0.49083086
390.92	0.49041073
391.134	0.49220777
391.348	0.49559479
391.561	0.49386028
391.775	0.49275827
391.989	0.48958332
392.203	0.49123647
392.417	0.4911414
392.631	0.49212199
392.845	0.48883605
393.059	0.49134981
393.273	0.49167143
393.486	0.48996379
393.7	0.48697706
393.914	0.48774808
394.128	0.48626589
394.342	0.48614932
394.555	0.48193199
394.769	0.48133539
394.983	0.48279355
395.197	0.48477426
395.41	0.48367615
395.624	0.48391579
395.838	0.48370977
396.051	0.4877114
396.265	0.48676227
396.479	0.48724774
396.692	0.48699451
396.906	0.485516
397.12	0.48429524
397.333	0.48500213
397.547	0.48322723
397.76	0.4845188
397.974	0.48384504
398.187	0.48377581
398.401	0.48574614
398.614	0.48634528
398.828	0.48581955
399.041	0.4858232
399.255	0.48534427
399.468	0.48449399
399.682	0.48412167
399.895	0.48395902
400.109	0.48229414
400.322	0.48147338
400.536	0.47882588
400.749	0.47958896
400.962	0.4800024
401.176	0.47865196
401.389	0.47663668
401.602	0.47481431
401.816	0.47530062
402.029	0.47683515
402.242	0.4755597
402.456	0.47489105
402.669	0.47399271
402.882	0.47238102
403.095	0.47431853
403.309	0.47338345
403.522	0.47272423
403.735	0.47113528
403.948	0.47049206
404.161	0.47327249
404.375	0.47377808
404.588	0.47300568
404.801	0.47274242
405.014	0.47149958
405.227	0.47292158
405.44	0.47323905
405.653	0.47142803
405.866	0.46984033
406.079	0.4690443
406.293	0.46861409
406.506	0.46844893
406.719	0.4668719
406.932	0.46540624
407.145	0.46395076
407.358	0.46564734
407.571	0.46385925
407.784	0.46305236
407.996	0.4631138
408.209	0.46201671
408.422	0.46093794
408.635	0.46066944
408.848	0.45986074
409.061	0.45836351
409.274	0.45725472
409.487	0.45568907
409.7	0.4551245
409.912	0.45521919
410.125	0.45479755
410.338	0.45367783
410.551	0.4536079
410.764	0.45312771
410.976	0.45280606
411.189	0.45259448
411.402	0.45141908
411.615	0.45124018
411.827	0.45038662
412.04	0.45050743
412.253	0.44979304
412.465	0.44892253
412.678	0.44747323
412.891	0.44713161
413.103	0.44412563
413.316	0.44287858
413.529	0.44268718
413.741	0.44292162
413.954	0.44227371
414.166	0.44232328
414.379	0.4410715
414.591	0.44190659
414.804	0.44118721
415.016	0.44026251
415.229	0.43849227
415.441	0.43710717
415.654	0.43669956
415.866	0.43635436
416.079	0.43561131
416.291	0.4346638
416.504	0.43472174
416.716	0.43411908
416.928	0.43378235
417.141	0.43222531
417.353	0.43184626
417.566	0.42972271
417.778	0.42928117
417.99	0.42636502
418.203	0.42473315
418.415	0.42401189
418.627	0.42367271
418.839	0.42251151
419.052	0.42334653
419.264	0.42267908
419.476	0.42295915
419.688	0.4229608
419.901	0.42208628
420.113	0.42087448
420.325	0.41967774
420.537	0.41804221
420.749	0.41760619
420.961	0.41683742
421.174	0.41578263
421.386	0.41445604
421.598	0.41305094
421.81	0.41208396
422.022	0.41106949
422.234	0.40978018
422.446	0.40850976
422.658	0.40767703
422.87	0.40714598
423.082	0.40674051
423.294	0.40608404
423.506	0.40555745
423.718	0.40458272
423.93	0.40348163
424.142	0.40228336
424.354	0.40097253
424.566	0.39984456
424.778	0.39891933
424.99	0.39790315
425.202	0.39645369
425.414	0.39566185
425.625	0.39503926
425.837	0.3936359
426.049	0.39332461
426.261	0.39216558
426.473	0.39050675
426.684	0.38986253
426.896	0.38925048
427.108	0.38770965
427.32	0.3873084
427.531	0.3857351
427.743	0.38464803
427.955	0.38464541
428.167	0.3833232
428.378	0.38198932
428.59	0.38122765
428.802	0.38033006
429.013	0.37926536
429.225	0.37839946
429.436	0.37697775
429.648	0.37641927
429.86	0.37595256
430.071	0.37507627
430.283	0.37439974
430.494	0.37340166
430.706	0.37216605
430.917	0.37105257
431.129	0.37014862
431.34	0.36868145
431.552	0.36789339
431.763	0.36655296
431.975	0.36581367
432.186	0.36486777
432.398	0.36375417
432.609	0.36181708
432.821	0.36098504
433.032	0.35961688
433.243	0.35846378
433.455	0.35736003
433.666	0.35640516
433.877	0.35589473
434.089	0.35497987
434.3	0.35379058
434.511	0.35243358
434.723	0.35119507
434.934	0.34962417
435.145	0.34829281
435.356	0.34673466
435.568	0.34566557
435.779	0.34442071
435.99	0.34311457
436.201	0.34216546
436.412	0.34114513
436.624	0.34038903
436.835	0.33961116
437.046	0.33904792
437.257	0.33792994
437.468	0.33778932
437.679	0.33709354
437.89	0.33634943
438.101	0.33568597
438.312	0.33477519
438.523	0.33355887
438.734	0.33264629
438.945	0.33130063
439.156	0.32963756
439.367	0.32861595
439.578	0.32755579
439.789	0.3259785
440	0.3251103
440.211	0.32399702
440.422	0.32300888
440.633	0.3226197
440.844	0.32144278
441.055	0.32017549
441.266	0.31971019
441.477	0.3185207
441.687	0.3175042
441.898	0.31652667
442.109	0.31508593
442.32	0.314118
442.531	0.31270331
442.741	0.31107716
442.952	0.30990011
443.163	0.30902161
443.374	0.30778445
443.584	0.30678942
443.795	0.30568497
444.006	0.30494856
444.216	0.30398314
444.427	0.30271769
444.638	0.30144905
444.848	0.30050487
445.059	0.29945557
445.27	0.29832073
445.48	0.29712989
445.691	0.29611208
445.901	0.295428
446.112	0.29452433
446.323	0.29320758
446.533	0.29228068
446.744	0.29119005
446.954	0.29007035
447.165	0.28899054
447.375	0.28801087
447.586	0.28724746
447.796	0.28661213
448.006	0.28547271
448.217	0.28485749
448.427	0.28394584
448.638	0.28294909
448.848	0.28175603
449.058	0.2806049
449.269	0.27951405
449.479	0.27873938
449.689	0.27768108
449.9	0.2768856
450.11	0.27599034
450.32	0.27535442
450.531	0.27438273
450.741	0.27332022
450.951	0.27233073
451.161	0.27114945
451.372	0.27019281
451.582	0.26970924
451.792	0.26868087
452.002	0.26775147
452.212	0.26686279
452.422	0.26604069
452.633	0.26541948
452.843	0.26467579
453.053	0.26331524
453.263	0.26235092
453.473	0.261463
453.683	0.26084201
453.893	0.25965782
454.103	0.25887701
454.313	0.25800153
454.523	0.25733812
454.733	0.25663535
454.943	0.25593154
455.153	0.25507939
455.363	0.2544162
455.573	0.25340705
455.783	0.25253355
455.993	0.25151663
456.203	0.25090383
456.413	0.24997683
456.623	0.24900548
456.833	0.24859307
457.042	0.24796681
457.252	0.24721881
457.462	0.24647296
457.672	0.24575924
457.882	0.24516715
458.091	0.24459548
458.301	0.24350029
458.511	0.24284882
458.721	0.24238502
458.931	0.2417953
459.14	0.24106929
459.35	0.24058996
459.56	0.24009866
459.769	0.23981792
459.979	0.23919755
460.189	0.23843156
460.398	0.23799178
460.608	0.23759259
460.817	0.23692016
461.027	0.23624709
461.237	0.23555735
461.446	0.23505912
461.656	0.23456728
461.865	0.23392905
462.075	0.2331923
462.284	0.23285413
462.494	0.2323217
462.703	0.23171078
462.913	0.23121847
463.122	0.23073385
463.332	0.2302695
463.541	0.22998934
463.751	0.22947083
463.96	0.22913615
464.169	0.22890873
464.379	0.22863053
464.588	0.22835233
464.797	0.22811065
465.007	0.22786266
465.216	0.22759778
465.425	0.22720348
465.635	0.22687415
465.844	0.2264615
466.053	0.22625806
466.263	0.22610143
466.472	0.22555813
466.681	0.2253014
466.89	0.22508069
467.099	0.22489242
467.309	0.22474097
467.518	0.22455703
467.727	0.22424686
467.936	0.22426829
468.145	0.22403757
468.354	0.22398852
468.563	0.22373082
468.772	0.22339584
468.982	0.22296869
469.191	0.22293618
469.4	0.22270942
469.609	0.2226776
469.818	0.22264783
470.027	0.2225783
470.236	0.22256889
470.445	0.22262479
470.654	0.22252914
470.863	0.22237206
471.072	0.22222452
471.28	0.22204669
471.489	0.22201371
471.698	0.22195379
471.907	0.22197377
472.116	0.22192086
472.325	0.22200823
472.534	0.22208585
472.743	0.22199076
472.951	0.22225443
473.16	0.2224856
473.369	0.22255714
473.578	0.22273355
473.786	0.22287071
473.995	0.22291507
474.204	0.22314916
474.413	0.22306684
474.621	0.22315358
474.83	0.22344807
475.039	0.22349953
475.247	0.22365912
475.456	0.22390742
475.665	0.22406621
475.873	0.22430803
476.082	0.22451113
476.291	0.22464382
476.499	0.22490985
476.708	0.22510429
476.916	0.22534149
477.125	0.22570737
477.333	0.22598853
477.542	0.22624714
477.75	0.22646605
477.959	0.22682303
478.167	0.22720437
478.376	0.22744657
478.584	0.22782669
478.793	0.22814907
479.001	0.22849196
479.209	0.22885031
479.418	0.22926313
479.626	0.22970813
479.834	0.23019786
480.043	0.23057384
480.251	0.23098753
480.459	0.23149026
480.668	0.23194604
480.876	0.23235901
481.084	0.23272357
481.293	0.23327081
481.501	0.23376833
481.709	0.23437187
481.917	0.23490248
482.125	0.23541284
482.334	0.23586549
482.542	0.2364172
482.75	0.23682875
482.958	0.23744632
483.166	0.23806517
483.374	0.23861593
483.583	0.23923778
483.791	0.23990662
483.999	0.24055602
484.207	0.24129211
484.415	0.2418655
484.623	0.24242202
484.831	0.24301077
485.039	0.24359423
485.247	0.2442727
485.455	0.24492481
485.663	0.2455406
485.871	0.24621003
486.079	0.24690057
486.287	0.24763345
486.495	0.24841491
486.702	0.2491317
486.91	0.24993336
487.118	0.25066634
487.326	0.25139668
487.534	0.25211154
487.742	0.25302359
487.95	0.25386034
488.157	0.25473215
488.365	0.25553639
488.573	0.25646892
488.781	0.25745158
488.988	0.25843919
489.196	0.25929826
489.404	0.26024146
489.612	0.2611759
489.819	0.26211021
490.027	0.26304213
490.235	0.26389275
490.442	0.26488427
490.65	0.26572627
490.857	0.26661075
491.065	0.26741503
491.273	0.26833432
491.48	0.26922608
491.688	0.27010046
491.895	0.27105366
492.103	0.27215316
492.31	0.2731809
492.518	0.27433176
492.725	0.27546828
492.933	0.27652814
493.14	0.27765191
493.348	0.2786158
493.555	0.27961258
493.763	0.28063494
493.97	0.2817012
494.177	0.28269462
494.385	0.28381983
494.592	0.28491565
494.8	0.28611071
495.007	0.28722444
495.214	0.28841667
495.422	0.28954587
495.629	0.29070744
495.836	0.29179952
496.043	0.29303444
496.251	0.29418667
496.458	0.29530371
496.665	0.29645736
496.872	0.29765966
497.08	0.2988618
497.287	0.30017739
497.494	0.30139826
497.701	0.30262068
497.908	0.3039982
498.115	0.30526613
498.322	0.3064891
498.53	0.30772006
498.737	0.30892572
498.944	0.31028006
499.151	0.31154819
499.358	0.31278597
499.565	0.31393911
499.772	0.31525503
499.979	0.31655193
500.186	0.31793571
500.393	0.31916415
500.6	0.32049208
500.807	0.32180966
501.014	0.32318979
501.221	0.32455007
501.427	0.32591168
501.634	0.32720975
501.841	0.32857937
502.048	0.3299907
502.255	0.33124088
502.462	0.3326763
502.669	0.33407241
502.875	0.33554814
503.082	0.33698316
503.289	0.33835639
503.496	0.33979141
503.702	0.341263
503.909	0.34270419
504.116	0.34419829
504.323	0.34566601
504.529	0.34718001
504.736	0.34868494
504.943	0.35010221
505.149	0.35173599
505.356	0.35324373
505.563	0.3547541
505.769	0.35627764
505.976	0.35770377
506.182	0.35927656
506.389	0.36085295
506.595	0.36238395
506.802	0.36395338
507.008	0.3654803
507.215	0.3670004
507.421	0.36858137
507.628	0.37007703
507.834	0.37160236
508.041	0.37295015
508.247	0.37431708
508.454	0.37584151
508.66	0.37723819
508.866	0.37881613
509.073	0.38037364
509.279	0.38197508
509.486	0.38364003
509.692	0.3852929
509.898	0.38687236
510.105	0.38859909
510.311	0.39008262
510.517	0.39168031
510.723	0.39331897
510.93	0.39491115
511.136	0.39655937
511.342	0.39819385
511.548	0.39976888
511.754	0.40146019
511.961	0.40304711
512.167	0.40448692
512.373	0.40612635
512.579	0.40777507
512.785	0.40935538
512.991	0.41091965
513.197	0.41251346
513.404	0.41420671
513.61	0.41600755
513.816	0.41758789
514.022	0.41931647
514.228	0.42098289
514.434	0.42264479
514.64	0.42433502
514.846	0.4259878
515.052	0.42758945
515.258	0.42924949
515.464	0.43074116
515.669	0.43240451
515.875	0.43405843
516.081	0.43566195
516.287	0.43737178
516.493	0.43914321
516.699	0.44082194
516.905	0.4425401
517.111	0.44415555
517.316	0.44591218
517.522	0.44765135
517.728	0.44936566
517.934	0.45088535
518.139	0.45258559
518.345	0.45422041
518.551	0.4559817
518.757	0.45762999
518.962	0.459241
519.168	0.46075977
519.374	0.46235476
519.579	0.46396766
519.785	0.46573871
519.991	0.46740251
520.196	0.46893752
520.402	0.47057057
520.607	0.4723286
520.813	0.47415436
521.018	0.47576488
521.224	0.47727618
521.429	0.47890673
521.635	0.48061554
521.84	0.4821511
522.046	0.48375679
522.251	0.48531814
522.457	0.48701534
522.662	0.48876903
522.868	0.49049796
523.073	0.49205946
523.279	0.49377889
523.484	0.49534235
523.689	0.49696286
523.895	0.49852666
524.1	0.50004656
524.305	0.50147898
524.511	0.50315228
524.716	0.50477671
524.921	0.50641949
525.126	0.50799932
525.332	0.50967044
525.537	0.5111795
525.742	0.51285496
525.947	0.51445838
526.153	0.51595525
526.358	0.5176488
526.563	0.51930153
526.768	0.52092386
526.973	0.52261906
527.178	0.5242413
527.383	0.52582397
527.588	0.52746878
527.794	0.52887293
527.999	0.53038139
528.204	0.5317983
528.409	0.53325049
528.614	0.53473939
528.819	0.53626449
529.024	0.5377779
529.229	0.53932436
529.434	0.54092461
529.639	0.54251275
529.843	0.54413633
530.048	0.54560734
530.253	0.54707545
530.458	0.54865408
530.663	0.55014595
530.868	0.55165703
531.073	0.55307684
531.278	0.55451589
531.482	0.55598628
531.687	0.55753594
531.892	0.55885563
532.097	0.56024777
532.302	0.5617259
532.506	0.56324146
532.711	0.56461007
532.916	0.56603864
533.12	0.5674423
533.325	0.56890397
533.53	0.57048826
533.734	0.57182338
533.939	0.57325494
534.144	0.57474596
534.348	0.57618085
534.553	0.57765139
534.757	0.57910255
534.962	0.58044993
535.167	0.58193243
535.371	0.58331628
535.576	0.58486411
535.78	0.58637546
535.985	0.58777409
536.189	0.58904199
536.394	0.59038042
536.598	0.59152496
536.803	0.5928692
537.007	0.59403465
537.211	0.59533214
537.416	0.59651704
537.62	0.59792777
537.825	0.59916808
538.029	0.6008059
538.233	0.60208363
538.438	0.60347094
538.642	0.60462149
538.846	0.60597908
539.05	0.60710957
539.255	0.60837294
539.459	0.60949461
539.663	0.61066248
539.867	0.61183004
540.072	0.61318843
540.276	0.61440501
540.48	0.61581084
540.684	0.61703649
540.888	0.61835604
541.092	0.61954847
541.297	0.62079606
541.501	0.62194676
541.705	0.62315474
541.909	0.62412845
542.113	0.62517429
542.317	0.62627967
542.521	0.62745085
542.725	0.62850266
542.929	0.62956783
543.133	0.63062727
543.337	0.63197299
543.541	0.63323648
543.745	0.63425705
543.949	0.63540109
544.153	0.63654336
544.357	0.63762626
544.56	0.63879402
544.764	0.63977493
544.968	0.64072753
545.172	0.64167785
545.376	0.64277083
545.58	0.64376047
545.783	0.64496249
545.987	0.64582988
546.191	0.64688604
546.395	0.64804259
546.598	0.64934256
546.802	0.6503581
547.006	0.65142454
547.21	0.65211334
547.413	0.65326552
547.617	0.65429181
547.821	0.65524741
548.024	0.65610311
548.228	0.65684807
548.431	0.65771725
548.635	0.65871412
548.839	0.65950186
549.042	0.66035227
549.246	0.66107669
549.449	0.66191906
549.653	0.66290959
549.856	0.66373471
550.06	0.66454808
550.263	0.66548052
550.467	0.6663361
550.67	0.66733056
550.874	0.66805666
551.077	0.6689698
551.28	0.66995949
551.484	0.6710131
551.687	0.6718189
551.891	0.67268151
552.094	0.67347318
552.297	0.6743942
552.501	0.67527283
552.704	0.67607386
552.907	0.67674142
553.11	0.67738387
553.314	0.67803588
553.517	0.67853218
553.72	0.67921208
553.923	0.67988482
554.127	0.68058757
554.33	0.68113705
554.533	0.68192606
554.736	0.68251592
554.939	0.68342745
555.142	0.68428306
555.345	0.68499689
555.549	0.68565038
555.752	0.68636736
555.955	0.68702589
556.158	0.68797082
556.361	0.68869365
556.564	0.68931717
556.767	0.68998865
556.97	0.69067251
557.173	0.69141533
557.376	0.69228558
557.579	0.69272973
557.782	0.69319731
557.984	0.69378216
558.187	0.69425955
558.39	0.69471927
558.593	0.69535124
558.796	0.69573073
558.999	0.69631018
559.202	0.69697716
559.404	0.69740873
559.607	0.69811994
559.81	0.69869068
560.013	0.6992065
560.216	0.6997607
560.418	0.7003777
560.621	0.7008132
560.824	0.70140581
561.026	0.70186317
561.229	0.70230283
561.432	0.70275832
561.634	0.7032222
561.837	0.70351887
562.04	0.70401354
562.242	0.70440007
562.445	0.7047546
562.647	0.70523531
562.85	0.70551897
563.053	0.70586753
563.255	0.70633409
563.458	0.70672404
563.66	0.70709488
563.863	0.70760605
564.065	0.70806192
564.268	0.70849828
564.47	0.70895746
564.672	0.70930562
564.875	0.70974377
565.077	0.7100597
565.28	0.71018943
565.482	0.71043655
565.684	0.71073044
565.887	0.7110042
566.089	0.71134824
566.291	0.71149226
566.494	0.71171681
566.696	0.71199586
566.898	0.71232967
567.1	0.71256706
567.303	0.71271392
567.505	0.71289149
567.707	0.7130956
567.909	0.71332068
568.111	0.7135653
568.314	0.71368714
568.516	0.71387726
568.718	0.71403631
568.92	0.71417809
569.122	0.71438024
569.324	0.71448872
569.526	0.7145718
569.728	0.71473792
569.93	0.71484274
570.132	0.71486267
570.334	0.71499361
570.536	0.71502856
570.738	0.71507279
570.94	0.7151422
571.142	0.71520201
571.344	0.71510509
571.546	0.71524281
571.748	0.7154198
571.95	0.71548814
572.152	0.71560381
572.354	0.71569284
572.555	0.71584174
572.757	0.71617768
572.959	0.71616119
573.161	0.71587689
573.363	0.71590306
573.564	0.71595111
573.766	0.71590691
573.968	0.71582272
574.17	0.71558707
574.371	0.71559157
574.573	0.71572221
574.775	0.71558191
574.976	0.71554731
575.178	0.71549184
575.38	0.71532077
575.581	0.71527042
575.783	0.71520227
575.985	0.71497352
576.186	0.71489615
576.388	0.71465486
576.589	0.71432963
576.791	0.71424612
576.992	0.71409169
577.194	0.71390407
577.395	0.71373925
577.597	0.71363692
577.798	0.71353626
578	0.71345109
578.201	0.71319745
578.402	0.71302389
578.604	0.71276517
578.805	0.71268583
579.007	0.71246583
579.208	0.71212391
579.409	0.71196842
579.611	0.7117123
579.812	0.71152139
580.013	0.71127513
580.215	0.71077983
580.416	0.71033685
580.617	0.71006275
580.818	0.70974012
581.019	0.70941131
581.221	0.7090267
581.422	0.70866057
581.623	0.70843548
581.824	0.70794484
582.025	0.70759314
582.226	0.70720937
582.428	0.70686129
582.629	0.70650038
582.83	0.70613292
583.031	0.70575869
583.232	0.70572571
583.433	0.70548509
583.634	0.70510059
583.835	0.70481708
584.036	0.70437069
584.237	0.70398508
584.438	0.70364012
584.639	0.7029305
584.84	0.7024799
585.041	0.70188319
585.242	0.70124705
585.442	0.70072893
585.643	0.70034543
585.844	0.69972047
586.045	0.69936695
586.246	0.69870881
586.447	0.69815765
586.647	0.69753756
586.848	0.69689049
587.049	0.69620659
587.25	0.69565347
587.45	0.69507095
587.651	0.69467709
587.852	0.69430116
588.053	0.69402867
588.253	0.69349944
588.454	0.69298281
588.655	0.69229692
588.855	0.69161623
589.056	0.69086829
589.256	0.6902327
589.457	0.68947864
589.658	0.68903691
589.858	0.6883416
590.059	0.68787857
590.259	0.68739494
590.46	0.68678556
590.66	0.68623343
590.861	0.68566934
591.061	0.6849989
591.262	0.68457883
591.462	0.6840071
591.662	0.68334143
591.863	0.68266858
592.063	0.68201375
592.264	0.6813495
592.464	0.68071639
592.664	0.68001798
592.865	0.67945042
593.065	0.67867144
593.265	0.67815202
593.465	0.6772685
593.666	0.67657247
593.866	0.67582584
594.066	0.67508997
594.266	0.6742509
594.467	0.67344408
594.667	0.67262049
594.867	0.67197108
595.067	0.67119061
595.267	0.67029956
595.467	0.66948319
595.668	0.66863788
595.868	0.66793433
596.068	0.66709711
596.268	0.66625428
596.468	0.66549776
596.668	0.66487686
596.868	0.6639675
597.068	0.6631889
597.268	0.66243911
597.468	0.66167996
597.668	0.66094774
597.868	0.66017761
598.068	0.65932987
598.268	0.6586294
598.467	0.65789309
598.667	0.65705367
598.867	0.65605235
599.067	0.65517282
599.267	0.65430565
599.467	0.65339447
599.667	0.6524006
599.866	0.65147501
600.066	0.65054754
600.266	0.64961762
600.466	0.64869493
600.665	0.64768964
600.865	0.64669347
601.065	0.64589138
601.264	0.64481816
601.464	0.64402807
601.664	0.64327821
601.863	0.64235138
602.063	0.64154851
602.263	0.64051155
602.462	0.63955332
602.662	0.63860492
602.861	0.63749687
603.061	0.63657351
603.26	0.63564903
603.46	0.63464289
603.659	0.6338395
603.859	0.63286931
604.058	0.63186532
604.258	0.63095146
604.457	0.62997826
604.657	0.62881537
604.856	0.627631
605.056	0.6266555
605.255	0.62571782
605.454	0.62489245
605.654	0.62384338
605.853	0.62282741
606.052	0.62184433
606.252	0.62101589
606.451	0.61999088
606.65	0.61900047
606.849	0.61784271
607.049	0.61681774
607.248	0.61577566
607.447	0.61480513
607.646	0.61377716
607.845	0.61270661
608.045	0.61145144
608.244	0.61061349
608.443	0.60957998
608.642	0.60856976
608.841	0.60748107
609.04	0.60638008
609.239	0.60541968
609.438	0.6044751
609.637	0.60332676
609.836	0.60227102
610.035	0.60119765
610.234	0.60019956
610.433	0.59914809
610.632	0.59796717
610.831	0.59691735
611.03	0.59575985
611.229	0.59477367
611.428	0.59371714
611.627	0.59266104
611.826	0.59164406
612.025	0.59070108
612.224	0.58962477
612.422	0.58862639
612.621	0.58740167
612.82	0.58631133
613.019	0.5851866
613.218	0.58407979
613.416	0.5827913
613.615	0.58164613
613.814	0.58044402
614.012	0.57934648
614.211	0.57803972
614.41	0.57687841
614.608	0.57570538
614.807	0.57464357
615.006	0.57356996
615.204	0.57252778
615.403	0.57155218
615.602	0.57062722
615.8	0.56961074
615.999	0.56844139
616.197	0.56733954
616.396	0.56617439
616.594	0.56498726
616.793	0.56390241
616.991	0.56272488
617.19	0.56146506
617.388	0.5605488
617.586	0.55949686
617.785	0.55845131
617.983	0.55736425
618.182	0.55607858
618.38	0.55493733
618.578	0.55385666
618.777	0.55262542
618.975	0.55150512
619.173	0.55040906
619.372	0.54935561
619.57	0.54826879
619.768	0.54727617
619.966	0.54614606
620.165	0.54496128
620.363	0.54381236
620.561	0.54249102
620.759	0.54132941
620.957	0.5402868
621.155	0.53907033
621.354	0.53787166
621.552	0.53681002
621.75	0.53553412
621.948	0.53448848
622.146	0.53325924
622.344	0.53191944
622.542	0.53079248
622.74	0.5296075
622.938	0.52839743
623.136	0.5273077
623.334	0.52614836
623.532	0.52487844
623.73	0.52378704
623.928	0.52264958
624.126	0.52153891
624.324	0.52040802
624.522	0.51914545
624.719	0.51786733
624.917	0.51673735
625.115	0.51544513
625.313	0.51429631
625.511	0.51312733
625.708	0.51170983
625.906	0.51046104
626.104	0.50932554
626.302	0.50822334
626.499	0.5070363
626.697	0.50558063
626.895	0.50422975
627.093	0.50312476
627.29	0.50209392
627.488	0.50086397
627.686	0.4997004
627.883	0.49849801
628.081	0.49730123
628.278	0.49625708
628.476	0.49514319
628.673	0.49392214
628.871	0.49281971
629.068	0.4916029
629.266	0.49057827
629.463	0.48953249
629.661	0.48837456
629.858	0.48710814
630.056	0.48585789
630.253	0.48459068
630.451	0.48335614
630.648	0.48193263
630.845	0.48061531
631.043	0.47939694
631.24	0.47823722
631.438	0.47704328
631.635	0.47583309
631.832	0.47449139
632.029	0.47338919
632.227	0.4720941
632.424	0.47081658
632.621	0.46947413
632.818	0.46808736
633.016	0.46679162
633.213	0.46558253
633.41	0.46429723
633.607	0.46318769
633.804	0.46210396
634.001	0.46096004
634.199	0.45990306
634.396	0.45876764
634.593	0.45755134
634.79	0.45645167
634.987	0.45524046
635.184	0.45393448
635.381	0.45278654
635.578	0.45170932
635.775	0.45054992
635.972	0.44950866
636.169	0.44839288
636.366	0.44724389
636.563	0.44614434
636.76	0.44492265
636.957	0.44365431
637.153	0.44238794
637.35	0.44132099
637.547	0.44019303
637.744	0.43905229
637.941	0.43798066
638.138	0.43686906
638.334	0.43571675
638.531	0.43465793
638.728	0.43341863
638.925	0.43230915
639.121	0.43127745
639.318	0.43012455
639.515	0.42889393
639.711	0.4277871
639.908	0.42651947
640.105	0.42525906
640.301	0.42393764
640.498	0.42265557
640.695	0.42144298
640.891	0.42035588
641.088	0.41920276
641.284	0.41814857
641.481	0.41720067
641.677	0.41610789
641.874	0.41494426
642.07	0.41382782
642.267	0.412823
642.463	0.4116186
642.66	0.41057329
642.856	0.40932934
643.053	0.40821812
643.249	0.40723448
643.445	0.40619738
643.642	0.40507255
643.838	0.4041915
644.034	0.40321305
644.231	0.40220637
644.427	0.40117089
644.623	0.4000154
644.82	0.39887856
645.016	0.39766833
645.212	0.39640146
645.408	0.39513255
645.604	0.3941315
645.801	0.39309076
645.997	0.39194562
646.193	0.39095452
646.389	0.39008322
646.585	0.38910411
646.781	0.38814674
646.977	0.38708646
647.173	0.38602451
647.37	0.38502619
647.566	0.38387839
647.762	0.38274677
647.958	0.38178941
648.154	0.38073397
648.35	0.37976508
648.546	0.37876901
648.742	0.37791701
648.937	0.37689852
649.133	0.37598098
649.329	0.37497607
649.525	0.37392426
649.721	0.37288383
649.917	0.37200311
650.113	0.37091252
650.309	0.37005002
650.504	0.36898057
650.7	0.36790974
650.896	0.36694614
651.092	0.36580412
651.287	0.36463039
651.483	0.36359805
651.679	0.36249736
651.875	0.36150822
652.07	0.36048099
652.266	0.35942585
652.462	0.35851492
652.657	0.35759346
652.853	0.35663022
653.048	0.3556954
653.244	0.35473309
653.44	0.35386747
653.635	0.35290943
653.831	0.35192817
654.026	0.35100845
654.222	0.34992056
654.417	0.34894536
654.613	0.34790051
654.808	0.34677901
655.004	0.34581943
655.199	0.34487264
655.394	0.3438532
655.59	0.34299467
655.785	0.3419781
655.98	0.34111254
656.176	0.3401618
656.371	0.33936435
656.566	0.338458
656.762	0.33747002
656.957	0.33650642
657.152	0.33556974
657.348	0.33460149
657.543	0.33381399
657.738	0.33279443
657.933	0.33192061
658.128	0.3310134
658.324	0.3301112
658.519	0.32931652
658.714	0.32844804
658.909	0.32752178
659.104	0.3266877
659.299	0.32567374
659.494	0.32475416
659.689	0.32385977
659.884	0.322884
660.079	0.32187194
660.274	0.3209018
660.469	0.3199036
660.664	0.31907439
660.859	0.31814813
661.054	0.31719853
661.249	0.31627898
661.444	0.31543857
661.639	0.31452036
661.834	0.31362223
662.029	0.31272568
662.224	0.31191855
662.418	0.31115032
662.613	0.31043799
662.808	0.30959375
663.003	0.30881703
663.198	0.30808114
663.392	0.30726076
663.587	0.30659714
663.782	0.30574659
663.977	0.30486558
664.171	0.30414052
664.366	0.30333688
664.561	0.30248873
664.755	0.30168152
664.95	0.30074076
665.144	0.29992367
665.339	0.29916437
665.534	0.29834699
665.728	0.29757868
665.923	0.29677596
666.117	0.29598048
666.312	0.29514124
666.506	0.29438516
666.701	0.29343658
666.895	0.29254888
667.09	0.29168183
667.284	0.29093957
667.479	0.2900738
667.673	0.28934181
667.867	0.2885684
668.062	0.28786065
668.256	0.28708915
668.45	0.28636239
668.645	0.28550844
668.839	0.28476327
669.033	0.28399161
669.228	0.28319385
669.422	0.2824346
669.616	0.28167282
669.81	0.28093289
670.004	0.28017277
670.199	0.27943913
670.393	0.2786618
670.587	0.27791684
670.781	0.27722358
670.975	0.27654299
671.169	0.2756854
671.363	0.27493418
671.558	0.27419205
671.752	0.27351262
671.946	0.27291585
672.14	0.27218675
672.334	0.27144963
672.528	0.27091281
672.722	0.27014399
672.916	0.26945304
673.11	0.268664
673.304	0.26793502
673.497	0.26717813
673.691	0.26654984
673.885	0.26576997
674.079	0.26522453
674.273	0.26455482
674.467	0.26400049
674.661	0.26337795
674.854	0.26273069
675.048	0.26210131
675.242	0.26155125
675.436	0.26085184
675.629	0.26019372
675.823	0.25941365
676.017	0.25871247
676.211	0.25801274
676.404	0.25730592
676.598	0.25663466
676.792	0.25604282
676.985	0.25554538
677.179	0.25500433
677.372	0.25435662
677.566	0.25385605
677.76	0.2532219
677.953	0.25257364
678.147	0.25196369
678.34	0.25128803
678.534	0.25065766
678.727	0.25015858
678.921	0.24961821
679.114	0.2490057
679.307	0.24845416
679.501	0.24784488
679.694	0.24729438
679.888	0.24667697
680.081	0.24600378
680.274	0.24529981
680.468	0.24474658
680.661	0.24417237
680.854	0.24380704
681.048	0.24320056
681.241	0.24267168
681.434	0.24213501
681.627	0.24159551
681.821	0.24103633
682.014	0.24041708
682.207	0.2395966
682.4	0.23899205
682.593	0.23839071
682.786	0.23777538
682.98	0.23713215
683.173	0.23652892
683.366	0.23595305
683.559	0.23550589
683.752	0.23507398
683.945	0.234626
684.138	0.23420977
684.331	0.23379693
684.524	0.23336074
684.717	0.23292045
684.91	0.23239857
685.103	0.23183251
685.296	0.23125937
685.489	0.23067662
685.682	0.23013514
685.874	0.2297062
686.067	0.2292241
686.26	0.22881115
686.453	0.22838928
686.646	0.22797024
686.839	0.22764133
687.031	0.22726194
687.224	0.22675808
687.417	0.22646239
687.61	0.22598973
687.802	0.22558969
687.995	0.22520341
688.188	0.22472412
688.38	0.22428286
688.573	0.22383486
688.766	0.22326131
688.958	0.22281975
689.151	0.22234685
689.343	0.22199887
689.536	0.22160973
689.729	0.22124209
689.921	0.22093261
690.114	0.22060755
690.306	0.22024455
690.499	0.21988841
690.691	0.21948336
690.884	0.21907169
691.076	0.21866773
691.268	0.21820679
691.461	0.21775394
691.653	0.21742943
691.846	0.21699629
692.038	0.21651111
692.23	0.21600495
692.423	0.21553413
692.615	0.21516841
692.807	0.21482149
692.999	0.21438334
693.192	0.2140283
693.384	0.21373795
693.576	0.21345606
693.768	0.2132059
693.961	0.21286719
694.153	0.21251478
694.345	0.21219953
694.537	0.21185524
694.729	0.21153711
694.921	0.21119184
695.113	0.21088408
695.305	0.21059446
695.498	0.2103125
695.69	0.21005236
695.882	0.20978795
696.074	0.20946241
696.266	0.20922056
696.458	0.20889856
696.65	0.20858734
696.842	0.20832348
697.033	0.20799323
697.225	0.20762189
697.417	0.20735596
697.609	0.20703939
697.801	0.20674249
697.993	0.20648054
698.185	0.20621387
698.376	0.20595968
698.568	0.20580455
698.76	0.2056588
698.952	0.20551542
699.144	0.20538131
699.335	0.20524749
699.527	0.20500333
699.719	0.20480376
699.91	0.20458854
700.102	0.20425049
700.294	0.20392446
700.485	0.20362741
700.677	0.20325839
700.869	0.20304007
701.06	0.20275803
701.252	0.20247582
701.443	0.2022587
701.635	0.2020847
701.826	0.20192165
702.018	0.2018083
702.209	0.20166533
702.401	0.20147476
702.592	0.20138169
702.784	0.20120887
702.975	0.20103918
703.166	0.20089573
703.358	0.20075388
703.549	0.20063746
703.741	0.20060521
703.932	0.20038981
704.123	0.2002458
704.315	0.20008722
704.506	0.19991502
704.697	0.19966997
704.888	0.19950263
705.08	0.19929686
705.271	0.19920941
705.462	0.19905652
705.653	0.19897151
705.844	0.19884737
706.035	0.19880332
706.227	0.19860367
706.418	0.19840894
706.609	0.19825217
706.8	0.19820634
706.991	0.19808597
707.182	0.19795651
707.373	0.19778638
707.564	0.19770974
707.755	0.19771149
707.946	0.19769561
708.137	0.19762592
708.328	0.19751375
708.519	0.1974517
708.71	0.19741661
708.901	0.19726642
709.092	0.19710421
709.283	0.19692271
709.473	0.19677788
709.664	0.19678951
709.855	0.19669425
710.046	0.19667188
710.237	0.19664564
710.427	0.19655894
710.618	0.19652777
710.809	0.19639597
711	0.19620201
711.19	0.1960355
711.381	0.19592641
711.572	0.19588561
711.762	0.19591431
711.953	0.19588153
712.144	0.19592523
712.334	0.19596093
712.525	0.19607317
712.715	0.19606719
712.906	0.19602689
713.097	0.19595038
713.287	0.19586682
713.478	0.19581178
713.668	0.19580514
713.859	0.19568937
714.049	0.195555
714.239	0.19554303
714.43	0.19556827
714.62	0.1955509
714.811	0.19551348
715.001	0.19550381
715.191	0.19551507
715.382	0.19554579
715.572	0.19555677
715.762	0.19560315
715.953	0.19568843
716.143	0.19574838
716.333	0.19573649
716.523	0.19580947
716.714	0.1959451
716.904	0.19598386
717.094	0.19600686
717.284	0.19610016
717.474	0.19620885
717.664	0.19641527
717.855	0.19656371
718.045	0.1967043
718.235	0.1968781
718.425	0.19705746
718.615	0.19716559
718.805	0.19730236
718.995	0.19739508
719.185	0.19750504
719.375	0.19759746
719.565	0.19770045
719.755	0.1977865
719.945	0.19785327
720.135	0.19799567
720.325	0.19810657
720.515	0.19823217
720.704	0.19839282
720.894	0.19855413
721.084	0.19868329
721.274	0.19893169
721.464	0.199049
721.654	0.19917521
721.843	0.19934086
722.033	0.19938878
722.223	0.19947516
722.413	0.19960859
722.602	0.19972515
722.792	0.19991772
722.982	0.20008535
723.171	0.20023529
723.361	0.2004574
723.55	0.20066311
723.74	0.20075814
723.93	0.20077511
724.119	0.20077711
724.309	0.20083182
724.498	0.20092511
724.688	0.20105682
724.877	0.20117304
725.067	0.2013504
725.256	0.20160559
725.446	0.20187371
725.635	0.20206085
725.825	0.20218125
726.014	0.20233553
726.203	0.20244956
726.393	0.20263847
726.582	0.20278626
726.771	0.20296782
726.961	0.20319302
727.15	0.20339623
727.339	0.20360404
727.529	0.203937
727.718	0.20413189
727.907	0.20433145
728.096	0.20447553
728.286	0.20459095
728.475	0.20481747
728.664	0.20492992
728.853	0.2049674
729.042	0.20508299
729.231	0.20525141
729.42	0.20542724
729.609	0.20566887
729.799	0.20587516
729.988	0.20617257
730.177	0.20645863
730.366	0.20678166
730.555	0.20704036
730.744	0.20726488
730.933	0.20744543
731.122	0.20765778
731.31	0.20788157
731.499	0.20806255
731.688	0.20828238
731.877	0.20846406
732.066	0.20865864
732.255	0.20877643
732.444	0.20890921
732.632	0.20896823
732.821	0.20914338
733.01	0.20928888
733.199	0.20941092
733.388	0.20964362
733.576	0.20993892
733.765	0.21023973
733.954	0.21052039
734.142	0.21070691
734.331	0.21092106
734.52	0.21126898
734.708	0.21156312
734.897	0.21182211
735.086	0.21204083
735.274	0.2122811
735.463	0.21257878
735.651	0.21288111
735.84	0.21308081
736.028	0.2132303
736.217	0.21348585
736.405	0.21371604
736.594	0.2139082
736.782	0.21412887
736.971	0.21436231
737.159	0.21461151
737.347	0.21493298
737.536	0.21512514
737.724	0.21542361
737.912	0.21574535
738.101	0.21607709
738.289	0.2163873
738.477	0.21674191
738.666	0.21703966
738.854	0.21749513
739.042	0.21779017
739.23	0.21808465
739.418	0.21831543
739.607	0.21855255
739.795	0.21876016
739.983	0.21908727
740.171	0.2193614
740.359	0.21973874
740.547	0.22021398
740.735	0.22074769
740.923	0.22120925
741.112	0.22161494
741.3	0.22194349
741.488	0.22220085
741.676	0.22247119
741.864	0.2226677
742.052	0.2228472
742.239	0.22304868
742.427	0.22339594
742.615	0.22367348
742.803	0.224007
742.991	0.2243345
743.179	0.22471146
743.367	0.22511716
743.555	0.22556155
743.742	0.22585615
743.93	0.22630313
744.118	0.22670812
744.306	0.22713003
744.494	0.22751855
744.681	0.22790556
744.869	0.22830641
745.057	0.22875192
745.244	0.22911558
745.432	0.2295851
745.62	0.22995944
745.807	0.23035114
745.995	0.2306055
746.182	0.23079539
746.37	0.23105676
746.558	0.23133904
746.745	0.23152547
746.933	0.23188794
747.12	0.23220517
747.308	0.23265012
747.495	0.23305786
747.683	0.23342666
747.87	0.23379893
748.057	0.23414181
748.245	0.23444653
748.432	0.23475044
748.62	0.23501406
748.807	0.23534327
748.994	0.23566947
749.182	0.23591846
749.369	0.23629471
749.556	0.2365636
749.743	0.23686394
749.931	0.23713293
750.118	0.2375496
750.305	0.23793153
750.492	0.23833802
750.68	0.23871687
750.867	0.23911386
751.054	0.23958821
751.241	0.2400806
751.428	0.24047324
751.615	0.2409038
751.802	0.24131007
751.989	0.24173937
752.176	0.24228578
752.363	0.24276669
752.55	0.24320857
752.737	0.2436267
752.924	0.24390811
753.111	0.24429336
753.298	0.24456854
753.485	0.2447101
753.672	0.24485015
753.859	0.24519564
754.046	0.24552053
754.233	0.24596207
754.42	0.24632328
754.606	0.24670642
754.793	0.24714675
754.98	0.24754755
755.167	0.24775127
755.353	0.24797725
755.54	0.24831803
755.727	0.2486235
755.914	0.24896108
756.1	0.24927505
756.287	0.24968235
756.474	0.25016132
756.66	0.25072678
756.847	0.25124846
757.033	0.25173322
757.22	0.25223111
757.407	0.25276658
757.593	0.25324947
757.78	0.25371085
757.966	0.25407862
758.153	0.25445145
758.339	0.25492778
758.526	0.25542262
758.712	0.25578419
758.898	0.25620682
759.085	0.25660545
759.271	0.25701573
759.458	0.25741652
759.644	0.25784877
759.83	0.25817467
760.017	0.25852038
760.203	0.25882916
760.389	0.25917442
760.576	0.25954156
760.762	0.25986208
760.948	0.26011771
761.134	0.26052577
761.32	0.26102632
761.507	0.26146877
761.693	0.26199605
761.879	0.26245611
762.065	0.26300769
762.251	0.26357196
762.437	0.26408202
762.623	0.26451833
762.809	0.26497184
762.995	0.26529565
763.181	0.26565485
763.367	0.26597666
763.553	0.2663857
763.739	0.26682119
763.925	0.26728392
764.111	0.26778363
764.297	0.26828319
764.483	0.26880433
764.669	0.2691793
764.855	0.26958647
765.041	0.26996086
765.227	0.2703211
765.412	0.27071241
765.598	0.27109326
765.784	0.27153394
765.97	0.27209588
766.156	0.27257943
766.341	0.27301543
766.527	0.27345929
766.713	0.27389119
766.898	0.27440707
767.084	0.27488274
767.27	0.27535012
767.455	0.27572065
767.641	0.27618148
767.827	0.27665486
768.012	0.27711272
768.198	0.27764591
768.383	0.27819633
768.569	0.27877984
768.754	0.27944226
768.94	0.27998063
769.125	0.28058801
769.311	0.28112542
769.496	0.28167275
769.682	0.28217005
769.867	0.28256483
770.052	0.28300721
770.238	0.28347791
770.423	0.28389074
770.608	0.28438576
770.794	0.28475982
770.979	0.28511797
771.164	0.2855705
771.35	0.28598657
771.535	0.28641601
771.72	0.28684448
771.905	0.28725842
772.09	0.28763048
772.276	0.28806899
772.461	0.28835501
772.646	0.28871316
772.831	0.28912657
773.016	0.28957617
773.201	0.28999892
773.386	0.29046257
773.571	0.29090792
773.756	0.29139456
773.941	0.29189831
774.126	0.29235629
774.311	0.29280378
774.496	0.29320268
774.681	0.29377333
774.866	0.29432834
775.051	0.29485586
775.236	0.29530539
775.421	0.29578875
775.606	0.29620592
775.791	0.29667147
775.976	0.29697503
776.16	0.29726644
776.345	0.29762741
776.53	0.29806154
776.715	0.29842203
776.899	0.29881464
777.084	0.29917862
777.269	0.29951081
777.454	0.29984376
777.638	0.30030311
777.823	0.30062195
778.008	0.3009677
778.192	0.30135478
778.377	0.30183914
778.561	0.30223813
778.746	0.30263502
778.931	0.30288702
779.115	0.3033177
779.3	0.30362106
779.484	0.30396063
779.669	0.30418927
779.853	0.30455661
780.037	0.3047868
780.222	0.30505757
780.406	0.30524213
780.591	0.30559173
780.775	0.30587917
780.959	0.30613099
781.144	0.30631585
781.328	0.30658526
781.512	0.30685743
781.697	0.30709413
781.881	0.30719988
782.065	0.30739961
782.249	0.30746855
782.434	0.30761441
782.618	0.30778857
782.802	0.30796335
782.986	0.30807266
783.17	0.30832041
783.354	0.30851147
783.539	0.30888937
783.723	0.30912926
783.907	0.30943732
784.091	0.3097578
784.275	0.31007571
784.459	0.31037115
784.643	0.31069364
784.827	0.31090835
785.011	0.31126252
785.195	0.31167267
785.379	0.31203514
785.563	0.31238533
785.747	0.31277352
785.93	0.31311839
786.114	0.31346286
786.298	0.3137229
786.482	0.31379895
786.666	0.31405677
786.85	0.31436046
787.033	0.31456628
787.217	0.31482304
787.401	0.31518123
787.585	0.31559665
787.768	0.31608889
787.952	0.31637933
788.136	0.31661433
788.319	0.31692628
788.503	0.31724521
788.687	0.31753305
788.87	0.31789021
789.054	0.31831939
789.237	0.31872497
789.421	0.31922073
789.605	0.31974778
789.788	0.32023689
789.972	0.3207011
790.155	0.32106798
790.338	0.32134012
790.522	0.32172681
790.705	0.32205461
790.889	0.32228367
791.072	0.32252429
791.256	0.32287979
791.439	0.32323321
791.622	0.32368381
791.806	0.32419766
791.989	0.32470967
792.172	0.32525516
792.355	0.32585352
792.539	0.32635787
792.722	0.32691461
792.905	0.32739544
793.088	0.32777649
793.271	0.32829359
793.455	0.32879837
793.638	0.32923315
793.821	0.329706
794.004	0.33019974
794.187	0.33074067
794.37	0.33126874
794.553	0.33170971
794.736	0.33211939
794.919	0.33247989
795.102	0.3329441
795.285	0.33336377
795.468	0.33365733
795.651	0.33396011
795.834	0.33429175
796.017	0.33473382
796.2	0.33505546
796.383	0.33539479
796.566	0.33576515
796.749	0.33615733
796.931	0.33660684
797.114	0.3369839
797.297	0.33735139
797.48	0.33787703
797.663	0.33831605
797.845	0.33871337
798.028	0.33919246
798.211	0.33966811
798.393	0.34011934
798.576	0.34051514
798.759	0.34090088
798.941	0.34123118
799.124	0.34162027
799.307	0.3420274
799.489	0.3424174
799.672	0.34280329
799.854	0.34315635
800.037	0.34356611
800.219	0.34401348
800.402	0.34446315
800.584	0.34480495
800.767	0.34508283
800.949	0.34553293
801.132	0.34610739
801.314	0.34653153
801.496	0.34689217
801.679	0.34715515
801.861	0.34747781
802.043	0.34776683
802.226	0.34798041
802.408	0.34814757
802.59	0.34849554
802.772	0.34871228
802.955	0.34903222
803.137	0.34918337
803.319	0.34947848
803.501	0.34973567
803.684	0.34993062
803.866	0.34996814
804.048	0.35031676
804.23	0.35057008
804.412	0.3510269
804.594	0.35140482
804.776	0.35187805
804.958	0.35220908
805.14	0.35261429
805.322	0.35276678
805.504	0.35309618
805.686	0.35324124
805.868	0.35334607
806.05	0.35330392
806.232	0.35346814
806.414	0.35361377
806.596	0.35367961
806.778	0.35354533
806.96	0.35362643
807.141	0.35357994
807.323	0.35374363
807.505	0.35377778
807.687	0.35381514
807.869	0.35394027
808.05	0.35415098
808.232	0.35430025
808.414	0.35464561
808.595	0.35472665
808.777	0.35473884
808.959	0.35479463
809.14	0.3549074
809.322	0.35496649
809.504	0.35492722
809.685	0.35492758
809.867	0.35496285
810.048	0.35500583
810.23	0.35507681
810.411	0.35525336
810.593	0.35537944
810.774	0.35546187
810.956	0.35549788
811.137	0.35551002
811.319	0.35563806
811.5	0.3556196
811.681	0.35560185
811.863	0.3556044
812.044	0.35567317
812.225	0.35585256
812.407	0.35603344
812.588	0.35617938
812.769	0.35639008
812.951	0.35651088
813.132	0.35666678
813.313	0.35689466
813.494	0.3568327
813.675	0.3570105
813.857	0.35722272
814.038	0.35745316
814.219	0.35760645
814.4	0.35776424
814.581	0.3580246
814.762	0.35824794
814.943	0.35835029
815.124	0.3584445
815.305	0.35861453
815.486	0.3588568
815.667	0.35923349
815.848	0.35946148
816.029	0.35979656
816.21	0.36007322
816.391	0.36044359
816.572	0.36074899
816.753	0.36106928
816.934	0.36121023
817.115	0.36145547
817.295	0.36171455
817.476	0.36191851
817.657	0.36222163
817.838	0.36251515
818.019	0.36274144
818.199	0.36298887
818.38	0.36320245
818.561	0.36348138
818.741	0.36389769
818.922	0.36412726
819.103	0.36446627
819.283	0.36483217
819.464	0.36530435
819.645	0.36569468
819.825	0.36604593
820.006	0.36640196
820.186	0.36680127
820.367	0.36710142
820.547	0.36743902
820.728	0.36762253
820.908	0.36792128
821.089	0.36831287
821.269	0.36857233
821.45	0.36878259
821.63	0.36887716
821.81	0.36911237
821.991	0.36945371
822.171	0.36974679
822.351	0.36990173
822.532	0.37013885
822.712	0.37043832
822.892	0.3708298
823.072	0.37103988
823.253	0.37135573
823.433	0.37149711
823.613	0.37181335
823.793	0.37208529
823.973	0.37231603
824.154	0.3724917
824.334	0.37283356
824.514	0.37299634
824.694	0.37335756
824.874	0.37349497
825.054	0.37393156
825.234	0.37414993
825.414	0.37439982
825.594	0.37459017
825.774	0.37495644
825.954	0.37518117
826.134	0.37554165
826.314	0.37557209
826.494	0.37590764
826.674	0.3760664
826.854	0.37625268
827.033	0.37622938
827.213	0.37654207
827.393	0.37666401
827.573	0.37695882
827.753	0.3770145
827.932	0.37733774
828.112	0.37759949
828.292	0.37788865
828.472	0.37794906
828.651	0.37823582
828.831	0.37820596
829.011	0.37844796
829.19	0.37859788
829.37	0.37868196
829.549	0.37887485
829.729	0.37907166
829.909	0.3791194
830.088	0.37963802
830.268	0.37980664
830.447	0.38017124
830.627	0.38061693
830.806	0.38090133
830.986	0.38113762
831.165	0.38156558
831.344	0.38166215
831.524	0.3819434
831.703	0.38193718
831.883	0.38182578
832.062	0.3818343
832.241	0.38189203
832.421	0.38184371
832.6	0.38194419
832.779	0.3820318
832.958	0.38225134
833.138	0.38235623
833.317	0.3827227
833.496	0.38291196
833.675	0.38312912
833.854	0.38341558
834.034	0.3836349
834.213	0.38377587
834.392	0.38418428
834.571	0.38422102
834.75	0.38443418
834.929	0.38444755
835.108	0.3843314
835.287	0.38443695
835.466	0.38443378
835.645	0.38448951
835.824	0.38457764
836.003	0.38485375
836.182	0.38526471
836.361	0.38568387
836.54	0.3856943
836.719	0.3858666
836.897	0.38590958
837.076	0.38612087
837.255	0.38600576
837.434	0.38610669
837.613	0.38607528
837.791	0.38633398
837.97	0.38656639
838.149	0.38668694
838.328	0.38674861
838.506	0.38687636
838.685	0.38692837
838.864	0.38713787
839.042	0.38713385
839.221	0.38737394
839.4	0.38755604
839.578	0.38771281
839.757	0.38774308
839.935	0.38778365
840.114	0.3879008
840.292	0.38808676
840.471	0.38825954
840.649	0.38846726
840.828	0.3886074
841.006	0.38888265
841.185	0.38897842
841.363	0.38911299
841.541	0.38926836
841.72	0.38930211
841.898	0.3893383
842.076	0.3894463
842.255	0.38944469
842.433	0.38964514
842.611	0.38957071
842.789	0.38951166
842.968	0.3895092
843.146	0.38952086
843.324	0.38956374
843.502	0.38978552
843.68	0.38994256
843.859	0.39011502
844.037	0.39028717
844.215	0.39042373
844.393	0.39059906
844.571	0.39075668
844.749	0.39086934
844.927	0.39077784
845.105	0.39068761
845.283	0.39062152
845.461	0.39043261
845.639	0.39044519
845.817	0.39035587
845.995	0.39033312
846.173	0.39036057
846.351	0.39038361
846.529	0.39047829
846.706	0.39056151
846.884	0.39055678
847.062	0.39048932
847.24	0.39046021
847.418	0.39041508
847.595	0.39053501
847.773	0.39069774
847.951	0.3907051
848.129	0.39086816
848.306	0.39112206
848.484	0.39124685
848.662	0.39147898
848.839	0.3915962
849.017	0.39159839
849.194	0.39165616
849.372	0.39154696
849.549	0.39143173
849.727	0.39133302
849.905	0.39110707
850.082	0.39080695
850.26	0.39067581
850.437	0.3905993
850.614	0.39062382
850.792	0.39068459
850.969	0.39093443
851.147	0.39120155
851.324	0.39152888
851.501	0.39171738
851.679	0.39193052
851.856	0.39193758
852.033	0.39198782
852.211	0.39186742
852.388	0.39177642
852.565	0.39187319
852.742	0.39201726
852.92	0.39201148
853.097	0.39211461
853.274	0.39206881
853.451	0.39187144
853.628	0.39177753
853.805	0.39145492
853.982	0.39114497
854.159	0.39100838
854.336	0.39078902
854.514	0.39055192
854.691	0.39041761
854.868	0.39027422
855.045	0.39023681
855.221	0.3902915
855.398	0.39030406
855.575	0.39039025
855.752	0.39059089
855.929	0.39098955
856.106	0.39107745
856.283	0.39114098
856.46	0.39118237
856.637	0.39116015
856.813	0.39105836
856.99	0.39093003
857.167	0.39065568
857.344	0.39058657
857.52	0.39045734
857.697	0.39002259
857.874	0.38979495
858.05	0.38964793
858.227	0.38949223
858.404	0.38936064
858.58	0.38937941
858.757	0.38926328
858.933	0.38947757
859.11	0.38962006
859.287	0.38955239
859.463	0.38952631
859.64	0.38958449
859.816	0.38950258
859.993	0.38949402
860.169	0.3894624
860.345	0.38932445
860.522	0.38936416
860.698	0.38937757
860.875	0.38923982
861.051	0.38915111
861.227	0.38881598
861.404	0.38863036
861.58	0.38859148
861.756	0.38836149
861.932	0.38820218
862.109	0.38776619
862.285	0.38753012
862.461	0.38770553
862.637	0.38763829
862.813	0.38744963
862.99	0.38729113
863.166	0.38714913
863.342	0.38739477
863.518	0.38724519
863.694	0.38722704
863.87	0.38700574
864.046	0.3869701
864.222	0.38708975
864.398	0.38700515
864.574	0.38664
864.75	0.38655221
864.926	0.38638119
865.102	0.38633086
865.278	0.38612393
865.454	0.38594023
865.63	0.38579351
865.805	0.38588055
865.981	0.38597316
866.157	0.38588552
866.333	0.38571762
866.509	0.38580436
866.684	0.38576777
866.86	0.38586693
867.036	0.38567008
867.212	0.38543732
867.387	0.38515614
867.563	0.38522191
867.739	0.38505985
867.914	0.38498467
868.09	0.38482215
868.265	0.38471307
868.441	0.38462864
868.617	0.38459658
868.792	0.38422075
868.968	0.38376113
869.143	0.38348278
869.319	0.38315281
869.494	0.38294004
869.67	0.38267602
869.845	0.38254955
870.02	0.38246087
870.196	0.38255974
870.371	0.38245204
870.546	0.38246305
870.722	0.38247764
870.897	0.38231822
871.072	0.38214617
871.248	0.38198402
871.423	0.38159553
871.598	0.38147568
871.773	0.38107911
871.949	0.38069277
872.124	0.3805828
872.299	0.38019233
872.474	0.38000209
872.649	0.37982452
872.824	0.3794324
872.999	0.37917185
873.174	0.37907361
873.349	0.37884299
873.524	0.37885846
873.699	0.3787763
873.874	0.37856674
874.049	0.37839681
874.224	0.37837121
874.399	0.37819339
874.574	0.37821484
874.749	0.37795339
874.924	0.37761348
875.099	0.37747738
875.274	0.37746659
875.449	0.3774588
875.623	0.37726889
875.798	0.37683667
875.973	0.37664855
876.148	0.37634859
876.322	0.37628004
876.497	0.3759067
876.672	0.37557554
876.846	0.37546536
877.021	0.37516005
877.196	0.37467548
877.37	0.3746838
877.545	0.37458982
877.72	0.37434442
877.894	0.3740364
878.069	0.37369719
878.243	0.37347795
878.418	0.37365497
878.592	0.37334052
878.767	0.37288347
878.941	0.37278418
879.116	0.3724587
879.29	0.37208013
879.464	0.37170516
879.639	0.37116833
879.813	0.37098511
879.987	0.37075057
880.162	0.37031675
880.336	0.37018065
880.51	0.37012069
880.685	0.37011526
880.859	0.37021588
881.033	0.37003279
881.207	0.36997865
881.381	0.37002278
881.556	0.36994075
881.73	0.36960406
881.904	0.36951699
882.078	0.3691174
882.252	0.36893595
882.426	0.36837719
882.6	0.36802975
882.774	0.36752493
882.948	0.36725079
883.122	0.36663659
883.296	0.36613392
883.47	0.365662
883.644	0.36555243
883.818	0.36512178
883.992	0.36495147
884.166	0.36493853
884.34	0.36492672
884.514	0.3651323
884.687	0.36518484
884.861	0.36503558
885.035	0.36493662
885.209	0.36476944
885.382	0.36434587
885.556	0.36420938
885.73	0.36393191
885.904	0.36363073
886.077	0.36327168
886.251	0.36295966
886.425	0.36273219
886.598	0.36273614
886.772	0.36236581
886.945	0.36182938
887.119	0.3612602
887.292	0.36115096
887.466	0.36108349
887.64	0.36063173
887.813	0.3601716
887.986	0.35992772
888.16	0.35986728
888.333	0.35956113
888.507	0.35911502
888.68	0.35862208
888.854	0.3585084
889.027	0.35818703
889.2	0.35809518
889.374	0.35775841
889.547	0.35791215
889.72	0.35787425
889.893	0.35778297
890.067	0.35736353
890.24	0.35698134
890.413	0.35662151
890.586	0.3561109
890.759	0.35575394
890.933	0.35522754
891.106	0.35467289
891.279	0.35443287
891.452	0.35423503
891.625	0.3538249
891.798	0.35376072
891.971	0.3534426
892.144	0.35324251
892.317	0.35320322
892.49	0.35297911
892.663	0.35279936
892.836	0.35268587
893.009	0.35241788
893.182	0.35208667
893.355	0.35197926
893.527	0.35171395
893.7	0.35163004
893.873	0.35145064
894.046	0.35101397
894.219	0.35078878
894.391	0.35044493
894.564	0.35013005
894.737	0.34978066
894.91	0.34943342
895.082	0.34901531
895.255	0.34876309
895.428	0.34846893
895.6	0.34810424
895.773	0.34767404
895.945	0.34741113
896.118	0.34708028
896.291	0.34675934
896.463	0.34634226
896.636	0.34579165
896.808	0.34561802
896.981	0.34525011
897.153	0.34476267
897.326	0.3444902
897.498	0.34412119
897.67	0.34411027
897.843	0.34423595
898.015	0.34430146
898.187	0.34433277
898.36	0.34416472
898.532	0.34381017
898.704	0.34384037
898.877	0.34328276
899.049	0.34292779
899.221	0.34229971
899.393	0.34189467
899.566	0.3416202
899.738	0.34137042
899.91	0.34079313
900.082	0.34056711
900.254	0.34011678
900.426	0.33982984
900.598	0.33947887
900.77	0.33900914
900.942	0.33865315
901.114	0.33857911
901.286	0.338297
901.458	0.33808499
901.63	0.33776739
901.802	0.33749739
901.974	0.33727291
902.146	0.33670274
902.318	0.3360175
902.49	0.33549149
902.662	0.33476839
902.834	0.334135
903.005	0.33360517
903.177	0.33306208
903.349	0.33290692
903.521	0.33245237
903.693	0.33216968
903.864	0.33189762
904.036	0.3317435
904.208	0.33134517
904.379	0.33111989
904.551	0.33087815
904.723	0.33086885
904.894	0.33043239
905.066	0.33020877
905.237	0.32981984
905.409	0.3295249
905.58	0.3293688
905.752	0.32888941
905.923	0.32855283
906.095	0.32824161
906.266	0.32789961
906.438	0.32770963
906.609	0.32754685
906.78	0.32722268
906.952	0.32710332
907.123	0.32648821
907.295	0.32641453
907.466	0.32627502
907.637	0.32610216
907.808	0.32562818
907.98	0.32521826
908.151	0.32461907
908.322	0.32438089
908.493	0.32383039
908.665	0.32340413
908.836	0.32279815
909.007	0.32242287
909.178	0.32187134
909.349	0.32167294
909.52	0.32161084
909.691	0.32134866
909.862	0.32105527
910.033	0.32083389
910.204	0.32067161
910.375	0.32061367
910.546	0.32030892
910.717	0.31977901
910.888	0.31941468
911.059	0.31891321
911.23	0.31851097
911.401	0.3179446
911.572	0.31747064
911.742	0.3169498
911.913	0.31656126
912.084	0.31608337
912.255	0.31584983
912.426	0.31543284
912.596	0.31521038
912.767	0.31487954
912.938	0.31465494
913.108	0.31452296
913.279	0.31430198
913.45	0.31390555
913.62	0.31358433
913.791	0.31328861
913.962	0.31302718
914.132	0.3127558
914.303	0.31229138
914.473	0.31217303
914.644	0.31181103
914.814	0.3113249
914.985	0.31090431
915.155	0.31052087
915.326	0.30998183
915.496	0.30945909
915.666	0.30861631
915.837	0.30827687
916.007	0.30774246
916.177	0.3069231
916.348	0.30641947
916.518	0.30590838
916.688	0.30547812
916.858	0.30531031
917.029	0.30472358
917.199	0.30468703
917.369	0.30482245
917.539	0.30452894
917.709	0.30440894
917.88	0.30413482
918.05	0.30371752
918.22	0.30365463
918.39	0.303124
918.56	0.30269157
918.73	0.30240309
918.9	0.30179121
919.07	0.30141206
919.24	0.30112949
919.41	0.30071863
919.58	0.30020193
919.75	0.29973531
919.92	0.2991193
920.09	0.29887342
920.26	0.29835223
920.429	0.29775678
920.599	0.29715476
920.769	0.29696241
920.939	0.2964069
921.109	0.29599359
921.278	0.29559737
921.448	0.29522241
921.618	0.29493906
921.787	0.29466714
921.957	0.2942309
922.127	0.29388415
922.296	0.29383498
922.466	0.29343524
922.636	0.29321193
922.805	0.29287462
922.975	0.29241926
923.144	0.29189721
923.314	0.29159374
923.483	0.2911293
923.653	0.29080558
923.822	0.29039041
923.992	0.29002652
924.161	0.28983256
924.331	0.28955238
924.5	0.28918398
924.669	0.28857099
924.839	0.28816114
925.008	0.28782453
925.177	0.28737192
925.347	0.28696896
925.516	0.28678229
925.685	0.28644884
925.854	0.28625628
926.023	0.28569571
926.193	0.28530421
926.362	0.28481462
926.531	0.2844503
926.7	0.28394194
926.869	0.28381007
927.038	0.28329253
927.207	0.28324744
927.376	0.28296268
927.545	0.28277374
927.715	0.28222
927.884	0.28194452
928.052	0.28153472
928.221	0.28110741
928.39	0.28046145
928.559	0.27983172
928.728	0.27948975
928.897	0.27927281
929.066	0.27888433
929.235	0.27806256
929.404	0.27781758
929.572	0.27749176
929.741	0.27733062
929.91	0.27694461
930.079	0.27654048
930.247	0.27596636
930.416	0.27586067
930.585	0.27541542
930.753	0.27511099
930.922	0.27472296
931.091	0.27443507
931.259	0.27407299
931.428	0.27398978
931.596	0.27372282
931.765	0.2733857
931.934	0.27315263
932.102	0.27240959
932.27	0.27195512
932.439	0.27148189
932.607	0.27079728
932.776	0.27045011
932.944	0.27009939
933.113	0.26981613
933.281	0.26982764
933.449	0.2692931
933.618	0.26881326
933.786	0.26890542
933.954	0.26858871
934.123	0.2685226
934.291	0.2681311
934.459	0.26773471
934.627	0.26761117
934.795	0.26752191
934.964	0.26697375
935.132	0.26615451
935.3	0.26529636
935.468	0.26465685
935.636	0.26438441
935.804	0.2638074
935.972	0.26318628
936.14	0.26281569
936.308	0.26276283
936.476	0.26254047
936.644	0.26227333
936.812	0.26184311
936.98	0.26166612
937.148	0.26171858
937.316	0.26122265
937.484	0.26141889
937.652	0.26078465
937.82	0.26106235
937.987	0.26053973
938.155	0.26029126
938.323	0.25972837
938.491	0.25914546
938.658	0.25897763
938.826	0.25873195
938.994	0.2579577
939.162	0.25811919
939.329	0.25797987
939.497	0.25803537
939.665	0.25781898
939.832	0.25770208
940	0.25798386
940.167	0.25755372
940.335	0.25656605
940.502	0.25530918
940.67	0.25526049
940.837	0.25579264
941.005	0.2541879
941.172	0.25422267
941.34	0.25443948
941.507	0.25603676
941.674	0.25756626
941.842	0.25689729
942.009	0.25700147
942.177	0.25610212
942.344	0.2567169
942.511	0.25645234
942.678	0.25572392
942.846	0.25429126
943.013	0.25408833
943.18	0.25326325
943.347	0.25465863
943.514	0.25355742
943.682	0.25463311
943.849	0.25339076
944.016	0.2525959
944.183	0.25127669
944.35	0.25115592
944.517	0.25097271
944.684	0.2513259
944.851	0.24636413
945.018	0.24587431
945.185	0.24494813
945.352	0.24483727
945.519	0.244082
945.686	0.24268426
945.853	0.24360624
946.02	0.24448636
946.187	0.24423901
946.353	0.24710247
946.52	0.24745067
946.687	0.24644971
946.854	0.24613945
947.021	0.243314
947.187	0.24304425
947.354	0.24119936
947.521	0.23881595
947.687	0.23745467
947.854	0.23754122
948.021	0.23638589
948.187	0.23669257
948.354	0.23648662
948.52	0.23655568
948.687	0.23645055
948.854	0.23673869
949.02	0.23531234
949.187	0.23585362
949.353	0.23515405
949.52	0.23404357
949.686	0.23375633
949.852	0.23348293
950.019	0.23226151
950.185	0.23284066
950.352	0.23155406
950.518	0.22998946
950.684	0.23094166
950.851	0.23065911
951.017	0.22944833
951.183	0.22944987
951.349	0.22864421
951.516	0.22784102
951.682	0.22811254
951.848	0.22619221
952.014	0.22530937
952.18	0.22518613
952.346	0.22478084
952.512	0.22424961
952.679	0.22454724
952.845	0.2240701
953.011	0.22397267
953.177	0.22395946
953.343	0.22303074
953.509	0.22281147
953.675	0.22205698
953.841	0.22147053
954.007	0.22128108
954.172	0.2213484
954.338	0.22011737
954.504	0.21938093
954.67	0.21813148
954.836	0.21802622
955.002	0.21774926
955.167	0.21707808
955.333	0.21560693
955.499	0.2156067
955.665	0.21506603
955.83	0.21485481
955.996	0.21412314
956.162	0.2129184
956.327	0.21218532
956.493	0.21199722
956.659	0.21177465
956.824	0.21161455
956.99	0.21124971
957.155	0.2103862
957.321	0.21045971
957.486	0.21020726
957.652	0.20993661
957.817	0.20960065
957.983	0.20908954
958.148	0.20807437
958.314	0.20810313
958.479	0.20668277
958.644	0.20612699
958.81	0.20582095
958.975	0.20542499
959.14	0.20532542
959.306	0.20528119
959.471	0.20491884
959.636	0.20473118
959.801	0.20485368
959.967	0.20447795
960.132	0.20396385
960.297	0.203201
960.462	0.20313369
960.627	0.20268577
960.792	0.20259441
960.957	0.20162817
961.123	0.20128792
961.288	0.20055523
961.453	0.20037599
961.618	0.19997655
961.783	0.19991903
961.948	0.1992129
962.113	0.19867316
962.277	0.19792893
962.442	0.19775029
962.607	0.19712367
962.772	0.19659363
962.937	0.19586663
963.102	0.1959952
963.267	0.19628937
963.431	0.19648068
963.596	0.1961319
963.761	0.19558823
963.926	0.19521706
964.09	0.19499956
964.255	0.19464596
964.42	0.19421839
964.584	0.19391666
964.749	0.19340444
964.914	0.19298453
965.078	0.19220683
965.243	0.19179809
965.407	0.1912074
965.572	0.19068517
965.736	0.19041332
965.901	0.19057644
966.065	0.19113027
966.23	0.19122173
966.394	0.1912946
966.559	0.19111881
966.723	0.1907342
966.887	0.19015735
967.052	0.1895169
967.216	0.18855209
967.38	0.18758383
967.545	0.18676862
967.709	0.18689146
967.873	0.18692288
968.037	0.18689885
968.202	0.18687454
968.366	0.18704006
968.53	0.18751317
968.694	0.18757958
968.858	0.18715733
969.022	0.18653022
969.187	0.18586767
969.351	0.18538998
969.515	0.18511662
969.679	0.18419122
969.843	0.18333015
970.007	0.18235647
970.171	0.18226133
970.335	0.18192117
970.499	0.18142885
970.662	0.18074041
970.826	0.18059221
970.99	0.18068582
971.154	0.1805427
971.318	0.17979576
971.482	0.1791461
971.645	0.17856772
971.809	0.17864886
971.973	0.17866051
972.137	0.1779237
972.3	0.17778914
972.464	0.17759434
972.628	0.17789873
972.791	0.17832436
972.955	0.17776282
973.119	0.17750124
973.282	0.17758583
973.446	0.17726126
973.609	0.17712281
973.773	0.17672693
973.936	0.17571019
974.1	0.17519699
974.263	0.17455136
974.427	0.17417947
974.59	0.17385291
974.754	0.17321683
974.917	0.17294515
975.08	0.17293282
975.244	0.17247339
975.407	0.17235191
975.57	0.17185495
975.734	0.17128495
975.897	0.17079031
976.06	0.1702471
976.223	0.17000112
976.387	0.17001108
976.55	0.1694653
976.713	0.16916861
976.876	0.16934747
977.039	0.16911615
977.202	0.16872755
977.365	0.16823171
977.528	0.16789217
977.692	0.16809648
977.855	0.16768318
978.018	0.16696009
978.181	0.16701597
978.344	0.16671374
978.506	0.16658575
978.669	0.16648536
978.832	0.16584132
978.995	0.16583436
979.158	0.16602542
979.321	0.16602151
979.484	0.16577708
979.646	0.16534314
979.809	0.16485448
979.972	0.16450554
980.135	0.16460896
980.297	0.16407053
980.46	0.16357251
980.623	0.16391179
980.786	0.16379348
980.948	0.16356405
981.111	0.16320031
981.273	0.16248616
981.436	0.16184351
981.599	0.1613979
981.761	0.15993793
981.924	0.1598937
982.086	0.15942444
982.249	0.15930609
982.411	0.15895187
982.573	0.15904588
982.736	0.15939512
982.898	0.15947805
983.061	0.15878738
983.223	0.15887115
983.385	0.15846076
983.548	0.15842573
983.71	0.15782079
983.872	0.15701487
984.034	0.15688231
984.197	0.15641403
984.359	0.15591645
984.521	0.15629223
984.683	0.15590402
984.845	0.15616517
985.008	0.15542663
985.17	0.15548123
985.332	0.15591513
985.494	0.1550714
985.656	0.15455631
985.818	0.15390703
985.98	0.15375452
986.142	0.15356949
986.304	0.15281309
986.466	0.15146668
986.628	0.15149439
986.79	0.15100186
986.952	0.15067662
987.113	0.14974303
987.275	0.14964449
987.437	0.149715
987.599	0.14998468
987.761	0.15000408
987.922	0.14938222
988.084	0.14894954
988.246	0.1486955
988.408	0.14808298
988.569	0.1473258
988.731	0.14678814
988.893	0.14652326
989.054	0.14676602
989.216	0.14687427
989.377	0.14626774
989.539	0.14604059
989.701	0.14591984
989.862	0.1455082
990.024	0.14483062
990.185	0.14403656
990.347	0.14392011
990.508	0.14381505
990.669	0.14372325
990.831	0.1431353
990.992	0.14337355
991.154	0.14312298
991.315	0.14339234
991.476	0.14326016
991.638	0.14335019
991.799	0.14284374
991.96	0.14314175
992.121	0.14313524
992.283	0.14309609
992.444	0.14258589
992.605	0.14153329
992.766	0.14093873
992.927	0.14093578
993.088	0.14055582
993.249	0.1401512
993.41	0.13946028
993.572	0.13886357
993.733	0.13898135
993.894	0.1388404
994.055	0.13822736
994.216	0.13794942
994.376	0.1374414
994.537	0.13779087
994.698	0.13789297
994.859	0.13754408
995.02	0.13744638
995.181	0.13700786
995.342	0.13684266
995.503	0.13655926
995.663	0.13639121
995.824	0.13591367
995.985	0.13651991
996.146	0.1359563
996.306	0.13620799
996.467	0.13585357
996.628	0.13562407
996.788	0.135274
996.949	0.1356026
997.11	0.13462585
997.27	0.13422724
997.431	0.13418246
997.591	0.13361698
997.752	0.13313608
997.912	0.13280528
998.073	0.13217632
998.233	0.13225457
998.394	0.13236288
998.554	0.13188815
998.714	0.13191467
998.875	0.13174398
999.035	0.13101429
999.196	0.13062106
999.356	0.13017438
999.516	0.13025456
999.676	0.1303464
999.837	0.1300787
999.997	0.12971822
1000.157	0.12994805
1000.317	0.12875988
1000.477	0.12863125
1000.638	0.12766164
1000.798	0.12728476
1000.958	0.1272157
1001.118	0.12739192
1001.278	0.12711402
1001.438	0.12757696
1001.598	0.12710777
1001.758	0.12713973
1001.918	0.12712661
1002.078	0.12623211
1002.238	0.12622058
1002.398	0.12583561
1002.558	0.12522025
1002.718	0.12533454
1002.878	0.12578355
1003.037	0.12400716
1003.197	0.12407436
1003.357	0.12309556
1003.517	0.12304198
1003.677	0.12313315
1003.836	0.12234121
1003.996	0.12186706
1004.156	0.12298659
1004.315	0.12367988
1004.475	0.12469386
1004.635	0.12484412
1004.794	0.12524833
1004.954	0.12525993
1005.114	0.12441603
1005.273	0.12498795
1005.433	0.12353955
1005.592	0.12334582
1005.752	0.12257122
1005.911	0.12144996
1006.071	0.12199362
1006.23	0.12205015
1006.389	0.12134745
1006.549	0.12165114
1006.708	0.12015288
1006.868	0.11951054
1007.027	0.12024802
1007.186	0.12028107
1007.345	0.12059558
1007.505	0.12001144
1007.664	0.11988872
1007.823	0.11998788
1007.982	0.12116017
1008.142	0.12083802
1008.301	0.12007901
1008.46	0.11962495
1008.619	0.11822279
1008.778	0.11787319
1008.937	0.1177687
1009.096	0.11708531
1009.255	0.11644866
1009.414	0.11483185
1009.573	0.11459576
1009.732	0.11579651
1009.891	0.1156927
1010.05	0.11588592
1010.209	0.11566272
1010.368	0.11513287
1010.527	0.11605697
1010.686	0.11585132
1010.845	0.11456639
1011.003	0.11448958
1011.162	0.11380464
1011.321	0.1125275
1011.48	0.11417539
1011.638	0.11416675
1011.797	0.11477992
1011.956	0.11558101
1012.115	0.11601295
1012.273	0.11529459
1012.432	0.11605308
1012.59	0.11486208
1012.749	0.1149828
1012.908	0.11317884
1013.066	0.11301162
1013.225	0.11234315
1013.383	0.11310027
1013.542	0.11313192
1013.7	0.11298176
1013.859	0.11260341
1014.017	0.11423817
1014.175	0.11389696
1014.334	0.11427232
1014.492	0.11456105
1014.65	0.11385983
1014.809	0.11428544
1014.967	0.11431978
1015.125	0.11367764
1015.284	0.11493687
1015.442	0.11439878
1015.6	0.11318815
1015.758	0.11279169
1015.916	0.11183633
1016.075	0.11090394
1016.233	0.11099763
1016.391	0.11088835
1016.549	0.11040219
1016.707	0.11066851
1016.865	0.11047572
1017.023	0.11046429
1017.181	0.1111337
1017.339	0.11080364
1017.497	0.10907878
1017.655	0.10918099
1017.813	0.10920177
1017.971	0.10990139
1018.129	0.10971119
1018.286	0.10878754
1018.444	0.10792073
1018.602	0.10889117
1018.76	0.10881946
1018.918	0.11011282
1019.075	0.10954229
1019.233	0.10916886
1019.391	0.11021899
1019.549	0.11185663
1019.706	0.11141887
1019.864	0.11289822
1020.022	0.1104557
1020.179	0.11097333
1020.337	0.11176188
1020.494	0.11210741
1020.652	0.11054195
1020.809	0.11063014
1020.967	0.10879775
1021.124	0.10899167
1021.282	0.11006157
1021.439	0.10855796
1021.597	0.10768669
1021.754	0.10681949
1021.911	0.10937014
1022.069	0.108463
1022.226	0.10890693
1022.384	0.10652228
1022.541	0.10753133
1022.698	0.1068601
1022.855	0.10828199
1023.013	0.10632166
1023.17	0.10618021
1023.327	0.10717179
1023.484	0.10883416
1023.641	0.10917709
1023.798	0.10982257
1023.956	0.11241325
1024.113	0.1115338
1024.27	0.11265804
1024.427	0.11138014
1024.584	0.11025188
1024.741	0.10921146
1024.898	0.10759697
1025.055	0.10343674
1025.212	0.10099616
1025.369	0.10044926
1025.525	0.10082819
1025.682	0.10117027
1025.839	0.10137276
1025.996	0.10142085
1026.153	0.10308105
1026.31	0.10614997
1026.466	0.10754482
1026.623	0.10828364
1026.78	0.11012262
1026.937	0.11039697
1027.093	0.11244372
1027.25	0.11348573
1027.407	0.11309159
1027.563	0.1116369
1027.72	0.10986397
1027.876	0.10630325
1028.033	0.10827842
1028.19	0.1074608
1028.346	0.10484867
1028.503	0.10466499
1028.659	0.10562431
1028.816	0.10794047
1028.972	0.11089231
1029.128	0.11055492
1029.285	0.11129381
1029.441	0.11344362
1029.598	0.11388279
1029.754	0.11363387
1029.91	0.11134789
1030.067	0.10819461
1030.223	0.10893084
1030.379	0.10849648
1030.535	0.10807667
1030.691	0.10591164
1030.848	0.10626025
1031.004	0.10757024
1031.16	0.11203313
1031.316	0.11162604
1031.472	0.1147565
1031.628	0.11489481
1031.784	0.11945457
1031.94	0.12040471
1032.096	0.12683733
1032.252	0.12513259
1032.408	0.12548524
1032.564	0.12370216
1032.72	0.12490626
1032.876	0.12293318
1033.032	0.1227395
1033.188	0.11759542
1033.344	0.12068202
1033.5	0.12210741
1033.655	0.12234919
1033.811	0.12338195
1033.967	0.12519196
