Data from 0_1_mm_pl_30pc_Absorbance__0__15-25-53-590.txt Node

Date: Fri Feb 24 15:25:53 CET 2023
User: Ange
Spectrometer: FLMT08341
Trigger mode: 0
Integration Time (sec): 1.000000E-2
Scans to average: 400
Electric dark correction enabled: true
Nonlinearity correction enabled: false
Boxcar width: 3
XAxis mode: Wavelengths
Number of Pixels in Spectrum: 3648
>>>>>Begin Spectral Data<<<<<
345.271	0.03121674
345.487	0.02918229
345.704	0.02215341
345.921	0.02094423
346.137	0.00728338
346.354	-0.00115757
346.571	-0.04129018
346.787	-0.07086074
347.004	0.0119277
347.22	-0.00708216
347.437	-0.10927532
347.653	-0.35887328
347.87	0.63376121
348.086	-0
348.303	0.22821737
348.519	0.58712383
348.736	0.58866849
348.952	0.59425815
349.169	0.61364819
349.385	0.65451429
349.601	0.657529
349.818	0.65492228
350.034	0.64207818
350.251	0.63966624
350.467	0.65003078
350.683	0.62650151
350.9	0.61688555
351.116	0.60728707
351.332	0.60009997
351.549	0.61914621
351.765	0.63595729
351.981	0.64061449
352.197	0.66855151
352.414	0.70381855
352.63	0.72075159
352.846	0.73806264
353.062	0.72149648
353.278	0.70078624
353.495	0.72293216
353.711	0.72207292
353.927	0.72383378
354.143	0.72131246
354.359	0.71606823
354.575	0.71224684
354.792	0.73647148
355.008	0.71577099
355.224	0.70727726
355.44	0.69938903
355.656	0.69601556
355.872	0.70525733
356.088	0.75226554
356.304	0.75365856
356.52	0.75491923
356.736	0.75714341
356.952	0.75952042
357.168	0.76086758
357.384	0.76524069
357.6	0.73155363
357.816	0.7399115
358.032	0.7566248
358.248	0.78394271
358.464	0.7826592
358.679	0.79578384
358.895	0.79722824
359.111	0.81380131
359.327	0.79173148
359.543	0.79145832
359.759	0.79422345
359.974	0.78795634
360.19	0.77895573
360.406	0.77737099
360.622	0.76590294
360.838	0.75751182
361.053	0.7591794
361.269	0.75837261
361.485	0.76531864
361.701	0.76982171
361.916	0.75569926
362.132	0.75437974
362.348	0.76386225
362.563	0.76595061
362.779	0.75599582
362.995	0.76190742
363.21	0.77200696
363.426	0.77904907
363.641	0.78115506
363.857	0.78474252
364.073	0.7710637
364.288	0.76123164
364.504	0.76995058
364.719	0.76300786
364.935	0.76038252
365.15	0.76019653
365.366	0.75788346
365.581	0.770641
365.797	0.77583548
366.012	0.75649495
366.228	0.74364597
366.443	0.7539043
366.658	0.75135734
366.874	0.74214696
367.089	0.7457516
367.305	0.74420213
367.52	0.74777401
367.735	0.74852558
367.951	0.73694224
368.166	0.74026746
368.381	0.75454258
368.597	0.74454772
368.812	0.74724986
369.027	0.75343754
369.243	0.75783973
369.458	0.77260257
369.673	0.77145563
369.888	0.76772737
370.104	0.7590974
370.319	0.76218362
370.534	0.75159972
370.749	0.75196765
370.964	0.75330406
371.179	0.74813122
371.395	0.73799265
371.61	0.74561434
371.825	0.73191674
372.04	0.73467055
372.255	0.72485922
372.47	0.71116382
372.685	0.70237661
372.9	0.69924716
373.115	0.68854407
373.33	0.69026684
373.545	0.68503498
373.76	0.68500752
373.975	0.67733361
374.19	0.67545282
374.405	0.67636991
374.62	0.68396119
374.835	0.68765517
375.05	0.68500937
375.265	0.68317467
375.48	0.68549414
375.695	0.69637996
375.91	0.69000843
376.125	0.67514518
376.339	0.66184499
376.554	0.66022805
376.769	0.65813659
376.984	0.65480163
377.199	0.65014774
377.414	0.64591746
377.628	0.65089075
377.843	0.6532258
378.058	0.65160239
378.273	0.6505128
378.487	0.64895798
378.702	0.64686163
378.917	0.64422254
379.131	0.63776747
379.346	0.63056903
379.561	0.62465881
379.775	0.61918529
379.99	0.61207414
380.205	0.60249035
380.419	0.59617784
380.634	0.58736892
380.848	0.5886908
381.063	0.58567504
381.278	0.58961281
381.492	0.58374074
381.707	0.58421586
381.921	0.58117719
382.136	0.585486
382.35	0.579137
382.565	0.57241196
382.779	0.56588798
382.994	0.56548642
383.208	0.55794667
383.422	0.56124525
383.637	0.55726725
383.851	0.55720565
384.066	0.56022954
384.28	0.55845482
384.494	0.55636798
384.709	0.55780796
384.923	0.55363376
385.137	0.54691285
385.352	0.54397809
385.566	0.54088965
385.78	0.53553254
385.995	0.53146476
386.209	0.52732831
386.423	0.52646132
386.637	0.52649882
386.852	0.5219952
387.066	0.51876758
387.28	0.51540737
387.494	0.51587863
387.708	0.51285536
387.923	0.50784336
388.137	0.50765593
388.351	0.50542993
388.565	0.50361377
388.779	0.50258909
388.993	0.50267503
389.207	0.50166317
389.421	0.50080984
389.635	0.49452027
389.85	0.49205357
390.064	0.48866341
390.278	0.4859716
390.492	0.48155231
390.706	0.47915679
390.92	0.47564814
391.134	0.47585533
391.348	0.47709216
391.561	0.47449934
391.775	0.47174859
391.989	0.46770218
392.203	0.46566078
392.417	0.46408737
392.631	0.4631016
392.845	0.45813285
393.059	0.45775354
393.273	0.45446923
393.486	0.45076394
393.7	0.44669295
393.914	0.44555085
394.128	0.44192057
394.342	0.43897299
394.555	0.43405578
394.769	0.43327212
394.983	0.43307736
395.197	0.43323599
395.41	0.43090279
395.624	0.42957776
395.838	0.42797671
396.051	0.4294494
396.265	0.42569936
396.479	0.42457152
396.692	0.42150562
396.906	0.4183994
397.12	0.4153918
397.333	0.4144364
397.547	0.41122389
397.76	0.41191653
397.974	0.4098096
398.187	0.40855992
398.401	0.40844588
398.614	0.40699774
398.828	0.40442659
399.041	0.40290208
399.255	0.40019153
399.468	0.3984913
399.682	0.39673884
399.895	0.39512194
400.109	0.39398647
400.322	0.39243799
400.536	0.38901454
400.749	0.38863626
400.962	0.38732839
401.176	0.38459189
401.389	0.38197855
401.602	0.37867956
401.816	0.37781244
402.029	0.37737465
402.242	0.37499841
402.456	0.37329065
402.669	0.37191357
402.882	0.36924213
403.095	0.36950495
403.309	0.36809307
403.522	0.36712719
403.735	0.36547237
403.948	0.36368761
404.161	0.36460466
404.375	0.36442601
404.588	0.36317583
404.801	0.36188971
405.014	0.35954156
405.227	0.35928074
405.44	0.35850766
405.653	0.35701707
405.866	0.35450098
406.079	0.35257845
406.293	0.35091161
406.506	0.35004184
406.719	0.34842393
406.932	0.34682486
407.145	0.34454283
407.358	0.34535633
407.571	0.34394928
407.784	0.34350928
407.996	0.34308875
408.209	0.34093368
408.422	0.339416
408.635	0.33874948
408.848	0.33711518
409.061	0.33557637
409.274	0.33387704
409.487	0.33224499
409.7	0.33162125
409.912	0.33125033
410.125	0.33014762
410.338	0.32914752
410.551	0.32826242
410.764	0.32776344
410.976	0.32690004
411.189	0.32606172
411.402	0.32470597
411.615	0.32386486
411.827	0.32274855
412.04	0.32234756
412.253	0.32090572
412.465	0.31983899
412.678	0.31872765
412.891	0.31847102
413.103	0.31675253
413.316	0.31592713
413.529	0.31551893
413.741	0.31518179
413.954	0.31491662
414.166	0.31437723
414.379	0.31326109
414.591	0.31338753
414.804	0.31236789
415.016	0.31156548
415.229	0.31025199
415.441	0.30879398
415.654	0.30827563
415.866	0.30773994
416.079	0.30698234
416.291	0.30609031
416.504	0.3057861
416.716	0.30543996
416.928	0.30509362
417.141	0.30406914
417.353	0.30317073
417.566	0.30188112
417.778	0.30186074
417.99	0.30041684
418.203	0.2993692
418.415	0.2985216
418.627	0.29811372
418.839	0.29791833
419.052	0.29834943
419.264	0.29761554
419.476	0.29721548
419.688	0.29704646
419.901	0.29696903
420.113	0.29644853
420.325	0.2955295
420.537	0.29434674
420.749	0.2941847
420.961	0.29355213
421.174	0.29309021
421.386	0.2920248
421.598	0.29158093
421.81	0.29110666
422.022	0.29034873
422.234	0.28923124
422.446	0.28871178
422.658	0.28785775
422.87	0.28789281
423.082	0.28732435
423.294	0.28696203
423.506	0.28696997
423.718	0.2866365
423.93	0.2858904
424.142	0.28565807
424.354	0.28478159
424.566	0.28403779
424.778	0.28350221
424.99	0.28267199
425.202	0.28194336
425.414	0.28162849
425.625	0.28131191
425.837	0.28065835
426.049	0.28052537
426.261	0.28003807
426.473	0.27969002
426.684	0.27966473
426.896	0.27966907
427.108	0.27887604
427.32	0.27888512
427.531	0.2782668
427.743	0.2779555
427.955	0.27793235
428.167	0.27736343
428.378	0.2767207
428.59	0.27652541
428.802	0.27625028
429.013	0.27563399
429.225	0.27529537
429.436	0.27492806
429.648	0.27482886
429.86	0.27487464
430.071	0.27471548
430.283	0.27443139
430.494	0.27439036
430.706	0.27428027
430.917	0.27355023
431.129	0.27319729
431.34	0.2726952
431.552	0.27259318
431.763	0.27199955
431.975	0.27200342
432.186	0.27142497
432.398	0.27139713
432.609	0.27083552
432.821	0.27057364
433.032	0.27028806
433.243	0.2699841
433.455	0.26958375
433.666	0.26952612
433.877	0.26942604
434.089	0.26914565
434.3	0.26880361
434.511	0.26820641
434.723	0.26785081
434.934	0.26738895
435.145	0.2668814
435.356	0.26641002
435.568	0.2663513
435.779	0.26607009
435.99	0.26561309
436.201	0.26546422
436.412	0.26524015
436.624	0.26525884
436.835	0.26525564
437.046	0.26516584
437.257	0.26506556
437.468	0.26534447
437.679	0.26546085
437.89	0.26524332
438.101	0.2651021
438.312	0.26471927
438.523	0.26437929
438.734	0.26429739
438.945	0.26393969
439.156	0.26347116
439.367	0.26358313
439.578	0.26348718
439.789	0.26322301
440	0.26331503
440.211	0.2628023
440.422	0.26275604
440.633	0.2630102
440.844	0.26255466
441.055	0.26222018
441.266	0.26243435
441.477	0.2621516
441.687	0.26224521
441.898	0.2621064
442.109	0.26170178
442.32	0.26178593
442.531	0.26143291
442.741	0.26094895
442.952	0.26067139
443.163	0.26056414
443.374	0.26016694
443.584	0.25990731
443.795	0.26005019
444.006	0.26018375
444.216	0.26011201
444.427	0.25995102
444.638	0.25961527
444.848	0.25952688
445.059	0.25938267
445.27	0.25894147
445.48	0.25869047
445.691	0.25868292
445.901	0.25858496
446.112	0.25860009
446.323	0.25849079
446.533	0.25826361
446.744	0.25811191
446.954	0.2579659
447.165	0.25786956
447.375	0.25805737
447.586	0.25798998
447.796	0.25799833
448.006	0.25801587
448.217	0.25807209
448.427	0.25802665
448.638	0.25772929
448.848	0.25729329
449.058	0.25719103
449.269	0.25713903
449.479	0.25716737
449.689	0.2570107
449.9	0.25703744
450.11	0.25710576
450.32	0.25731492
450.531	0.2572574
450.741	0.25712102
450.951	0.25701217
451.161	0.25695843
451.372	0.25688484
451.582	0.25724072
451.792	0.25696007
452.002	0.25687515
452.212	0.25671718
452.422	0.25683086
452.633	0.25680461
452.843	0.2569542
453.053	0.25647618
453.263	0.25653147
453.473	0.25645374
453.683	0.25672022
453.893	0.256487
454.103	0.25660195
454.313	0.2564319
454.523	0.25628634
454.733	0.25623589
454.943	0.25644609
455.153	0.25622045
455.363	0.25631136
455.573	0.25615596
455.783	0.25628776
455.993	0.25618321
456.203	0.25646965
456.413	0.25616485
456.623	0.25603653
456.833	0.25610947
457.042	0.25616931
457.252	0.25598312
457.462	0.2561626
457.672	0.25596099
457.882	0.25610562
458.091	0.25615048
458.301	0.25575607
458.511	0.25568682
458.721	0.25570088
458.931	0.25577122
459.14	0.25581495
459.35	0.25594578
459.56	0.25616312
459.769	0.25673639
459.979	0.25674755
460.189	0.25677551
460.398	0.25676102
460.608	0.25679354
460.817	0.25676307
461.027	0.25677814
461.237	0.25662383
461.446	0.25670051
461.656	0.25681331
461.865	0.25699437
462.075	0.25694989
462.284	0.25701124
462.494	0.25709164
462.703	0.25710952
462.913	0.25720089
463.122	0.25715338
463.332	0.25708249
463.541	0.25730748
463.751	0.25731769
463.96	0.2574952
464.169	0.25759371
464.379	0.25786657
464.588	0.25795361
464.797	0.25807132
465.007	0.25823707
465.216	0.25843047
465.425	0.25842195
465.635	0.25855632
465.844	0.2586397
466.053	0.25894972
466.263	0.25913905
466.472	0.25920612
466.681	0.25936395
466.89	0.25945954
467.099	0.25972621
467.309	0.25968474
467.518	0.25978861
467.727	0.25994025
467.936	0.26008084
468.145	0.26025534
468.354	0.2605156
468.563	0.26060772
468.772	0.26090097
468.982	0.26095149
469.191	0.26118879
469.4	0.26132498
469.609	0.26154723
469.818	0.26192668
470.027	0.26215985
470.236	0.26233669
470.445	0.26265589
470.654	0.26269081
470.863	0.26276236
471.072	0.26286587
471.28	0.2627094
471.489	0.26293441
471.698	0.26304744
471.907	0.2632876
472.116	0.2636506
472.325	0.26395922
472.534	0.26422512
472.743	0.26447993
472.951	0.26480449
473.16	0.26510339
473.369	0.2652269
473.578	0.26545761
473.786	0.2657169
473.995	0.26605051
474.204	0.26644754
474.413	0.26651653
474.621	0.26686028
474.83	0.26715807
475.039	0.26730968
475.247	0.26766261
475.456	0.26783659
475.665	0.26811461
475.873	0.26832595
476.082	0.26845661
476.291	0.26876119
476.499	0.26914693
476.708	0.2692191
476.916	0.26953534
477.125	0.26972011
477.333	0.27009895
477.542	0.27044405
477.75	0.2706551
477.959	0.27094142
478.167	0.27142148
478.376	0.27156871
478.584	0.27186794
478.793	0.27208144
479.001	0.27226568
479.209	0.27256619
479.418	0.27281948
479.626	0.27306419
479.834	0.27344119
480.043	0.27375168
480.251	0.2740251
480.459	0.27434663
480.668	0.27464563
480.876	0.2749634
481.084	0.27521945
481.293	0.27562798
481.501	0.27595996
481.709	0.27639553
481.917	0.2767471
482.125	0.27702946
482.334	0.27732075
482.542	0.27770756
482.75	0.27795513
482.958	0.27831275
483.166	0.27865335
483.374	0.27905613
483.583	0.27944655
483.791	0.2798406
483.999	0.28007332
484.207	0.28048309
484.415	0.28092215
484.623	0.28124071
484.831	0.28153433
485.039	0.28200964
485.247	0.28233497
485.455	0.28280881
485.663	0.2832529
485.871	0.28358686
486.079	0.28387914
486.287	0.2843183
486.495	0.28460701
486.702	0.2849817
486.91	0.28537138
487.118	0.2856377
487.326	0.28598266
487.534	0.28649198
487.742	0.28693014
487.95	0.28737489
488.157	0.28790244
488.365	0.28842754
488.573	0.28896404
488.781	0.28944949
488.988	0.2899489
489.196	0.2903988
489.404	0.29085747
489.612	0.291283
489.819	0.29170698
490.027	0.29214489
490.235	0.29254175
490.442	0.29299426
490.65	0.29342628
490.857	0.29394894
491.065	0.29437282
491.273	0.29478318
491.48	0.29521584
491.688	0.29565853
491.895	0.29615892
492.103	0.29670236
492.31	0.29710395
492.518	0.29756012
492.725	0.29811829
492.933	0.29864048
493.14	0.29912716
493.348	0.29948734
493.555	0.2998773
493.763	0.30035265
493.97	0.30090376
494.177	0.30139274
494.385	0.30190644
494.592	0.30247036
494.8	0.30293467
495.007	0.30352543
495.214	0.30402632
495.422	0.30449221
495.629	0.30495825
495.836	0.30535453
496.043	0.30584786
496.251	0.30654768
496.458	0.30696164
496.665	0.30754813
496.872	0.30811132
497.08	0.30860127
497.287	0.30918461
497.494	0.30969739
497.701	0.31017102
497.908	0.31075075
498.115	0.31122239
498.322	0.31168508
498.53	0.31215719
498.737	0.31262289
498.944	0.31315901
499.151	0.31372819
499.358	0.31429671
499.565	0.31470503
499.772	0.31528918
499.979	0.31593936
500.186	0.31654759
500.393	0.31718253
500.6	0.31769473
500.807	0.31826521
501.014	0.31892275
501.221	0.31952264
501.427	0.3199894
501.634	0.32059648
501.841	0.32113475
502.048	0.3217085
502.255	0.32219375
502.462	0.32288673
502.669	0.32349735
502.875	0.32421589
503.082	0.32474384
503.289	0.32529084
503.496	0.32591047
503.702	0.32657377
503.909	0.3271117
504.116	0.32766118
504.323	0.32823931
504.529	0.328956
504.736	0.32961298
504.943	0.33020878
505.149	0.33089978
505.356	0.3315409
505.563	0.33218734
505.769	0.33283061
505.976	0.333437
506.182	0.33413422
506.389	0.33478077
506.595	0.33544229
506.802	0.33607128
507.008	0.3366573
507.215	0.33728648
507.421	0.33789788
507.628	0.33846717
507.834	0.33907313
508.041	0.33960307
508.247	0.34025653
508.454	0.34099388
508.66	0.34161388
508.866	0.34226588
509.073	0.3429898
509.279	0.34373541
509.486	0.3444916
509.692	0.34512369
509.898	0.34576418
510.105	0.34652669
510.311	0.34717957
510.517	0.34781973
510.723	0.34845222
510.93	0.34904233
511.136	0.34983431
511.342	0.3504809
511.548	0.35109162
511.754	0.35192526
511.961	0.35262023
512.167	0.35329217
512.373	0.35403313
512.579	0.35466334
512.785	0.35543067
512.991	0.35619337
513.197	0.35676047
513.404	0.35750042
513.61	0.35824223
513.816	0.35891392
514.022	0.35967523
514.228	0.36027984
514.434	0.36098253
514.64	0.36173012
514.846	0.3624337
515.052	0.36308796
515.258	0.36382784
515.464	0.36445892
515.669	0.36520722
515.875	0.36585645
516.081	0.36655779
516.287	0.36726922
516.493	0.36809663
516.699	0.36879987
516.905	0.36958992
517.111	0.37031745
517.316	0.37103344
517.522	0.37178462
517.728	0.37253839
517.934	0.37321178
518.139	0.37399894
518.345	0.37465981
518.551	0.37549022
518.757	0.37629487
518.962	0.37698986
519.168	0.37774882
519.374	0.37839556
519.579	0.37908232
519.785	0.37987602
519.991	0.38063245
520.196	0.3813298
520.402	0.3820727
520.607	0.3827673
520.813	0.38369801
521.018	0.38449047
521.224	0.38517564
521.429	0.38590514
521.635	0.38670757
521.84	0.38749432
522.046	0.38826214
522.251	0.38891383
522.457	0.38962631
522.662	0.39049415
522.868	0.39127962
523.073	0.39201849
523.279	0.39275963
523.484	0.39343468
523.689	0.39430997
523.895	0.39511844
524.1	0.3958233
524.305	0.39656051
524.511	0.39730455
524.716	0.39808214
524.921	0.39889408
525.126	0.39958042
525.332	0.40034836
525.537	0.40112307
525.742	0.4019276
525.947	0.40276278
526.153	0.40352256
526.358	0.40439182
526.563	0.40520008
526.768	0.40597219
526.973	0.40682573
527.178	0.40762513
527.383	0.40837008
527.588	0.40919355
527.794	0.40991746
527.999	0.41066066
528.204	0.41136765
528.409	0.41206829
528.614	0.41280027
528.819	0.41359449
529.024	0.41430573
529.229	0.41504842
529.434	0.41586409
529.639	0.41672803
529.843	0.41752145
530.048	0.41828606
530.253	0.41904314
530.458	0.41991441
530.663	0.42075565
530.868	0.42152872
531.073	0.42221119
531.278	0.42292537
531.482	0.42367774
531.687	0.42446413
531.892	0.42523557
532.097	0.42598043
532.302	0.42683964
532.506	0.4277009
532.711	0.42849611
532.916	0.42935276
533.12	0.43014233
533.325	0.43083894
533.53	0.43166297
533.734	0.43234836
533.939	0.4330981
534.144	0.43396267
534.348	0.43475255
534.553	0.43554536
534.757	0.43633954
534.962	0.43707272
535.167	0.43787242
535.371	0.43867796
535.576	0.43945531
535.78	0.44022308
535.985	0.44099579
536.189	0.44185189
536.394	0.44272264
536.598	0.44348496
536.803	0.44428212
537.007	0.44505262
537.211	0.44586345
537.416	0.44660137
537.62	0.44735779
537.825	0.44806199
538.029	0.4489173
538.233	0.44964563
538.438	0.45042605
538.642	0.45109225
538.846	0.45186982
539.05	0.45259772
539.255	0.45335869
539.459	0.45403246
539.663	0.45482405
539.867	0.4554945
540.072	0.45629843
540.276	0.45700488
540.48	0.45789249
540.684	0.45862099
540.888	0.45944944
541.092	0.4602176
541.297	0.46098647
541.501	0.46173485
541.705	0.46253042
541.909	0.46314329
542.113	0.46389299
542.317	0.46463376
542.521	0.46536618
542.725	0.46611933
542.929	0.46688645
543.133	0.46768953
543.337	0.4685116
543.541	0.46928479
543.745	0.46999064
543.949	0.47076301
544.153	0.47149607
544.357	0.47217204
544.56	0.47293412
544.764	0.47364806
544.968	0.47431181
545.172	0.47494224
545.376	0.4756717
545.58	0.4764463
545.783	0.47729053
545.987	0.47785562
546.191	0.47851896
546.395	0.47927348
546.598	0.48006523
546.802	0.48071562
547.006	0.48143079
547.21	0.48193044
547.413	0.48272744
547.617	0.48341881
547.821	0.48412792
548.024	0.48486234
548.228	0.48544577
548.431	0.48604337
548.635	0.4867928
548.839	0.4873948
549.042	0.48812042
549.246	0.4886791
549.449	0.48927024
549.653	0.49000599
549.856	0.49069721
550.06	0.49124694
550.263	0.4919466
550.467	0.49253403
550.67	0.49329894
550.874	0.49389746
551.077	0.49459525
551.28	0.49525717
551.484	0.49603509
551.687	0.49664451
551.891	0.49733407
552.094	0.49787064
552.297	0.49858311
552.501	0.49924036
552.704	0.49986583
552.907	0.50038382
553.11	0.50097775
553.314	0.50153383
553.517	0.50205879
553.72	0.50265121
553.923	0.50321613
554.127	0.50380024
554.33	0.50432618
554.533	0.5049387
554.736	0.50539716
554.939	0.50603083
555.142	0.50667821
555.345	0.50727017
555.549	0.50793688
555.752	0.50865549
555.955	0.50923668
556.158	0.5100276
556.361	0.51068759
556.564	0.51115744
556.767	0.51167995
556.97	0.51225035
557.173	0.5128077
557.376	0.51339268
557.579	0.51376956
557.782	0.51434859
557.984	0.51492473
558.187	0.51553533
558.39	0.51594176
558.593	0.51651719
558.796	0.51697488
558.999	0.5175331
559.202	0.51798971
559.404	0.51844405
559.607	0.51889432
559.81	0.51943055
560.013	0.51987194
560.216	0.52038437
560.418	0.52091206
560.621	0.52132532
560.824	0.52184848
561.026	0.52236998
561.229	0.52280949
561.432	0.52327279
561.634	0.52372837
561.837	0.52409685
562.04	0.52464903
562.242	0.52512398
562.445	0.52549389
562.647	0.52591344
562.85	0.52620942
563.053	0.52662571
563.255	0.52713876
563.458	0.52749625
563.66	0.52786177
563.863	0.52836365
564.065	0.52879905
564.268	0.52933453
564.47	0.52975328
564.672	0.53010317
564.875	0.53057006
565.077	0.53088178
565.28	0.5312408
565.482	0.53169131
565.684	0.53202483
565.887	0.53238994
566.089	0.5328715
566.291	0.53314372
566.494	0.53360845
566.696	0.53387458
566.898	0.53412582
567.1	0.53443609
567.303	0.53478861
567.505	0.53508109
567.707	0.53536064
567.909	0.53555272
568.111	0.53590794
568.314	0.5362933
568.516	0.53659953
568.718	0.53688344
568.92	0.53711695
569.122	0.53740711
569.324	0.53780992
569.526	0.53802299
569.728	0.53828872
569.93	0.53860568
570.132	0.53885425
570.334	0.53914031
570.536	0.5395089
570.738	0.5396866
570.94	0.53990636
571.142	0.54018882
571.344	0.54042758
571.546	0.5406775
571.748	0.5409679
571.95	0.54109825
572.152	0.54137994
572.354	0.54168381
572.555	0.54190678
572.757	0.54217488
572.959	0.54233767
573.161	0.54245411
573.363	0.54265934
573.564	0.54295139
573.766	0.5431275
573.968	0.54329527
574.17	0.54341575
574.371	0.54365615
574.573	0.54385955
574.775	0.54407235
574.976	0.54407021
575.178	0.54425096
575.38	0.5443271
575.581	0.54440973
575.783	0.54451994
575.985	0.54468158
576.186	0.54486182
576.388	0.54506797
576.589	0.54515487
576.791	0.54534658
576.992	0.54549882
577.194	0.54559921
577.395	0.54567997
577.597	0.54578476
577.798	0.54590933
578	0.54601605
578.201	0.5461564
578.402	0.54630348
578.604	0.54641508
578.805	0.54654334
579.007	0.54666947
579.208	0.54681528
579.409	0.54688646
579.611	0.54688201
579.812	0.54697315
580.013	0.54709239
580.215	0.54699656
580.416	0.54702018
580.617	0.54692495
580.818	0.54703518
581.019	0.54709652
581.221	0.54714873
581.422	0.54719227
581.623	0.54742108
581.824	0.54735224
582.025	0.54749074
582.226	0.54752063
582.428	0.54764595
582.629	0.54766278
582.83	0.54765372
583.031	0.54755864
583.232	0.54773204
583.433	0.54772764
583.634	0.54766192
583.835	0.54760847
584.036	0.54756449
584.237	0.5475295
584.438	0.54761111
584.639	0.54746354
584.84	0.54755603
585.041	0.54755914
585.242	0.54752477
585.442	0.54757752
585.643	0.54766336
585.844	0.54762632
586.045	0.54767889
586.246	0.54748374
586.447	0.54751232
586.647	0.5474877
586.848	0.54743422
587.049	0.54738373
587.25	0.54734139
587.45	0.5472334
587.651	0.54728989
587.852	0.54721926
588.053	0.54722096
588.253	0.54712818
588.454	0.54706881
588.655	0.54695782
588.855	0.54691607
589.056	0.54683097
589.256	0.54678414
589.457	0.54665347
589.658	0.54668093
589.858	0.54660145
590.059	0.54658474
590.259	0.54660861
590.46	0.5465472
590.66	0.54641628
590.861	0.54641147
591.061	0.5463051
591.262	0.54635078
591.462	0.54640833
591.662	0.54634389
591.863	0.5462926
592.063	0.5463332
592.264	0.54626861
592.464	0.54624252
592.664	0.54615302
592.865	0.54616923
593.065	0.54595157
593.265	0.54600219
593.465	0.54586471
593.666	0.54579766
593.866	0.54565578
594.066	0.54561479
594.266	0.54537619
594.467	0.54530542
594.667	0.54512037
594.867	0.54509441
595.067	0.54492912
595.267	0.54484507
595.467	0.54467937
595.668	0.54463046
595.868	0.54461807
596.068	0.54453068
596.268	0.54437936
596.468	0.54435124
596.668	0.54427136
596.868	0.54410254
597.068	0.5439586
597.268	0.54392285
597.468	0.54384501
597.668	0.54380247
597.868	0.54372754
598.068	0.54374393
598.268	0.54376194
598.467	0.54383584
598.667	0.54374178
598.867	0.54358924
599.067	0.54359751
599.267	0.54357752
599.467	0.54341887
599.667	0.54325075
599.866	0.54312547
600.066	0.54307827
600.266	0.54308076
600.466	0.54299016
600.665	0.54285905
600.865	0.54277222
601.065	0.54277292
601.264	0.54261188
601.464	0.54243087
601.664	0.54249372
601.863	0.54241181
602.063	0.54245277
602.263	0.54226301
602.462	0.54230734
602.662	0.54230172
602.861	0.54234285
603.061	0.54214175
603.26	0.54209892
603.46	0.54190345
603.659	0.54199332
603.859	0.54184555
604.058	0.54182987
604.258	0.54186599
604.457	0.54197423
604.657	0.54175837
604.856	0.54167499
605.056	0.54173132
605.255	0.54164871
605.454	0.54159794
605.654	0.54137305
605.853	0.54126257
606.052	0.54132951
606.252	0.54141098
606.451	0.54130798
606.65	0.54134773
606.849	0.54116884
607.049	0.5412282
607.248	0.5411281
607.447	0.54114096
607.646	0.54114145
607.845	0.54106634
608.045	0.54092022
608.244	0.54109846
608.443	0.54108134
608.642	0.54121033
608.841	0.54117854
609.04	0.54107571
609.239	0.54124535
609.438	0.54129899
609.637	0.54135384
609.836	0.54142396
610.035	0.54132182
610.234	0.5414209
610.433	0.5415491
610.632	0.54148002
610.831	0.54164696
611.03	0.54152638
611.229	0.54168679
611.428	0.54177583
611.627	0.54179247
611.826	0.54186447
612.025	0.54210053
612.224	0.54216064
612.422	0.54228513
612.621	0.54226732
612.82	0.54235772
613.019	0.54246365
613.218	0.54258724
613.416	0.54245334
613.615	0.54256947
613.814	0.54270199
614.012	0.54278065
614.211	0.54276335
614.41	0.54288853
614.608	0.5429491
614.807	0.54311566
615.006	0.54318112
615.204	0.54324495
615.403	0.54342169
615.602	0.54364199
615.8	0.54384319
615.999	0.54382311
616.197	0.54393658
616.396	0.54413955
616.594	0.54421148
616.793	0.54436272
616.991	0.54446713
617.19	0.54437505
617.388	0.54469396
617.586	0.54483093
617.785	0.54488282
617.983	0.54511338
618.182	0.54510859
618.38	0.54516256
618.578	0.54533846
618.777	0.5454572
618.975	0.54555551
619.173	0.54573512
619.372	0.54590223
619.57	0.54610205
619.768	0.54641496
619.966	0.54662539
620.165	0.5466463
620.363	0.54693554
620.561	0.54696615
620.759	0.54714533
620.957	0.54737352
621.155	0.54756708
621.354	0.54777352
621.552	0.54821809
621.75	0.54833333
621.948	0.54873071
622.146	0.54891461
622.344	0.54905396
622.542	0.54921734
622.74	0.54938201
622.938	0.54943572
623.136	0.5497957
623.334	0.54998844
623.532	0.5500286
623.73	0.55028727
623.928	0.55055802
624.126	0.55089109
624.324	0.55125121
624.522	0.55119994
624.719	0.5513183
624.917	0.55170709
625.115	0.55184508
625.313	0.55213941
625.511	0.55237321
625.708	0.55231745
625.906	0.55265937
626.104	0.55287068
626.302	0.55325005
626.499	0.55357771
626.697	0.55375629
626.895	0.55393896
627.093	0.55438108
627.29	0.55474948
627.488	0.55507296
627.686	0.55528905
627.883	0.55549899
628.081	0.55564404
628.278	0.55608854
628.476	0.55629697
628.673	0.55654906
628.871	0.55686492
629.068	0.55710612
629.266	0.5574662
629.463	0.55774714
629.661	0.55791198
629.858	0.55823196
630.056	0.55846014
630.253	0.55874995
630.451	0.55906101
630.648	0.55932632
630.845	0.55960917
631.043	0.55981384
631.24	0.56018662
631.438	0.56048852
631.635	0.56067856
631.832	0.56082932
632.029	0.56111986
632.227	0.56142635
632.424	0.56181219
632.621	0.56199574
632.818	0.56231704
633.016	0.5627287
633.213	0.56305633
633.41	0.56340451
633.607	0.5637104
633.804	0.56395185
634.001	0.5642154
634.199	0.56455439
634.396	0.56489799
634.593	0.56518001
634.79	0.56549341
634.987	0.56597133
635.184	0.56633147
635.381	0.56677766
635.578	0.56713003
635.775	0.56740942
635.972	0.56785462
636.169	0.56824422
636.366	0.56847005
636.563	0.56875176
636.76	0.56901251
636.957	0.56933174
637.153	0.56949896
637.35	0.56983444
637.547	0.5700801
637.744	0.57037258
637.941	0.57076362
638.138	0.57105846
638.334	0.57124923
638.531	0.57176778
638.728	0.57202368
638.925	0.57246429
639.121	0.57280153
639.318	0.57305922
639.515	0.57335469
639.711	0.5738319
639.908	0.57393217
640.105	0.57423369
640.301	0.57438641
640.498	0.57467358
640.695	0.57510795
640.891	0.5754374
641.088	0.57562358
641.284	0.57603004
641.481	0.57634434
641.677	0.57666832
641.874	0.57693428
642.07	0.57718637
642.267	0.57777025
642.463	0.5781083
642.66	0.57862853
642.856	0.57890718
643.053	0.5791635
643.249	0.57960911
643.445	0.57990104
643.642	0.58004549
643.838	0.58047356
644.034	0.58067737
644.231	0.58101617
644.427	0.58142005
644.623	0.58166087
644.82	0.58204281
645.016	0.58227815
645.212	0.58245977
645.408	0.58270594
645.604	0.58317375
645.801	0.58353354
645.997	0.58387525
646.193	0.58413666
646.389	0.58466856
646.585	0.58508585
646.781	0.58544931
646.977	0.58574471
647.173	0.58606719
647.37	0.58642828
647.566	0.58677443
647.762	0.58697008
647.958	0.58742062
648.154	0.58776623
648.35	0.58811188
648.546	0.58834322
648.742	0.58874863
648.937	0.58892835
649.133	0.58934995
649.329	0.58957919
649.525	0.58991604
649.721	0.59016271
649.917	0.59069129
650.113	0.59092741
650.309	0.59147017
650.504	0.59165095
650.7	0.59194088
650.896	0.59224049
651.092	0.59253682
651.287	0.59269712
651.483	0.59307168
651.679	0.59322417
651.875	0.59361039
652.07	0.59386354
652.266	0.59422598
652.462	0.59453371
652.657	0.59485911
652.853	0.59504569
653.048	0.59539524
653.244	0.59558461
653.44	0.59580748
653.635	0.59588961
653.831	0.59622303
654.026	0.59656949
654.222	0.59687106
654.417	0.59720427
654.613	0.59752851
654.808	0.59778426
655.004	0.59818633
655.199	0.59840596
655.394	0.59858307
655.59	0.59896306
655.785	0.59917758
655.98	0.59951333
656.176	0.59988541
656.371	0.60033001
656.566	0.60068805
656.762	0.60092703
656.957	0.60117026
657.152	0.6014135
657.348	0.60161619
657.543	0.60187663
657.738	0.60202708
657.933	0.60223484
658.128	0.60251141
658.324	0.6027334
658.519	0.60304117
658.714	0.60333235
658.909	0.60349793
659.104	0.6037594
659.299	0.60398561
659.494	0.60421455
659.689	0.60449815
659.884	0.60465072
660.079	0.60480283
660.274	0.60511786
660.469	0.60537536
660.664	0.60572089
660.859	0.60597531
661.054	0.6061747
661.249	0.60646598
661.444	0.60674032
661.639	0.60687655
661.834	0.60703433
662.029	0.60716926
662.224	0.60739681
662.418	0.60765601
662.613	0.60791628
662.808	0.60809409
663.003	0.60843518
663.198	0.60865052
663.392	0.60878172
663.587	0.60917087
663.782	0.60933173
663.977	0.6094962
664.171	0.60985477
664.366	0.61012817
664.561	0.61031992
664.755	0.6106812
664.95	0.61075072
665.144	0.61094524
665.339	0.61118022
665.534	0.61130225
665.728	0.61145375
665.923	0.61172956
666.117	0.61185221
666.312	0.61205271
666.506	0.61231702
666.701	0.61251921
666.895	0.61271888
667.09	0.61283427
667.284	0.61307447
667.479	0.61322506
667.673	0.61341798
667.867	0.61359107
668.062	0.6137836
668.256	0.61401971
668.45	0.61440983
668.645	0.61455694
668.839	0.61489061
669.033	0.61510292
669.228	0.61527259
669.422	0.61545609
669.616	0.61547794
669.81	0.61561334
670.004	0.61567267
670.199	0.61584678
670.393	0.61600271
670.587	0.61620824
670.781	0.61647116
670.975	0.61678627
671.169	0.61677634
671.363	0.61701574
671.558	0.61706693
671.752	0.61719606
671.946	0.6174295
672.14	0.61753509
672.334	0.61767287
672.528	0.61811149
672.722	0.61814811
672.916	0.61838574
673.11	0.6185344
673.304	0.61872655
673.497	0.61868114
673.691	0.61891321
673.885	0.61877978
674.079	0.61904291
674.273	0.61911594
674.467	0.61934588
674.661	0.61935261
674.854	0.61964775
675.048	0.61973394
675.242	0.62006177
675.436	0.6201502
675.629	0.6202327
675.823	0.62019113
676.017	0.62037579
676.211	0.62036158
676.404	0.62042818
676.598	0.62055147
676.792	0.62073571
676.985	0.62097583
677.179	0.6212175
677.372	0.62125224
677.566	0.62154712
677.76	0.62173388
677.953	0.62173493
678.147	0.62186807
678.34	0.62190331
678.534	0.6218799
678.727	0.62200889
678.921	0.62215739
679.114	0.62208627
679.307	0.62222165
679.501	0.62237571
679.694	0.62250106
679.888	0.62269175
680.081	0.62282718
680.274	0.62276074
680.468	0.62297632
680.661	0.62301088
680.854	0.62305814
681.048	0.62323887
681.241	0.62331862
681.434	0.62345817
681.627	0.62368059
681.821	0.62382353
682.014	0.62406731
682.207	0.62406233
682.4	0.62406363
682.593	0.62411321
682.786	0.6240305
682.98	0.62401427
683.173	0.62408768
683.366	0.62408158
683.559	0.62419647
683.752	0.62432382
683.945	0.62439484
684.138	0.62463737
684.331	0.62473595
684.524	0.62484999
684.717	0.62485681
684.91	0.62504647
685.103	0.62515817
685.296	0.62535886
685.489	0.62538695
685.682	0.62548228
685.874	0.62571203
686.067	0.62588612
686.26	0.6259124
686.453	0.62586772
686.646	0.62580609
686.839	0.62594151
687.031	0.62598245
687.224	0.62566513
687.417	0.62571864
687.61	0.62568789
687.802	0.62569103
687.995	0.62581132
688.188	0.62577457
688.38	0.62586165
688.573	0.62612127
688.766	0.62619844
688.958	0.62627069
689.151	0.62639121
689.343	0.62648274
689.536	0.62651798
689.729	0.62651243
689.921	0.62654095
690.114	0.62639135
690.306	0.62642689
690.499	0.62647234
690.691	0.62652407
690.884	0.62665124
691.076	0.62672602
691.268	0.6266483
691.461	0.62669905
691.653	0.62674988
691.846	0.62679704
692.038	0.62669374
692.23	0.62646995
692.423	0.62643111
692.615	0.62644938
692.807	0.62651801
692.999	0.62660222
693.192	0.62657762
693.384	0.62677849
693.576	0.62688312
693.768	0.62698581
693.961	0.62701242
694.153	0.62713801
694.345	0.62705844
694.537	0.62712888
694.729	0.62707513
694.921	0.62712458
695.113	0.62720121
695.305	0.62734224
695.498	0.62729238
695.69	0.62732213
695.882	0.62731186
696.074	0.62737066
696.266	0.62736282
696.458	0.62722729
696.65	0.62716456
696.842	0.62719604
697.033	0.62732031
697.225	0.62734482
697.417	0.62746179
697.609	0.62757554
697.801	0.627752
697.993	0.62799889
698.185	0.62808053
698.376	0.62802051
698.568	0.62801332
698.76	0.62797209
698.952	0.62790291
699.144	0.62784697
699.335	0.62772748
699.527	0.6276356
699.719	0.62765268
699.91	0.6277953
700.102	0.62774345
700.294	0.62783055
700.485	0.62785492
700.677	0.62774298
700.869	0.62781159
701.06	0.62786996
701.252	0.62778707
701.443	0.62777554
701.635	0.6278336
701.826	0.62786492
702.018	0.62805524
702.209	0.62815142
702.401	0.62821188
702.592	0.62829029
702.784	0.6283666
702.975	0.62838142
703.166	0.62833132
703.358	0.62814148
703.549	0.62813665
703.741	0.62805737
703.932	0.62798331
704.123	0.62794267
704.315	0.62790766
704.506	0.62810171
704.697	0.62819285
704.888	0.62827211
705.08	0.62832957
705.271	0.62848166
705.462	0.62835213
705.653	0.62833975
705.844	0.62825128
706.035	0.62830067
706.227	0.62813793
706.418	0.62806642
706.609	0.62813318
706.8	0.62844844
706.991	0.6285951
707.182	0.62875681
707.373	0.62874949
707.564	0.62893931
707.755	0.62906076
707.946	0.62892034
708.137	0.62871407
708.328	0.62864969
708.519	0.62858451
708.71	0.62872464
708.901	0.62866453
709.092	0.62870942
709.283	0.62880511
709.473	0.62902141
709.664	0.62908262
709.855	0.629059
710.046	0.62910663
710.237	0.62910898
710.427	0.62901708
710.618	0.62900536
710.809	0.62889076
711	0.6289384
711.19	0.62893289
711.381	0.62901926
711.572	0.62906552
711.762	0.62927474
711.953	0.62924647
712.144	0.62935259
712.334	0.62931382
712.525	0.62942966
712.715	0.62941032
712.906	0.62944081
713.097	0.62932874
713.287	0.62939177
713.478	0.62943236
713.668	0.62956168
713.859	0.62954164
714.049	0.62949883
714.239	0.62962504
714.43	0.62983519
714.62	0.62998245
714.811	0.63007244
715.001	0.63005972
715.191	0.63015249
715.382	0.63010276
715.572	0.63014436
715.762	0.63008043
715.953	0.63017417
716.143	0.63029445
716.333	0.63030669
716.523	0.63037531
716.714	0.63064535
716.904	0.63072272
717.094	0.63087312
717.284	0.63082069
717.474	0.63071781
717.664	0.6309299
717.855	0.63089096
718.045	0.63068856
718.235	0.63067191
718.425	0.63081663
718.615	0.63091716
718.805	0.63108211
718.995	0.63115879
719.185	0.63137202
719.375	0.63160117
719.565	0.63173763
719.755	0.63150355
719.945	0.63147442
720.135	0.63153349
720.325	0.63161737
720.515	0.63171813
720.704	0.6318012
720.894	0.63183847
721.084	0.63202971
721.274	0.63213925
721.464	0.63221191
721.654	0.63221267
721.843	0.63224384
722.033	0.63236147
722.223	0.6323252
722.413	0.63255775
722.602	0.63271595
722.792	0.63276745
722.982	0.63280117
723.171	0.6328739
723.361	0.6329637
723.55	0.63328436
723.74	0.63324524
723.93	0.63333089
724.119	0.63354142
724.309	0.63363106
724.498	0.63366363
724.688	0.63370686
724.877	0.63363833
725.067	0.63376756
725.256	0.63381721
725.446	0.63373774
725.635	0.63370284
725.825	0.6337853
726.014	0.63391168
726.203	0.63404306
726.393	0.63391566
726.582	0.63384878
726.771	0.63402749
726.961	0.63427922
727.15	0.63422416
727.339	0.63410576
727.529	0.63406914
727.718	0.63410539
727.907	0.63411722
728.096	0.6339572
728.286	0.63378089
728.475	0.63394445
728.664	0.63393769
728.853	0.63392744
729.042	0.63399625
729.231	0.63411202
729.42	0.63420473
729.609	0.6343411
729.799	0.63427077
729.988	0.63441511
730.177	0.63437117
730.366	0.63447017
730.555	0.63447006
730.744	0.63444577
730.933	0.63459634
731.122	0.63463567
731.31	0.63477204
731.499	0.63504374
731.688	0.63525891
731.877	0.63545497
732.066	0.63566959
732.255	0.63556975
732.444	0.63563672
732.632	0.63566298
732.821	0.63563485
733.01	0.63557256
733.199	0.63535587
733.388	0.63527893
733.576	0.63538818
733.765	0.63546843
733.954	0.63557442
734.142	0.63565246
734.331	0.63576842
734.52	0.63606316
734.708	0.63618718
734.897	0.63633304
735.086	0.63638696
735.274	0.63633471
735.463	0.63637002
735.651	0.63641728
735.84	0.63653123
736.028	0.63668528
736.217	0.63679277
736.405	0.636953
736.594	0.63708145
736.782	0.63718568
736.971	0.6371985
737.159	0.63720581
737.347	0.63719883
737.536	0.63709491
737.724	0.63712932
737.912	0.63703877
738.101	0.6369477
738.289	0.63709257
738.477	0.63721365
738.666	0.63732207
738.854	0.63749086
739.042	0.63764012
739.23	0.63780667
739.418	0.63806522
739.607	0.63805431
739.795	0.63804349
739.983	0.63818552
740.171	0.63831561
740.359	0.63830196
740.547	0.63833706
740.735	0.63838288
740.923	0.6386105
741.112	0.6387398
741.3	0.6387463
741.488	0.63873311
741.676	0.63901333
741.864	0.63912911
742.052	0.63934093
742.239	0.6392305
742.427	0.63928636
742.615	0.63927833
742.803	0.63932203
742.991	0.63905336
743.179	0.6390683
743.367	0.63903914
743.555	0.63934999
743.742	0.63941135
743.93	0.63970328
744.118	0.63987953
744.306	0.64021054
744.494	0.64040674
744.681	0.64055068
744.869	0.64054739
745.057	0.64070853
745.244	0.64075254
745.432	0.64087582
745.62	0.64088213
745.807	0.64102657
745.995	0.64104724
746.182	0.64097834
746.37	0.64105088
746.558	0.6410389
746.745	0.64096472
746.933	0.64098494
747.12	0.6409945
747.308	0.6412167
747.495	0.64136127
747.683	0.64138837
747.87	0.64152128
748.057	0.64174466
748.245	0.64205958
748.432	0.6422094
748.62	0.64222328
748.807	0.64233409
748.994	0.64250159
749.182	0.64249565
749.369	0.64257794
749.556	0.64261066
749.743	0.64267294
749.931	0.64269852
750.118	0.64287567
750.305	0.64295574
750.492	0.64303095
750.68	0.64317389
750.867	0.64312749
751.054	0.64330868
751.241	0.64340401
751.428	0.64342285
751.615	0.64344669
751.802	0.64362714
751.989	0.64355303
752.176	0.64383297
752.363	0.64396437
752.55	0.64404487
752.737	0.64428559
752.924	0.64434141
753.111	0.64447598
753.298	0.64464792
753.485	0.64457004
753.672	0.64442871
753.859	0.64461412
754.046	0.64458574
754.233	0.64461435
754.42	0.64483929
754.606	0.64495537
754.793	0.6450365
754.98	0.64538721
755.167	0.6454244
755.353	0.64557002
755.54	0.6458736
755.727	0.645812
755.914	0.64582838
756.1	0.64592995
756.287	0.6457401
756.474	0.64571304
756.66	0.64580347
756.847	0.64583735
757.033	0.64574976
757.22	0.6458597
757.407	0.64613235
757.593	0.64647272
757.78	0.64657131
757.966	0.64676511
758.153	0.64683492
758.339	0.6470463
758.526	0.64711504
758.712	0.64697867
758.898	0.64698634
759.085	0.64702572
759.271	0.6468787
759.458	0.64684884
759.644	0.64693775
759.83	0.64705126
760.017	0.64728023
760.203	0.64735806
760.389	0.64756291
760.576	0.64780267
760.762	0.64805936
760.948	0.64802799
761.134	0.64807452
761.32	0.64802218
761.507	0.64789097
761.693	0.6480533
761.879	0.64801342
762.065	0.64809251
762.251	0.64836138
762.437	0.64867087
762.623	0.64879485
762.809	0.64905794
762.995	0.64909698
763.181	0.64913533
763.367	0.64921643
763.553	0.64932198
763.739	0.64940259
763.925	0.64947018
764.111	0.64952662
764.297	0.64957861
764.483	0.64966034
764.669	0.649492
764.855	0.64935502
765.041	0.64924691
765.227	0.64927719
765.412	0.64934605
765.598	0.64940227
765.784	0.64955545
765.97	0.64993603
766.156	0.65027044
766.341	0.6505132
766.527	0.65061173
766.713	0.65070797
766.898	0.65078989
767.084	0.65077937
767.27	0.65051193
767.455	0.65028729
767.641	0.65020788
767.827	0.65024102
768.012	0.65026325
768.198	0.65031371
768.383	0.65043169
768.569	0.65069744
768.754	0.6509211
768.94	0.65096345
769.125	0.65109163
769.311	0.65105749
769.496	0.65110307
769.682	0.65115143
769.867	0.65125302
770.052	0.65132104
770.238	0.65139421
770.423	0.65143469
770.608	0.65166416
770.794	0.65177467
770.979	0.6517601
771.164	0.65176467
771.35	0.65186778
771.535	0.65206563
771.72	0.652065
771.905	0.65218132
772.09	0.65216894
772.276	0.65240083
772.461	0.65238625
772.646	0.65233849
772.831	0.65225635
773.016	0.65235068
773.201	0.65220578
773.386	0.65230348
773.571	0.65213334
773.756	0.65207416
773.941	0.65194659
774.126	0.65202386
774.311	0.65192698
774.496	0.65203237
774.681	0.65205219
774.866	0.65221913
775.051	0.65238732
775.236	0.65253752
775.421	0.65232497
775.606	0.65225338
775.791	0.65205246
775.976	0.65192909
776.16	0.65187338
776.345	0.65181939
776.53	0.65198779
776.715	0.65218478
776.899	0.65233743
777.084	0.65262297
777.269	0.65280717
777.454	0.65291404
777.638	0.65307438
777.823	0.65306377
778.008	0.65294729
778.192	0.65302014
778.377	0.65290457
778.561	0.65281601
778.746	0.6526545
778.931	0.65252802
779.115	0.6526343
779.3	0.65265456
779.484	0.65256874
779.669	0.65248601
779.853	0.6523671
780.037	0.65251033
780.222	0.65249287
780.406	0.65227589
780.591	0.65241317
780.775	0.65254887
780.959	0.65262444
781.144	0.65273881
781.328	0.65255125
781.512	0.65236973
781.697	0.65218961
781.881	0.65196466
782.065	0.65188429
782.249	0.6517422
782.434	0.65177985
782.618	0.65186383
782.802	0.65214677
782.986	0.65237789
783.17	0.65252009
783.354	0.65254738
783.539	0.65258467
783.723	0.65236383
783.907	0.65225157
784.091	0.65207487
784.275	0.65203806
784.459	0.65183458
784.643	0.65186994
784.827	0.65188887
785.011	0.6519591
785.195	0.65211083
785.379	0.65227076
785.563	0.65221824
785.747	0.65224032
785.93	0.65245157
786.114	0.65239559
786.298	0.65231339
786.482	0.65207512
786.666	0.65192102
786.85	0.65183545
787.033	0.65190679
787.217	0.65155106
787.401	0.65145881
787.585	0.65137111
787.768	0.65147246
787.952	0.65116987
788.136	0.651059
788.319	0.65094255
788.503	0.65073889
788.687	0.65071385
788.87	0.65077252
789.054	0.65068655
789.237	0.65085444
789.421	0.65091659
789.605	0.65086853
789.788	0.65085923
789.972	0.65078371
790.155	0.650498
790.338	0.65030735
790.522	0.65012585
790.705	0.64987389
790.889	0.64970116
791.072	0.64960838
791.256	0.6495989
791.439	0.64970962
791.622	0.64970867
791.806	0.65006554
791.989	0.64998081
792.172	0.65006747
792.355	0.65006327
792.539	0.65004333
792.722	0.64992748
792.905	0.64969302
793.088	0.6491936
793.271	0.64921713
793.455	0.64900713
793.638	0.64885577
793.821	0.64858691
794.004	0.6483642
794.187	0.64845419
794.37	0.64849266
794.553	0.64845465
794.736	0.64831826
794.919	0.64826388
795.102	0.64836741
795.285	0.64843607
795.468	0.6483666
795.651	0.64820608
795.834	0.64815222
796.017	0.64826726
796.2	0.64813214
796.383	0.64782231
796.566	0.64779542
796.749	0.64759581
796.931	0.64749063
797.114	0.64724978
797.297	0.64699667
797.48	0.64694901
797.663	0.64716052
797.845	0.64711646
798.028	0.64730803
798.211	0.64729856
798.393	0.64721625
798.576	0.64714415
798.759	0.64685008
798.941	0.64647311
799.124	0.64609273
799.307	0.64577267
799.489	0.64562747
799.672	0.64546544
799.854	0.64525121
800.037	0.64514597
800.219	0.64523266
800.402	0.64531446
800.584	0.64510777
800.767	0.64502322
800.949	0.64494435
801.132	0.64506404
801.314	0.64500009
801.496	0.64473044
801.679	0.64449692
801.861	0.64439695
802.043	0.64388069
802.226	0.64355959
802.408	0.64312304
802.59	0.64292801
802.772	0.64272342
802.955	0.64259513
803.137	0.64233192
803.319	0.64244314
803.501	0.6423702
803.684	0.64238505
803.866	0.64217918
804.048	0.64204508
804.23	0.64189462
804.412	0.64195975
804.594	0.64166987
804.776	0.64171815
804.958	0.64126895
805.14	0.64125518
805.322	0.64101293
805.504	0.64084801
805.686	0.64049635
805.868	0.64042908
806.05	0.64009549
806.232	0.64018657
806.414	0.64017859
806.596	0.64013167
806.778	0.6398738
806.96	0.63991876
807.141	0.63973742
807.323	0.63958217
807.505	0.6392287
807.687	0.63887092
807.869	0.63866113
808.05	0.63854695
808.232	0.63824952
808.414	0.63811202
808.595	0.6379062
808.777	0.63775078
808.959	0.63764795
809.14	0.63737526
809.322	0.63724492
809.504	0.63702172
809.685	0.63702103
809.867	0.63684921
810.048	0.63673821
810.23	0.63655811
810.411	0.63652581
810.593	0.63619937
810.774	0.63581805
810.956	0.63535027
811.137	0.63501917
811.319	0.63474021
811.5	0.63445897
811.681	0.63406494
811.863	0.63375286
812.044	0.63358572
812.225	0.63346191
812.407	0.63322848
812.588	0.63292524
812.769	0.63259737
812.951	0.63247378
813.132	0.63242782
813.313	0.63255344
813.494	0.63234807
813.675	0.63236002
813.857	0.63238327
814.038	0.63240725
814.219	0.63211108
814.4	0.63176793
814.581	0.63145514
814.762	0.63107842
814.943	0.63082855
815.124	0.6304125
815.305	0.63009139
815.486	0.63004412
815.667	0.62996812
815.848	0.62958084
816.029	0.62939733
816.21	0.62918808
816.391	0.62929525
816.572	0.62901582
816.753	0.62889232
816.934	0.62862554
817.115	0.62850214
817.295	0.62838072
817.476	0.62777493
817.657	0.62722795
817.838	0.62707432
818.019	0.62654414
818.199	0.62617609
818.38	0.62580127
818.561	0.6255394
818.741	0.62549971
818.922	0.62523467
819.103	0.62508191
819.283	0.62502378
819.464	0.62505101
819.645	0.62497543
819.825	0.62478761
820.006	0.62461489
820.186	0.62449372
820.367	0.62408654
820.547	0.62354302
820.728	0.62296613
820.908	0.62242723
821.089	0.62216237
821.269	0.62189941
821.45	0.62168015
821.63	0.62119584
821.81	0.621101
821.991	0.62099855
822.171	0.62084222
822.351	0.62060652
822.532	0.62042712
822.712	0.62016802
822.892	0.62005076
823.072	0.61979372
823.253	0.61956963
823.433	0.61934089
823.613	0.61892401
823.793	0.61833553
823.973	0.61791826
824.154	0.6175712
824.334	0.61733052
824.514	0.61692296
824.694	0.61663357
824.874	0.61609966
825.054	0.61600122
825.234	0.61574438
825.414	0.61546545
825.594	0.61517864
825.774	0.61497685
825.954	0.61478983
826.134	0.61480223
826.314	0.61446055
826.494	0.61439391
826.674	0.61388803
826.854	0.61338809
827.033	0.61285257
827.213	0.61260926
827.393	0.6121745
827.573	0.61198033
827.753	0.61146131
827.932	0.61152249
828.112	0.6114175
828.292	0.61144767
828.472	0.61090013
828.651	0.61086129
828.831	0.61044754
829.011	0.61022562
829.19	0.6097875
829.37	0.60944608
829.549	0.60910689
829.729	0.60881603
829.909	0.60830144
830.088	0.60812919
830.268	0.60750333
830.447	0.6072624
830.627	0.60696837
830.806	0.60651858
830.986	0.60599966
831.165	0.6058123
831.344	0.60533258
831.524	0.60522175
831.703	0.60485551
831.883	0.60448064
832.062	0.60425569
832.241	0.604216
832.421	0.60379661
832.6	0.60356899
832.779	0.60339953
832.958	0.60314736
833.138	0.60263923
833.317	0.6024039
833.496	0.60198613
833.675	0.60156751
833.854	0.60143573
834.034	0.60084869
834.213	0.60040978
834.392	0.60034482
834.571	0.59972896
834.75	0.59946724
834.929	0.59915049
835.108	0.59848691
835.287	0.59842103
835.466	0.5981335
835.645	0.59784209
835.824	0.59764582
836.003	0.59746647
836.182	0.59730982
836.361	0.5972263
836.54	0.59661241
836.719	0.59633739
836.897	0.59581016
837.076	0.59539682
837.255	0.59483512
837.434	0.59436337
837.613	0.59385505
837.791	0.59357734
837.97	0.59317045
838.149	0.59275634
838.328	0.5923594
838.506	0.59197819
838.685	0.59172119
838.864	0.59163854
839.042	0.59133823
839.221	0.59121455
839.4	0.59114806
839.578	0.5910488
839.757	0.59057824
839.935	0.59006188
840.114	0.58956324
840.292	0.58927301
840.471	0.58881903
840.649	0.58820011
840.828	0.58756401
841.006	0.58732606
841.185	0.58680071
841.363	0.58649704
841.541	0.58598633
841.72	0.58580451
841.898	0.58573985
842.076	0.58563722
842.255	0.58541451
842.433	0.58547793
842.611	0.58504888
842.789	0.5848827
842.968	0.58447461
843.146	0.58395321
843.324	0.58359631
843.502	0.58326302
843.68	0.582862
843.859	0.58239356
844.037	0.58178766
844.215	0.58115884
844.393	0.58066341
844.571	0.58018974
844.749	0.57975431
844.927	0.57927486
845.105	0.57890115
845.283	0.57862246
845.461	0.57836398
845.639	0.57818819
845.817	0.57777403
845.995	0.57761957
846.173	0.57747448
846.351	0.57706571
846.529	0.57669186
846.706	0.57620261
846.884	0.57583838
847.062	0.57532494
847.24	0.57452932
847.418	0.5736665
847.595	0.57331399
847.773	0.5728237
847.951	0.5723072
848.129	0.5717897
848.306	0.57166665
848.484	0.57139026
848.662	0.57140483
848.839	0.57135712
849.017	0.57130146
849.194	0.57117068
849.372	0.57084432
849.549	0.57032245
849.727	0.57008001
849.905	0.56940129
850.082	0.56873168
850.26	0.5681538
850.437	0.56751462
850.614	0.56715928
850.792	0.56674042
850.969	0.56653547
851.147	0.56640026
851.324	0.56611215
851.501	0.56582359
851.679	0.56556071
851.856	0.56518882
852.033	0.56504878
852.211	0.5644748
852.388	0.56393854
852.565	0.56374436
852.742	0.56358095
852.92	0.56329186
853.097	0.56298154
853.274	0.56251021
853.451	0.56194082
853.628	0.56155161
853.805	0.56082801
853.982	0.56008092
854.159	0.55951942
854.336	0.55899889
854.514	0.55843238
854.691	0.55820852
854.868	0.55784522
855.045	0.55749348
855.221	0.55726076
855.398	0.55693
855.575	0.55648582
855.752	0.55629126
855.929	0.55615111
856.106	0.55566416
856.283	0.55543183
856.46	0.55517123
856.637	0.55503087
856.813	0.55478412
856.99	0.55423971
857.167	0.5537985
857.344	0.55347861
857.52	0.5530371
857.697	0.55207479
857.874	0.55136652
858.05	0.55075664
858.227	0.55026138
858.404	0.54978046
858.58	0.54962362
858.757	0.54915853
858.933	0.54930695
859.11	0.5492859
859.287	0.54888151
859.463	0.54855767
859.64	0.54834481
859.816	0.54790927
859.993	0.54765613
860.169	0.5472602
860.345	0.54667298
860.522	0.54647234
860.698	0.54616028
860.875	0.54543909
861.051	0.54495049
861.227	0.54417999
861.404	0.54372248
861.58	0.54325335
861.756	0.542764
861.932	0.54245137
862.109	0.54185126
862.285	0.54146706
862.461	0.54156962
862.637	0.54114429
862.813	0.54086488
862.99	0.54052412
863.166	0.53998007
863.342	0.54026611
863.518	0.53961494
863.694	0.5389948
863.87	0.53832094
864.046	0.5377565
864.222	0.53721549
864.398	0.53693566
864.574	0.53589397
864.75	0.5356247
864.926	0.53526597
865.102	0.53513428
865.278	0.53467315
865.454	0.53445167
865.63	0.53391478
865.805	0.53371
865.981	0.53350554
866.157	0.53320733
866.333	0.53265853
866.509	0.53273608
866.684	0.53242461
866.86	0.53248694
867.036	0.53219169
867.212	0.53163792
867.387	0.53113946
867.563	0.53100322
867.739	0.53039768
867.914	0.52996894
868.09	0.52904692
868.265	0.5284959
868.441	0.52796384
868.617	0.5275162
868.792	0.52688486
868.968	0.52626252
869.143	0.52602733
869.319	0.52589587
869.494	0.52539983
869.67	0.52512279
869.845	0.52478727
870.02	0.52463908
870.196	0.52445474
870.371	0.52392092
870.546	0.52345241
870.722	0.52332103
870.897	0.5229084
871.072	0.52251355
871.248	0.52184775
871.423	0.52123223
871.598	0.52089837
871.773	0.52024237
871.949	0.51962501
872.124	0.51942633
872.299	0.51887237
872.474	0.5186346
872.649	0.5183437
872.824	0.51778926
872.999	0.51766579
873.174	0.51758076
873.349	0.51736668
873.524	0.51744085
873.699	0.51730311
873.874	0.51697544
874.049	0.51664597
874.224	0.51637924
874.399	0.51581166
874.574	0.51547471
874.749	0.5149574
874.924	0.51433751
875.099	0.51386163
875.274	0.51344114
875.449	0.51315894
875.623	0.51277109
875.798	0.51205619
875.973	0.51156967
876.148	0.51095728
876.322	0.51061049
876.497	0.51017431
876.672	0.50962686
876.846	0.5094873
877.021	0.50934072
877.196	0.50852811
877.37	0.50855406
877.545	0.50853461
877.72	0.50820212
877.894	0.50792224
878.069	0.50719837
878.243	0.50642968
878.418	0.50639298
878.592	0.50569822
878.767	0.50494691
878.941	0.50458767
879.116	0.50404299
879.29	0.50364555
879.464	0.50321418
879.639	0.50260364
879.813	0.50258543
879.987	0.50214533
880.162	0.50167506
880.336	0.50132095
880.51	0.50118942
880.685	0.5011475
880.859	0.50115753
881.033	0.50049492
881.207	0.49994595
881.381	0.49963594
881.556	0.49918781
881.73	0.4985578
881.904	0.49824724
882.078	0.49776339
882.252	0.49737753
882.426	0.49713674
882.6	0.4967683
882.774	0.49662098
882.948	0.49636006
883.122	0.49557417
883.296	0.49498098
883.47	0.49476071
883.644	0.49461846
883.818	0.49392188
883.992	0.49340462
884.166	0.49328136
884.34	0.49331501
884.514	0.49340856
884.687	0.49294235
884.861	0.49235679
885.035	0.49244132
885.209	0.49218898
885.382	0.4916635
885.556	0.49106552
885.73	0.49047598
885.904	0.49019142
886.077	0.48969783
886.251	0.48913392
886.425	0.48861356
886.598	0.48818599
886.772	0.48763074
886.945	0.48688953
887.119	0.48606303
887.292	0.48568287
887.466	0.48564306
887.64	0.48509113
887.813	0.48464923
887.986	0.484426
888.16	0.484456
888.333	0.48422217
888.507	0.48403634
888.68	0.48319179
888.854	0.48279261
889.027	0.48245999
889.2	0.4823365
889.374	0.48171403
889.547	0.48165558
889.72	0.48135536
889.893	0.48112297
890.067	0.48080942
890.24	0.48021536
890.413	0.47974621
890.586	0.47905647
890.759	0.47862114
890.933	0.47826052
891.106	0.47787143
891.279	0.47767151
891.452	0.47757781
891.625	0.47705187
891.798	0.47722792
891.971	0.47676276
892.144	0.47626509
892.317	0.47606395
892.49	0.47532291
892.663	0.47498634
892.836	0.47500954
893.009	0.47455347
893.182	0.4740642
893.355	0.47391072
893.527	0.47339867
893.7	0.47367614
893.873	0.4732862
894.046	0.47238221
894.219	0.47216206
894.391	0.47202421
894.564	0.47156749
894.737	0.47128432
894.91	0.47071852
895.082	0.47038573
895.255	0.47029858
895.428	0.46973766
895.6	0.46913304
895.773	0.46859939
895.945	0.46798129
896.118	0.4675538
896.291	0.467216
896.463	0.46700288
896.636	0.46656665
896.808	0.46641345
896.981	0.46622884
897.153	0.46611
897.326	0.46583875
897.498	0.46514797
897.67	0.46452775
897.843	0.46436237
898.015	0.46418903
898.187	0.46389465
898.36	0.46310346
898.532	0.46242581
898.704	0.4625449
898.877	0.46220278
899.049	0.46177951
899.221	0.4615072
899.393	0.46098504
899.566	0.46113447
899.738	0.4613175
899.91	0.46096711
900.082	0.46063351
900.254	0.46045264
900.426	0.45996773
900.598	0.45980995
900.77	0.45912086
900.942	0.45846762
901.114	0.45771057
901.286	0.45730049
901.458	0.45663023
901.63	0.45616393
901.802	0.45588926
901.974	0.45598078
902.146	0.45562795
902.318	0.45551453
902.49	0.45517858
902.662	0.45485468
902.834	0.45455619
903.005	0.45446921
903.177	0.45394022
903.349	0.45377257
903.521	0.45331296
903.693	0.45314671
903.864	0.4529427
904.036	0.45257335
904.208	0.45160814
904.379	0.45125717
904.551	0.45102539
904.723	0.4508938
904.894	0.45036821
905.066	0.45002292
905.237	0.4499511
905.409	0.44986039
905.58	0.44959269
905.752	0.44897726
905.923	0.44847307
906.095	0.44812541
906.266	0.4477795
906.438	0.44724264
906.609	0.44687295
906.78	0.44634192
906.952	0.44616983
907.123	0.44560526
907.295	0.44545081
907.466	0.44523096
907.637	0.44505077
907.808	0.4446963
907.98	0.4442518
908.151	0.44358226
908.322	0.44351005
908.493	0.44286179
908.665	0.44241299
908.836	0.44174328
909.007	0.44154934
909.178	0.44119227
909.349	0.44083513
909.52	0.44075785
909.691	0.44055173
909.862	0.44019997
910.033	0.43983901
910.204	0.43953153
910.375	0.43957516
910.546	0.43957722
910.717	0.43882244
910.888	0.43874479
911.059	0.43863637
911.23	0.43844103
911.401	0.43790283
911.572	0.43739069
911.742	0.4366948
911.913	0.43650558
912.084	0.43574649
912.255	0.43525239
912.426	0.4346871
912.596	0.43436938
912.767	0.43417685
912.938	0.43424638
913.108	0.43405247
913.279	0.4338536
913.45	0.43354933
913.62	0.4333939
913.791	0.43331107
913.962	0.43307587
914.132	0.43246282
914.303	0.43196987
914.473	0.43181569
914.644	0.43137999
914.814	0.43113005
914.985	0.43057822
915.155	0.43016784
915.326	0.43002038
915.496	0.42975625
915.666	0.42912571
915.837	0.42917465
916.007	0.42840738
916.177	0.42776618
916.348	0.42740282
916.518	0.42706278
916.688	0.42677179
916.858	0.42679562
917.029	0.42601611
917.199	0.42591148
917.369	0.42606675
917.539	0.4260352
917.709	0.42566671
917.88	0.4250552
918.05	0.42444852
918.22	0.42426588
918.39	0.42391284
918.56	0.42360527
918.73	0.42319878
918.9	0.42282095
919.07	0.42259568
919.24	0.42252435
919.41	0.42240807
919.58	0.42192826
919.75	0.42154376
919.92	0.420641
920.09	0.42047428
920.26	0.42014907
920.429	0.41972851
920.599	0.41916325
920.769	0.41893499
920.939	0.41826745
921.109	0.41801662
921.278	0.41748171
921.448	0.41723416
921.618	0.41724249
921.787	0.4170824
921.957	0.41707943
922.127	0.41674451
922.296	0.41684866
922.466	0.41671758
922.636	0.41675287
922.805	0.41658601
922.975	0.41611374
923.144	0.41591726
923.314	0.41595592
923.483	0.41561853
923.653	0.41545634
923.822	0.41507413
923.992	0.41460249
924.161	0.41445648
924.331	0.41413679
924.5	0.41365736
924.669	0.41294996
924.839	0.41265672
925.008	0.41228955
925.177	0.4116025
925.347	0.41142004
925.516	0.4112982
925.685	0.41115907
925.854	0.41135347
926.023	0.41078274
926.193	0.41059483
926.362	0.41040608
926.531	0.41002246
926.7	0.40923919
926.869	0.40949201
927.038	0.40872903
927.207	0.40844495
927.376	0.4080335
927.545	0.40770312
927.715	0.40729968
927.884	0.4072265
928.052	0.40674749
928.221	0.40634605
928.39	0.40611339
928.559	0.40561717
928.728	0.40583864
928.897	0.40598397
929.066	0.40580712
929.235	0.40474648
929.404	0.40486872
929.572	0.40455048
929.741	0.40466491
929.91	0.40394076
930.079	0.40326382
930.247	0.40284693
930.416	0.40303416
930.585	0.40270197
930.753	0.40246369
930.922	0.40220184
931.091	0.40212848
931.259	0.40184511
931.428	0.40199741
931.596	0.40196904
931.765	0.40224906
931.934	0.40255555
932.102	0.40153096
932.27	0.40138049
932.439	0.40092389
932.607	0.4001589
932.776	0.40026252
932.944	0.39966493
933.113	0.39910653
933.281	0.39896678
933.449	0.39803758
933.618	0.39773587
933.786	0.39788432
933.954	0.39694585
934.123	0.39648764
934.291	0.39637329
934.459	0.3964471
934.627	0.39681653
934.795	0.39682595
934.964	0.39626397
935.132	0.39520243
935.3	0.39456871
935.468	0.39362182
935.636	0.39371464
935.804	0.3925734
935.972	0.39211428
936.14	0.39167202
936.308	0.39224242
936.476	0.39263604
936.644	0.39280878
936.812	0.39238157
936.98	0.39269356
937.148	0.39231573
937.316	0.39141655
937.484	0.39200964
937.652	0.39068951
937.82	0.3914285
937.987	0.39032302
938.155	0.39010719
938.323	0.39037634
938.491	0.39063738
938.658	0.39068998
938.826	0.39097029
938.994	0.38969674
939.162	0.39062112
939.329	0.39139791
939.497	0.39267029
939.665	0.3924357
939.832	0.39362193
940	0.39554299
940.167	0.39601087
940.335	0.39424701
940.502	0.39328583
940.67	0.39219268
940.837	0.3942328
941.005	0.39123008
941.172	0.38974808
941.34	0.38994857
941.507	0.39482296
941.674	0.39814206
941.842	0.3983894
942.009	0.40054803
942.177	0.39804711
942.344	0.40080022
942.511	0.40084959
942.678	0.39986787
942.846	0.39672429
943.013	0.39689428
943.18	0.39387269
943.347	0.39830487
943.514	0.3966353
943.682	0.39884359
943.849	0.39604344
944.016	0.39508468
944.183	0.39559373
944.35	0.39750806
944.517	0.3989308
944.684	0.40052267
944.851	0.39004341
945.018	0.38933692
945.185	0.38890113
945.352	0.38788488
945.519	0.38435957
945.686	0.38153532
945.853	0.38389349
946.02	0.38737206
946.187	0.38613574
946.353	0.39043412
946.52	0.39014691
946.687	0.39122032
946.854	0.39188511
947.021	0.38779386
947.187	0.38709641
947.354	0.38693113
947.521	0.38423711
947.687	0.38139461
947.854	0.38083257
948.021	0.37852239
948.187	0.37766258
948.354	0.37797964
948.52	0.37888824
948.687	0.37958631
948.854	0.38261195
949.02	0.38036719
949.187	0.38054895
949.353	0.38071956
949.52	0.38039442
949.686	0.37828984
949.852	0.37789616
950.019	0.37718107
950.185	0.37987159
950.352	0.38017255
950.518	0.37818256
950.684	0.37963447
950.851	0.38046161
951.017	0.37827842
951.183	0.37728485
951.349	0.37598978
951.516	0.37292731
951.682	0.37372139
951.848	0.37148051
952.014	0.36959128
952.18	0.37075227
952.346	0.37087149
952.512	0.37047534
952.679	0.37282286
952.845	0.37187072
953.011	0.37243268
953.177	0.37325112
953.343	0.37026776
953.509	0.3711063
953.675	0.37004933
953.841	0.36815569
954.007	0.36920186
954.172	0.3706007
954.338	0.36957487
954.504	0.36881891
954.67	0.36517536
954.836	0.36574385
955.002	0.36697578
955.167	0.36669138
955.333	0.36348045
955.499	0.36335263
955.665	0.36320518
955.83	0.36509042
955.996	0.36433715
956.162	0.36297759
956.327	0.36127071
956.493	0.36111456
956.659	0.36276693
956.824	0.36297303
956.99	0.3615992
957.155	0.36181894
957.321	0.36261246
957.486	0.36251867
957.652	0.36286654
957.817	0.36277237
957.983	0.36311233
958.148	0.36273057
958.314	0.36176613
958.479	0.35908675
958.644	0.35885251
958.81	0.35905008
958.975	0.35775955
959.14	0.357752
959.306	0.35729345
959.471	0.35680218
959.636	0.35665101
959.801	0.35801409
959.967	0.3574736
960.132	0.35771667
960.297	0.35739158
960.462	0.35830002
960.627	0.35809653
960.792	0.35836956
960.957	0.35680572
961.123	0.35766301
961.288	0.35697527
961.453	0.35660581
961.618	0.35610964
961.783	0.35699942
961.948	0.35612858
962.113	0.35436348
962.277	0.35236362
962.442	0.35172793
962.607	0.35142023
962.772	0.35066426
962.937	0.3487623
963.102	0.34890252
963.267	0.35051685
963.431	0.35094648
963.596	0.35025421
963.761	0.34886497
963.926	0.34838714
964.09	0.34894998
964.255	0.34986952
964.42	0.34956401
964.584	0.35039283
964.749	0.35004654
964.914	0.35011885
965.078	0.34945291
965.243	0.34819966
965.407	0.3464553
965.572	0.3457013
965.736	0.34493219
965.901	0.34643358
966.065	0.34787745
966.23	0.34832132
966.394	0.34976415
966.559	0.35037711
966.723	0.35016505
966.887	0.34943224
967.052	0.34756365
967.216	0.34554562
967.38	0.34351636
967.545	0.34257727
967.709	0.34318435
967.873	0.3437112
968.037	0.34326694
968.202	0.34327792
968.366	0.34438618
968.53	0.34606623
968.694	0.34543583
968.858	0.34426637
969.022	0.34221131
969.187	0.34116284
969.351	0.3415523
969.515	0.34126209
969.679	0.34026358
969.843	0.33986627
970.007	0.3386423
970.171	0.34002683
970.335	0.34058839
970.499	0.34020958
970.662	0.33986208
970.826	0.3400916
970.99	0.34092287
971.154	0.3418836
971.318	0.34084745
971.482	0.3398662
971.645	0.33969712
971.809	0.34047151
971.973	0.34048901
972.137	0.33940911
972.3	0.33978606
972.464	0.34012156
972.628	0.34246915
972.791	0.34353561
972.955	0.34185944
973.119	0.34094433
973.282	0.34081932
973.446	0.3398916
973.609	0.33936534
973.773	0.337748
973.936	0.33585345
974.1	0.33574297
974.263	0.3358776
974.427	0.33612172
974.59	0.33558536
974.754	0.33550983
974.917	0.33468013
975.08	0.33479518
975.244	0.33411297
975.407	0.33401962
975.57	0.3331124
975.734	0.33230927
975.897	0.33243074
976.06	0.33317714
976.223	0.33273936
976.387	0.3333065
976.55	0.33245454
976.713	0.3326677
976.876	0.33374773
977.039	0.33223017
977.202	0.33154378
977.365	0.33049339
977.528	0.3304465
977.692	0.33147659
977.855	0.32915183
978.018	0.32855105
978.181	0.32955079
978.344	0.32905229
978.506	0.32899873
978.669	0.32783881
978.832	0.3258121
978.995	0.32710349
979.158	0.32791421
979.321	0.3270719
979.484	0.32681606
979.646	0.32740005
979.809	0.32854078
979.972	0.32851659
980.135	0.32926982
980.297	0.32748033
980.46	0.32627783
980.623	0.32708057
980.786	0.32658208
980.948	0.32593369
981.111	0.32600658
981.273	0.32489311
981.436	0.32501965
981.599	0.3263762
981.761	0.32481277
981.924	0.32550007
982.086	0.32497439
982.249	0.32564766
982.411	0.32549752
982.573	0.32536255
982.736	0.32684779
982.898	0.32672136
983.061	0.32627126
983.223	0.32564586
983.385	0.32449099
983.548	0.32583244
983.71	0.32567773
983.872	0.32311277
984.034	0.32338531
984.197	0.32150746
984.359	0.32221353
984.521	0.32397544
984.683	0.32397706
984.845	0.32493685
985.008	0.32494818
985.17	0.32658612
985.332	0.32820874
985.494	0.32660704
985.656	0.32622346
985.818	0.32392448
985.98	0.32243407
986.142	0.32049849
986.304	0.31796447
986.466	0.31595411
986.628	0.31653762
986.79	0.31537973
986.952	0.31502333
987.113	0.31487762
987.275	0.31579769
987.437	0.31666546
987.599	0.31844232
987.761	0.31896451
987.922	0.31794194
988.084	0.31910503
988.246	0.31987169
988.408	0.31987119
988.569	0.31980979
988.731	0.32025088
988.893	0.3199918
989.054	0.32229373
989.216	0.32228795
989.377	0.32068999
989.539	0.32012582
989.701	0.31794785
989.862	0.31601151
990.024	0.3149479
990.185	0.31343085
990.347	0.31431992
990.508	0.31388169
990.669	0.31612429
990.831	0.31757511
990.992	0.31956609
991.154	0.31876021
991.315	0.32101403
991.476	0.32048463
991.638	0.32062372
991.799	0.31948544
991.96	0.31941584
992.121	0.31807088
992.283	0.31878898
992.444	0.31565663
992.605	0.31304239
992.766	0.31399365
992.927	0.31320417
993.088	0.31337923
993.249	0.31343742
993.41	0.31168502
993.572	0.31284794
993.733	0.31454944
993.894	0.31307269
994.055	0.31085546
994.216	0.31038117
994.376	0.30732285
994.537	0.30929074
994.698	0.30948691
994.859	0.3075256
995.02	0.30830778
995.181	0.30650984
995.342	0.30619978
995.503	0.30833129
995.663	0.30801597
995.824	0.3051584
995.985	0.30949525
996.146	0.31051056
996.306	0.31444607
996.467	0.31525765
996.628	0.31609899
996.788	0.31539931
996.949	0.31886952
997.11	0.31465701
997.27	0.31249087
997.431	0.31116617
997.591	0.30567026
997.752	0.30156832
997.912	0.30181544
998.073	0.29967725
998.233	0.30148982
998.394	0.30156752
998.554	0.30360312
998.714	0.30662265
998.875	0.3082402
999.035	0.30667789
999.196	0.30692469
999.356	0.30546261
999.516	0.30644145
999.676	0.3050519
999.837	0.30770524
999.997	0.30700198
1000.157	0.30754193
1000.317	0.30438499
1000.477	0.30192495
1000.638	0.30058666
1000.798	0.30081355
1000.958	0.2990939
1001.118	0.30039015
1001.278	0.29973473
1001.438	0.30153274
1001.598	0.30280288
1001.758	0.3035177
1001.918	0.30216053
1002.078	0.29839799
1002.238	0.29775782
1002.398	0.29868393
1002.558	0.29853006
1002.718	0.29840867
1002.878	0.29722022
1003.037	0.29209629
1003.197	0.29501483
1003.357	0.29253319
1003.517	0.29492291
1003.677	0.29245803
1003.836	0.29302967
1003.996	0.29146661
1004.156	0.29603266
1004.315	0.29817722
1004.475	0.30395132
1004.635	0.30501092
1004.794	0.309177
1004.954	0.3105194
1005.114	0.31064073
1005.273	0.31392261
1005.433	0.30809896
1005.592	0.30553332
1005.752	0.30143975
1005.911	0.29948982
1006.071	0.29975249
1006.23	0.2988356
1006.389	0.29404362
1006.549	0.29586182
1006.708	0.29496639
1006.868	0.29102367
1007.027	0.29202783
1007.186	0.29177464
1007.345	0.29824049
1007.505	0.30120463
1007.664	0.30399653
1007.823	0.30221658
1007.982	0.30901479
1008.142	0.30747616
1008.301	0.30661936
1008.46	0.30152345
1008.619	0.29655638
1008.778	0.29558253
1008.937	0.29627881
1009.096	0.2931274
1009.255	0.29507076
1009.414	0.28899238
1009.573	0.29056127
1009.732	0.29645634
1009.891	0.29401514
1010.05	0.2974874
1010.209	0.29473681
1010.368	0.29374376
1010.527	0.2980754
1010.686	0.3003579
1010.845	0.29455046
1011.003	0.29614833
1011.162	0.29501634
1011.321	0.29184945
1011.48	0.29428438
1011.638	0.29416298
1011.797	0.29143861
1011.956	0.29458644
1012.115	0.29594345
1012.273	0.29233202
1012.432	0.29609005
1012.59	0.28847023
1012.749	0.28784019
1012.908	0.28651022
1013.066	0.28708883
1013.225	0.28478278
1013.383	0.28876692
1013.542	0.28665177
1013.7	0.29224403
1013.859	0.29726942
1014.017	0.30071146
1014.175	0.29570763
1014.334	0.30165536
1014.492	0.30110546
1014.65	0.30594013
1014.809	0.30665707
1014.967	0.30244718
1015.125	0.30061878
1015.284	0.30994862
1015.442	0.30534084
1015.6	0.30223542
1015.758	0.29890038
1015.916	0.29244361
1016.075	0.29070473
1016.233	0.28896144
1016.391	0.29017832
1016.549	0.29273659
1016.707	0.29464945
1016.865	0.29675062
1017.023	0.29604045
1017.181	0.29687335
1017.339	0.29899679
1017.497	0.29437515
1017.655	0.29096575
1017.813	0.28950699
1017.971	0.2905405
1018.129	0.29856528
1018.286	0.30085311
1018.444	0.29272381
1018.602	0.29216255
1018.76	0.29006956
1018.918	0.28904366
1019.075	0.28932873
1019.233	0.28424745
1019.391	0.28020911
1019.549	0.28971989
1019.706	0.28965163
1019.864	0.29537873
1020.022	0.30091692
1020.179	0.30087286
1020.337	0.30214298
1020.494	0.2997023
1020.652	0.29331532
1020.809	0.29487121
1020.967	0.28848916
1021.124	0.28077473
1021.282	0.2841694
1021.439	0.28555949
1021.597	0.29547383
1021.754	0.29558938
1021.911	0.29997156
1022.069	0.29672915
1022.226	0.29905016
1022.384	0.28820473
1022.541	0.28334484
1022.698	0.27769582
1022.855	0.28111893
1023.013	0.28027979
1023.17	0.27963201
1023.327	0.28454164
1023.484	0.29451703
1023.641	0.29973025
1023.798	0.31793749
1023.956	0.32752008
1024.113	0.3144017
1024.27	0.31284279
1024.427	0.31732651
1024.584	0.31074755
1024.741	0.30713903
1024.898	0.28966478
1025.055	0.27435161
1025.212	0.27262707
1025.369	0.27231161
1025.525	0.26826892
1025.682	0.27818694
1025.839	0.27680849
1025.996	0.2743819
1026.153	0.28670153
1026.31	0.29645765
1026.466	0.30871815
1026.623	0.3169392
1026.78	0.31398317
1026.937	0.31241884
1027.093	0.31438831
1027.25	0.32424154
1027.407	0.32075113
1027.563	0.31990277
1027.72	0.30874775
1027.876	0.29251503
1028.033	0.31035041
1028.19	0.31399355
1028.346	0.29023512
1028.503	0.29635028
1028.659	0.29805217
1028.816	0.30446706
1028.972	0.33006298
1029.128	0.32641158
1029.285	0.32617404
1029.441	0.3372957
1029.598	0.3250526
1029.754	0.34046088
1029.91	0.33258605
1030.067	0.30781523
1030.223	0.30802048
1030.379	0.30947389
1030.535	0.32372591
1030.691	0.326324
1030.848	0.31814607
1031.004	0.32051745
1031.16	0.34723479
1031.316	0.35204465
1031.472	0.36473363
1031.628	0.33994591
1031.784	0.34804041
1031.94	0.35125006
1032.096	0.36103824
1032.252	0.34981969
1032.408	0.3535591
1032.564	0.34163374
1032.72	0.35195931
1032.876	0.33662527
1033.032	0.31812259
1033.188	0.31149682
1033.344	0.31674144
1033.5	0.31255895
1033.655	0.31046849
1033.811	0.312856
1033.967	0.33812647
