Data from 0_1_mm_pl_70pc_Absorbance__0__15-31-36-059.txt Node

Date: Fri Feb 24 15:31:36 CET 2023
User: Ange
Spectrometer: FLMT08341
Trigger mode: 0
Integration Time (sec): 1.000000E-2
Scans to average: 400
Electric dark correction enabled: true
Nonlinearity correction enabled: false
Boxcar width: 3
XAxis mode: Wavelengths
Number of Pixels in Spectrum: 3648
>>>>>Begin Spectral Data<<<<<
345.271	0.03099553
345.487	0.02327727
345.704	0.01481604
345.921	0.00564324
346.137	0.00397531
346.354	0.00624642
346.571	0.00978628
346.787	0.00611478
347.004	-0.05757923
347.22	-0.08202566
347.437	-0.19557332
347.653	-0.2465004
347.87	-0.02577656
348.086	-0.29377902
348.303	0.23654812
348.519	0.73276546
348.736	0.6507155
348.952	0.67025141
349.169	0.70162927
349.385	0.76476555
349.601	0.74909726
349.818	0.73532932
350.034	0.71845104
350.251	0.71713027
350.467	0.72593544
350.683	0.69267829
350.9	0.67773534
351.116	0.6667128
351.332	0.65453078
351.549	0.6714845
351.765	0.69359443
351.981	0.70256846
352.197	0.73935346
352.414	0.7815124
352.63	0.80107719
352.846	0.83554732
353.062	0.81420824
353.278	0.78346128
353.495	0.81016929
353.711	0.81059888
353.927	0.80698265
354.143	0.81125292
354.359	0.79389699
354.575	0.78732128
354.792	0.82287236
355.008	0.80001448
355.224	0.78784857
355.44	0.77283019
355.656	0.77208068
355.872	0.78892795
356.088	0.85065654
356.304	0.84998494
356.52	0.85232866
356.736	0.86349402
356.952	0.87567365
357.168	0.87013526
357.384	0.8809139
357.6	0.83723552
357.816	0.8545154
358.032	0.87967785
358.248	0.91014434
358.464	0.91327185
358.679	0.92973158
358.895	0.93081669
359.111	0.95789058
359.327	0.9242991
359.543	0.92161377
359.759	0.93363259
359.974	0.92530934
360.19	0.92073984
360.406	0.92114184
360.622	0.90851251
360.838	0.8998955
361.053	0.91227398
361.269	0.91206208
361.485	0.92207561
361.701	0.9326372
361.916	0.91111077
362.132	0.91476165
362.348	0.93285379
362.563	0.92703054
362.779	0.90816004
362.995	0.92052214
363.21	0.93460185
363.426	0.94975746
363.641	0.95556217
363.857	0.96917144
364.073	0.95880226
364.288	0.9531936
364.504	0.97795088
364.719	0.97323683
364.935	0.97175756
365.15	0.97064691
365.366	0.97331566
365.581	0.99858064
365.797	1.00775786
366.012	0.97501051
366.228	0.95677062
366.443	0.98363059
366.658	0.98968101
366.874	0.97064416
367.089	0.98208624
367.305	0.99160469
367.52	0.99986641
367.735	1.00182136
367.951	0.98282438
368.166	0.99041501
368.381	1.02450993
368.597	1.0009063
368.812	1.01312203
369.027	1.02584293
369.243	1.04443617
369.458	1.08721612
369.673	1.08770679
369.888	1.08204654
370.104	1.08103434
370.319	1.08584229
370.534	1.07884363
370.749	1.07838437
370.964	1.07264282
371.179	1.07251796
371.395	1.06016219
371.61	1.0804883
371.825	1.0605705
372.04	1.06972046
372.255	1.06231509
372.47	1.04434183
372.685	1.03232194
372.9	1.03095359
373.115	1.01411546
373.33	1.0240744
373.545	1.02248874
373.76	1.03194082
373.975	1.02337248
374.19	1.01706824
374.405	1.02628575
374.62	1.0535911
374.835	1.08030685
375.05	1.08476937
375.265	1.08608212
375.48	1.10174586
375.695	1.15175431
375.91	1.13921457
376.125	1.10317807
376.339	1.0621023
376.554	1.05960898
376.769	1.05757543
376.984	1.05182242
377.199	1.04686205
377.414	1.04542696
377.628	1.07394297
377.843	1.09361814
378.058	1.10033774
378.273	1.11567034
378.487	1.12390588
378.702	1.12530723
378.917	1.13519234
379.131	1.11330734
379.346	1.09203759
379.561	1.07786746
379.775	1.06676273
379.99	1.04826707
380.205	1.02793883
380.419	1.01377503
380.634	0.99803041
380.848	1.01077066
381.063	1.01380575
381.278	1.02357258
381.492	1.01407497
381.707	1.02868065
381.921	1.02798638
382.136	1.052324
382.35	1.04097204
382.565	1.02859749
382.779	1.0260909
382.994	1.03766801
383.208	1.01998658
383.422	1.03299128
383.637	1.0245268
383.851	1.03899014
384.066	1.0534431
384.28	1.05767399
384.494	1.05762197
384.709	1.06846472
384.923	1.06469126
385.137	1.0504382
385.352	1.0427919
385.566	1.04315054
385.78	1.03060009
385.995	1.02505742
386.209	1.01507676
386.423	1.02237399
386.637	1.03129882
386.852	1.01808835
387.066	1.01361561
387.28	1.0037735
387.494	1.01203785
387.708	1.01273291
387.923	0.99957715
388.137	1.00302388
388.351	1.01165651
388.565	1.01412762
388.779	1.02108819
388.993	1.02888781
389.207	1.03146012
389.421	1.03624529
389.635	1.02695717
389.85	1.02110951
390.064	1.01599063
390.278	1.01457288
390.492	1.00927429
390.706	1.00640278
390.92	1.00180883
391.134	1.00767173
391.348	1.02068343
391.561	1.01285978
391.775	1.00583973
391.989	0.99170745
392.203	0.99262292
392.417	0.99355326
392.631	0.99614432
392.845	0.98139491
393.059	0.9879058
393.273	0.9830482
393.486	0.97417804
393.7	0.9611945
393.914	0.960858
394.128	0.95237421
394.342	0.94602518
394.555	0.93099038
394.769	0.92843112
394.983	0.93311677
395.197	0.9381278
395.41	0.93131352
395.624	0.93046694
395.838	0.92740962
396.051	0.94002808
396.265	0.93302717
396.479	0.93010564
396.692	0.92316318
396.906	0.91686374
397.12	0.90795061
397.333	0.91018028
397.547	0.89949197
397.76	0.90391779
397.974	0.9014089
398.187	0.90280712
398.401	0.90482164
398.614	0.9044145
398.828	0.89936661
399.041	0.89785532
399.255	0.8924185
399.468	0.8882098
399.682	0.88278461
399.895	0.88085613
400.109	0.87627984
400.322	0.87288991
400.536	0.86293268
400.749	0.86501385
400.962	0.86240394
401.176	0.85694562
401.389	0.85054381
401.602	0.84092772
401.816	0.83922764
402.029	0.84295344
402.242	0.83565872
402.456	0.83168655
402.669	0.82610046
402.882	0.81801615
403.095	0.82215689
403.309	0.81747262
403.522	0.81406933
403.735	0.80946352
403.948	0.80682792
404.161	0.81261375
404.375	0.81263535
404.588	0.80934537
404.801	0.80610402
405.014	0.79930653
405.227	0.80191239
405.44	0.80161126
405.653	0.79794015
405.866	0.79232802
406.079	0.78796196
406.293	0.78574895
406.506	0.78348362
406.719	0.77724353
406.932	0.77158381
407.145	0.76489576
407.358	0.76777378
407.571	0.76190873
407.784	0.75887857
407.996	0.75773946
408.209	0.7514361
408.422	0.74779734
408.635	0.74612236
408.848	0.74204115
409.061	0.7376602
409.274	0.73446089
409.487	0.73065345
409.7	0.72958671
409.912	0.72846684
410.125	0.72488857
410.338	0.72135613
410.551	0.72006681
410.764	0.71698962
410.976	0.71441954
411.189	0.71164631
411.402	0.7073427
411.615	0.70604213
411.827	0.70354973
412.04	0.70224957
412.253	0.6996967
412.465	0.69570851
412.678	0.69213364
412.891	0.69165175
413.103	0.68512419
413.316	0.68156451
413.529	0.68003781
413.741	0.67909133
413.954	0.67743263
414.166	0.67641137
414.379	0.67223517
414.591	0.6730698
414.804	0.66929795
415.016	0.66633888
415.229	0.66223763
415.441	0.65877302
415.654	0.65676314
415.866	0.65539425
416.079	0.65284561
416.291	0.65083867
416.504	0.65009435
416.716	0.64830992
416.928	0.64683773
417.141	0.64341324
417.353	0.64071401
417.566	0.63643484
417.778	0.63539715
417.99	0.6295787
418.203	0.62600871
418.415	0.62368279
418.627	0.62276288
418.839	0.62113036
419.052	0.62170852
419.264	0.619457
419.476	0.6194053
419.688	0.61867355
419.901	0.61686218
420.113	0.61398749
420.325	0.61127736
420.537	0.60748035
420.749	0.60639795
420.961	0.60485432
421.174	0.60203566
421.386	0.59905292
421.598	0.59685108
421.81	0.59469809
422.022	0.59299119
422.234	0.59084226
422.446	0.58795958
422.658	0.58608211
422.87	0.584925
423.082	0.58329616
423.294	0.58160183
423.506	0.57985096
423.718	0.57717125
423.93	0.57426915
424.142	0.57172432
424.354	0.56911161
424.566	0.56680817
424.778	0.56534476
424.99	0.56360733
425.202	0.56104212
425.414	0.56052284
425.625	0.55987051
425.837	0.55766054
426.049	0.55693616
426.261	0.55449146
426.473	0.55190347
426.684	0.55084556
426.896	0.54961792
427.108	0.54703444
427.32	0.54664383
427.531	0.54412048
427.743	0.54279176
427.955	0.54225811
428.167	0.54030938
428.378	0.53817061
428.59	0.53700649
428.802	0.53492288
429.013	0.53302795
429.225	0.53140555
429.436	0.52922786
429.648	0.52852593
429.86	0.52741867
430.071	0.52620592
430.283	0.52488793
430.494	0.52332301
430.706	0.52176016
430.917	0.52022275
431.129	0.51852394
431.34	0.5168466
431.552	0.51547368
431.763	0.51374947
431.975	0.51317288
432.186	0.51119058
432.398	0.50989283
432.609	0.50709292
432.821	0.50545746
433.032	0.50400248
433.243	0.50236606
433.455	0.50106006
433.666	0.5004596
433.877	0.49981222
434.089	0.49839745
434.3	0.49690095
434.511	0.49477418
434.723	0.49361297
434.934	0.49142973
435.145	0.48897316
435.356	0.48684667
435.568	0.4863816
435.779	0.48499023
435.99	0.48339317
436.201	0.48191461
436.412	0.48066862
436.624	0.48028861
436.835	0.47954597
437.046	0.47882118
437.257	0.47759434
437.468	0.47759143
437.679	0.47684691
437.89	0.47586131
438.101	0.47498817
438.312	0.47373085
438.523	0.47219125
438.734	0.47128325
438.945	0.46995099
439.156	0.46820902
439.367	0.46720603
439.578	0.46602704
439.789	0.46425383
440	0.46334632
440.211	0.46194413
440.422	0.46073024
440.633	0.4604307
440.844	0.45877374
441.055	0.45735026
441.266	0.45697701
441.477	0.4553437
441.687	0.4543902
441.898	0.45347191
442.109	0.45188063
442.32	0.45121701
442.531	0.44975621
442.741	0.4480275
442.952	0.44718949
443.163	0.44640193
443.374	0.44484047
443.584	0.44380111
443.795	0.44292813
444.006	0.44240243
444.216	0.44163093
444.427	0.44027072
444.638	0.43912239
444.848	0.43824969
445.059	0.43725437
445.27	0.43595438
445.48	0.43449465
445.691	0.43368056
445.901	0.43300361
446.112	0.4319106
446.323	0.43052862
446.533	0.42944892
446.744	0.42840986
446.954	0.42755261
447.165	0.4265129
447.375	0.42602954
447.586	0.42538715
447.796	0.42528178
448.006	0.42427987
448.217	0.42398622
448.427	0.42316189
448.638	0.42205174
448.848	0.42057657
449.058	0.41937762
449.269	0.4182091
449.479	0.41757848
449.689	0.41625467
449.9	0.41555885
450.11	0.4146906
450.32	0.41428911
450.531	0.41332979
450.741	0.41215299
450.951	0.41134962
451.161	0.41062378
451.372	0.40963026
451.582	0.40978886
451.792	0.40855911
452.002	0.40785126
452.212	0.4071037
452.422	0.40644934
452.633	0.40533323
452.843	0.40494154
453.053	0.40299324
453.263	0.40243191
453.473	0.40154191
453.683	0.40100391
453.893	0.39974078
454.103	0.39955755
454.313	0.39865156
454.523	0.39814772
454.733	0.39719752
454.943	0.39677266
455.153	0.39584241
455.363	0.3954898
455.573	0.39464411
455.783	0.39394429
455.993	0.39320991
456.203	0.39295847
456.413	0.3919654
456.623	0.39136426
456.833	0.39091343
457.042	0.3900215
457.252	0.38930214
457.462	0.38871143
457.672	0.3879623
457.882	0.38752659
458.091	0.38671544
458.301	0.3855599
458.511	0.3849406
458.721	0.38431917
458.931	0.38369194
459.14	0.38312282
459.35	0.3827856
459.56	0.38253152
459.769	0.38249316
459.979	0.38197937
460.189	0.38144929
460.398	0.38086509
460.608	0.38029214
460.817	0.37941849
461.027	0.37873381
461.237	0.37784573
461.446	0.37725689
461.656	0.37686597
461.865	0.37628842
462.075	0.37567718
462.284	0.37531873
462.494	0.37485326
462.703	0.37423697
462.913	0.37387928
463.122	0.37303958
463.332	0.37258295
463.541	0.37221534
463.751	0.37151543
463.96	0.37120079
464.169	0.37079957
464.379	0.37060365
464.588	0.37028449
464.797	0.36984516
465.007	0.36917367
465.216	0.3688676
465.425	0.36827878
465.635	0.36795771
465.844	0.36727101
466.053	0.36691252
466.263	0.36647463
466.472	0.36600074
466.681	0.36554309
466.89	0.36488388
467.099	0.36436879
467.309	0.36381498
467.518	0.36331073
467.727	0.36289007
467.936	0.36243857
468.145	0.36209541
468.354	0.36190266
468.563	0.3614003
468.772	0.36105111
468.982	0.36066498
469.191	0.36041202
469.4	0.36002928
469.609	0.35967584
469.818	0.35961067
470.027	0.35946184
470.236	0.35902815
470.445	0.35873519
470.654	0.35827945
470.863	0.35791506
471.072	0.35751552
471.28	0.35684276
471.489	0.35655363
471.698	0.3562704
471.907	0.35601753
472.116	0.35586849
472.325	0.3556461
472.534	0.35557639
472.743	0.3551888
472.951	0.3551786
473.16	0.35508921
473.369	0.35477466
473.578	0.35460223
473.786	0.35444978
473.995	0.35407629
474.204	0.35416137
474.413	0.35371425
474.621	0.35349809
474.83	0.35352878
475.039	0.35320038
475.247	0.35323145
475.456	0.35318762
475.665	0.35296456
475.873	0.35274716
476.082	0.35235902
476.291	0.35212162
476.499	0.35211605
476.708	0.35171426
476.916	0.35161036
477.125	0.3515276
477.333	0.35152925
477.542	0.35165759
477.75	0.35151763
477.959	0.35136508
478.167	0.35149301
478.376	0.35129821
478.584	0.35114818
478.793	0.35090652
479.001	0.35072875
479.209	0.35066357
479.418	0.35063583
479.626	0.35040299
479.834	0.35034795
480.043	0.35035378
480.251	0.35033839
480.459	0.35026107
480.668	0.35022774
480.876	0.35019642
481.084	0.35026389
481.293	0.35026793
481.501	0.35020108
481.709	0.35030391
481.917	0.35037168
482.125	0.35025869
482.334	0.35024323
482.542	0.35017866
482.75	0.35016295
482.958	0.35020657
483.166	0.35019641
483.374	0.3501518
483.583	0.35018766
483.791	0.3502223
483.999	0.35004452
484.207	0.35000908
484.415	0.34996966
484.623	0.34993523
484.831	0.34994868
485.039	0.35004097
485.247	0.34993881
485.455	0.35022561
485.663	0.3503371
485.871	0.35046951
486.079	0.35036452
486.287	0.35053813
486.495	0.35053241
486.702	0.35054595
486.91	0.35052395
487.118	0.35063403
487.326	0.35062319
487.534	0.35088432
487.742	0.35096328
487.95	0.35109513
488.157	0.3513692
488.365	0.35162625
488.573	0.35176302
488.781	0.35200278
488.988	0.35229305
489.196	0.35256654
489.404	0.35278036
489.612	0.35304765
489.819	0.35318531
490.027	0.35333656
490.235	0.35355111
490.442	0.35367205
490.65	0.35376062
490.857	0.35408867
491.065	0.35412571
491.273	0.35434343
491.48	0.35460995
491.688	0.35470569
491.895	0.35499863
492.103	0.35525628
492.31	0.35542516
492.518	0.35565764
492.725	0.35588103
492.933	0.35612813
493.14	0.35638097
493.348	0.35653481
493.555	0.3567125
493.763	0.35691638
493.97	0.3571956
494.177	0.35745552
494.385	0.35774457
494.592	0.35808715
494.8	0.35835945
495.007	0.35873712
495.214	0.359062
495.422	0.35942692
495.629	0.35976181
495.836	0.35996626
496.043	0.36032959
496.251	0.3607379
496.458	0.36098712
496.665	0.36135456
496.872	0.36165494
497.08	0.36200065
497.287	0.36238356
497.494	0.36265782
497.701	0.36290305
497.908	0.36326353
498.115	0.36356446
498.322	0.36382723
498.53	0.36409625
498.737	0.36437212
498.944	0.3647401
499.151	0.36515621
499.358	0.36551524
499.565	0.36581739
499.772	0.3662458
499.979	0.3667193
500.186	0.36722431
500.393	0.3676728
500.6	0.3680158
500.807	0.36834455
501.014	0.36875119
501.221	0.3691343
501.427	0.36940562
501.634	0.3697014
501.841	0.37000353
502.048	0.37046373
502.255	0.37085585
502.462	0.371379
502.669	0.37195177
502.875	0.37243659
503.082	0.37294029
503.289	0.37337804
503.496	0.3737802
503.702	0.37427427
503.909	0.37460525
504.116	0.37489551
504.323	0.37537555
504.529	0.37585918
504.736	0.3763594
504.943	0.37677008
505.149	0.37734149
505.356	0.37794568
505.563	0.37846241
505.769	0.37896319
505.976	0.37937758
506.182	0.37989344
506.389	0.38042898
506.595	0.38092695
506.802	0.38135745
507.008	0.38185914
507.215	0.38235154
507.421	0.38289488
507.628	0.38333187
507.834	0.38381662
508.041	0.38426527
508.247	0.38476084
508.454	0.38528339
508.66	0.3856866
508.866	0.38623486
509.073	0.38684452
509.279	0.38745715
509.486	0.38800365
509.692	0.38854497
509.898	0.38912959
510.105	0.38982705
510.311	0.39032961
510.517	0.39097345
510.723	0.3915297
510.93	0.39205355
511.136	0.39265648
511.342	0.39324549
511.548	0.39378905
511.754	0.39444738
511.961	0.39489964
512.167	0.39536576
512.373	0.39600156
512.579	0.39658388
512.785	0.39720194
512.991	0.39785946
513.197	0.39843681
513.404	0.39912797
513.61	0.39984431
513.816	0.40041232
514.022	0.40104086
514.228	0.40154373
514.434	0.40205389
514.64	0.40261205
514.846	0.40324555
515.052	0.40381802
515.258	0.40446791
515.464	0.40500826
515.669	0.40568087
515.875	0.4063658
516.081	0.40702973
516.287	0.40767271
516.493	0.40846368
516.699	0.40911875
516.905	0.40985638
517.111	0.41047558
517.316	0.4111038
517.522	0.41181913
517.728	0.41244911
517.934	0.41306727
518.139	0.41378215
518.345	0.41441453
518.551	0.41519085
518.757	0.41591682
518.962	0.41653823
519.168	0.41726109
519.374	0.4177542
519.579	0.4183905
519.785	0.41908033
519.991	0.41975734
520.196	0.42044027
520.402	0.42114376
520.607	0.42178098
520.813	0.42260523
521.018	0.42329044
521.224	0.42395054
521.429	0.42465049
521.635	0.42536705
521.84	0.42607479
522.046	0.42673503
522.251	0.42736165
522.457	0.42804969
522.662	0.42881705
522.868	0.42952231
523.073	0.43014585
523.279	0.43081828
523.484	0.43147523
523.689	0.4322382
523.895	0.43301167
524.1	0.43370681
524.305	0.43434042
524.511	0.43506717
524.716	0.43578997
524.921	0.43657
525.126	0.43728308
525.332	0.4379956
525.537	0.43866017
525.742	0.43952339
525.947	0.44030606
526.153	0.44099089
526.358	0.44177985
526.563	0.44249786
526.768	0.44319874
526.973	0.44404415
527.178	0.44469506
527.383	0.44542299
527.588	0.44622351
527.794	0.44692831
527.999	0.44769826
528.204	0.44845434
528.409	0.4491355
528.614	0.44988378
528.819	0.45065647
529.024	0.4514419
529.229	0.45215205
529.434	0.45290739
529.639	0.45364623
529.843	0.45441561
530.048	0.45518177
530.253	0.45590642
530.458	0.45664697
530.663	0.45741935
530.868	0.45826098
531.073	0.45898804
531.278	0.45966856
531.482	0.46033268
531.687	0.46110793
531.892	0.46180778
532.097	0.46252381
532.302	0.46320938
532.506	0.46400677
532.711	0.46475162
532.916	0.46564704
533.12	0.4663733
533.325	0.46714684
533.53	0.46799847
533.734	0.46877406
533.939	0.46949601
534.144	0.47035823
534.348	0.47106876
534.553	0.47183273
534.757	0.47257057
534.962	0.47327663
535.167	0.47404472
535.371	0.47484673
535.576	0.47567524
535.78	0.47646967
535.985	0.47720693
536.189	0.47798974
536.394	0.47877857
536.598	0.47946873
536.803	0.48020417
537.007	0.4808693
537.211	0.48165111
537.416	0.48238414
537.62	0.48309818
537.825	0.48385633
538.029	0.48471611
538.233	0.48541702
538.438	0.48620609
538.642	0.48686925
538.846	0.48773375
539.05	0.48846737
539.255	0.48914005
539.459	0.48983405
539.663	0.49060185
539.867	0.49126367
540.072	0.49202446
540.276	0.492647
540.48	0.49351175
540.684	0.49432174
540.888	0.49513772
541.092	0.495916
541.297	0.49669537
541.501	0.49745787
541.705	0.49823047
541.909	0.49892052
542.113	0.49960679
542.317	0.50033498
542.521	0.50103187
542.725	0.50182285
542.929	0.50251124
543.133	0.50326936
543.337	0.50399
543.541	0.50470183
543.745	0.50528262
543.949	0.50604468
544.153	0.50665928
544.357	0.50738604
544.56	0.50810948
544.764	0.50881088
544.968	0.5094695
545.172	0.51015091
545.376	0.5108503
545.58	0.51156686
545.783	0.5123268
545.987	0.51295027
546.191	0.51357581
546.395	0.51436662
546.598	0.51518412
546.802	0.51590533
547.006	0.51662004
547.21	0.51713319
547.413	0.5178855
547.617	0.51866735
547.821	0.51931329
548.024	0.51999804
548.228	0.52053191
548.431	0.52115018
548.635	0.52184081
548.839	0.52245064
549.042	0.52310119
549.246	0.52366439
549.449	0.52425641
549.653	0.52499664
549.856	0.5256746
550.06	0.52630225
550.263	0.52696573
550.467	0.52756398
550.67	0.52828692
550.874	0.5287844
551.077	0.52944974
551.28	0.53013268
551.484	0.53079468
551.687	0.53134897
551.891	0.53196434
552.094	0.53249887
552.297	0.53316608
552.501	0.53377722
552.704	0.53433489
552.907	0.53492482
553.11	0.53547708
553.314	0.53606141
553.517	0.53658069
553.72	0.53719141
553.923	0.53772508
554.127	0.53828764
554.33	0.5387894
554.533	0.53944149
554.736	0.53997999
554.939	0.54063751
555.142	0.54127465
555.345	0.54181242
555.549	0.54244058
555.752	0.54305948
555.955	0.54356759
556.158	0.54422664
556.361	0.54474351
556.564	0.54521521
556.767	0.54575456
556.97	0.54621117
557.173	0.54677274
557.376	0.54739318
557.579	0.54778736
557.782	0.54832988
557.984	0.54892486
558.187	0.54946228
558.39	0.54992369
558.593	0.55044075
558.796	0.55082052
558.999	0.55129521
559.202	0.55176777
559.404	0.55214013
559.607	0.55254266
559.81	0.55301831
560.013	0.55341861
560.216	0.55389652
560.418	0.55438019
560.621	0.55482212
560.824	0.55530124
561.026	0.55578408
561.229	0.55624268
561.432	0.55668343
561.634	0.55710998
561.837	0.55745816
562.04	0.55782685
562.242	0.55826248
562.445	0.55860715
562.647	0.55894679
562.85	0.55928616
563.053	0.55955354
563.255	0.55999145
563.458	0.56040252
563.66	0.56071356
563.863	0.56119276
564.065	0.56160789
564.268	0.56200117
564.47	0.56251436
564.672	0.56281253
564.875	0.56324541
565.077	0.56357761
565.28	0.56380774
565.482	0.56418114
565.684	0.56445115
565.887	0.56471548
566.089	0.56513612
566.291	0.56534998
566.494	0.56561846
566.696	0.5658822
566.898	0.56606099
567.1	0.56636552
567.303	0.56669763
567.505	0.5668978
567.707	0.56712016
567.909	0.56730424
568.111	0.56758572
568.314	0.56787098
568.516	0.56809175
568.718	0.56827751
568.92	0.56853327
569.122	0.56879807
569.324	0.56911842
569.526	0.56931809
569.728	0.56953736
569.93	0.56975592
570.132	0.56992517
570.334	0.57010236
570.536	0.57026276
570.738	0.57043898
570.94	0.57066984
571.142	0.57095099
571.344	0.5710475
571.546	0.57117372
571.748	0.57135179
571.95	0.5713739
572.152	0.57145574
572.354	0.57157303
572.555	0.57163612
572.757	0.5719178
572.959	0.57200575
573.161	0.57204678
573.363	0.57229617
573.564	0.57258759
573.766	0.57276595
573.968	0.57290329
574.17	0.57285743
574.371	0.57305021
574.573	0.5732043
574.775	0.57326683
574.976	0.5732216
575.178	0.57324073
575.38	0.57321082
575.581	0.5732622
575.783	0.57336274
575.985	0.57342782
576.186	0.57357635
576.388	0.57371187
576.589	0.57369046
576.791	0.57378196
576.992	0.57397089
577.194	0.57400098
577.395	0.5740114
577.597	0.57401193
577.798	0.57393941
578	0.57399685
578.201	0.57405528
578.402	0.57402326
578.604	0.57394326
578.805	0.57403928
579.007	0.57402464
579.208	0.57410236
579.409	0.57407464
579.611	0.57403714
579.812	0.57404519
580.013	0.57407383
580.215	0.57380752
580.416	0.57368269
580.617	0.57354588
580.818	0.57351313
581.019	0.57337234
581.221	0.57326437
581.422	0.57315653
581.623	0.57327507
581.824	0.5731501
582.025	0.57310774
582.226	0.57302405
582.428	0.57305703
582.629	0.57297056
582.83	0.57287616
583.031	0.57271445
583.232	0.57277422
583.433	0.57269702
583.634	0.57260339
583.835	0.57244763
584.036	0.5723117
584.237	0.57217046
584.438	0.5720961
584.639	0.57185619
584.84	0.5717505
585.041	0.57155119
585.242	0.57138177
585.442	0.57124584
585.643	0.57126342
585.844	0.57108876
586.045	0.57109719
586.246	0.57082133
586.447	0.57074811
586.647	0.5705913
586.848	0.57038958
587.049	0.57005703
587.25	0.56988778
587.45	0.56956023
587.651	0.56951619
587.852	0.56935382
588.053	0.5692571
588.253	0.56909865
588.454	0.56905238
588.655	0.56877249
588.855	0.56860824
589.056	0.56838217
589.256	0.56814201
589.457	0.56788771
589.658	0.56772389
589.858	0.56739531
590.059	0.56725071
590.259	0.56714969
590.46	0.56697049
590.66	0.56676312
590.861	0.56665539
591.061	0.56645861
591.262	0.56643467
591.462	0.56634583
591.662	0.56622729
591.863	0.5660072
592.063	0.56585588
592.264	0.56562604
592.464	0.56544105
592.664	0.5651966
592.865	0.56506698
593.065	0.5646627
593.265	0.56458853
593.465	0.56429717
593.666	0.564077
593.866	0.56383681
594.066	0.56362887
594.266	0.56332244
594.467	0.56301617
594.667	0.56270674
594.867	0.56258493
595.067	0.56227296
595.267	0.56204128
595.467	0.56176444
595.668	0.56150425
595.868	0.56138493
596.068	0.561135
596.268	0.56082697
596.468	0.5607585
596.668	0.56058101
596.868	0.56033162
597.068	0.56008817
597.268	0.55988124
597.468	0.55963525
597.668	0.5594129
597.868	0.55920527
598.068	0.5589632
598.268	0.55877759
598.467	0.55866392
598.667	0.55844603
598.867	0.55814027
599.067	0.55796328
599.267	0.55765599
599.467	0.55737016
599.667	0.55706141
599.866	0.5568692
600.066	0.55665903
600.266	0.55645329
600.466	0.55625602
600.665	0.55599586
600.865	0.55579153
601.065	0.55568941
601.264	0.55528992
601.464	0.55507037
601.664	0.55503593
601.863	0.55480635
602.063	0.55470773
602.263	0.55431635
602.462	0.55414997
602.662	0.55405068
602.861	0.55386281
603.061	0.55359986
603.26	0.55337325
603.46	0.55298178
603.659	0.55297685
603.859	0.55274537
604.058	0.55247268
604.258	0.55234366
604.457	0.55219219
604.657	0.55183325
604.856	0.55162555
605.056	0.55147984
605.255	0.55116825
605.454	0.55096764
605.654	0.55059511
605.853	0.55034282
606.052	0.55024052
606.252	0.55010319
606.451	0.54992168
606.65	0.54973901
606.849	0.54943354
607.049	0.54933561
607.248	0.54905882
607.447	0.54892459
607.646	0.54881068
607.845	0.54855131
608.045	0.54835074
608.244	0.54846772
608.443	0.5483109
608.642	0.54829321
608.841	0.5481417
609.04	0.54792421
609.239	0.54781667
609.438	0.54762065
609.637	0.54742744
609.836	0.54731796
610.035	0.54708826
610.234	0.5469799
610.433	0.54688733
610.632	0.54675088
610.831	0.54679818
611.03	0.54656166
611.229	0.54659156
611.428	0.54659514
611.627	0.54655641
611.826	0.54651028
612.025	0.54656015
612.224	0.54638113
612.422	0.54633551
612.621	0.5460912
612.82	0.54598453
613.019	0.54585776
613.218	0.5458288
613.416	0.5455651
613.615	0.54563989
613.814	0.54558694
614.012	0.54558216
614.211	0.54541306
614.41	0.5453324
614.608	0.54523781
614.807	0.54522226
615.006	0.54511421
615.204	0.54504631
615.403	0.54501256
615.602	0.5451405
615.8	0.54523736
615.999	0.54511809
616.197	0.54503545
616.396	0.54507327
616.594	0.54501669
616.793	0.54504198
616.991	0.54492884
617.19	0.54475752
617.388	0.54492064
617.586	0.54498634
617.785	0.54491248
617.983	0.54491677
618.182	0.54477035
618.38	0.54469981
618.578	0.54468574
618.777	0.54463359
618.975	0.54465784
619.173	0.54468178
619.372	0.54472359
619.57	0.54476222
619.768	0.544865
619.966	0.54496798
620.165	0.5448668
620.363	0.54497742
620.561	0.54484902
620.759	0.54495018
620.957	0.54507809
621.155	0.54514046
621.354	0.54505447
621.552	0.54532785
621.75	0.54527822
621.948	0.54556931
622.146	0.54558287
622.344	0.54559515
622.542	0.54566153
622.74	0.54580149
622.938	0.54568786
623.136	0.54589121
623.334	0.54593424
623.532	0.54593337
623.73	0.54599603
623.928	0.54611656
624.126	0.54632603
624.324	0.5466109
624.522	0.54648727
624.719	0.54650789
624.917	0.54673429
625.115	0.54677883
625.313	0.5468722
625.511	0.54698801
625.708	0.54680862
625.906	0.54700521
626.104	0.5470836
626.302	0.54732829
626.499	0.54756212
626.697	0.54768019
626.895	0.54765642
627.093	0.54798309
627.29	0.54826385
627.488	0.54842435
627.686	0.54854117
627.883	0.54861397
628.081	0.54866431
628.278	0.54909264
628.476	0.549196
628.673	0.54926485
628.871	0.54942925
629.068	0.54948937
629.266	0.54973905
629.463	0.5499038
629.661	0.54987572
629.858	0.55009114
630.056	0.55029722
630.253	0.55048661
630.451	0.55069039
630.648	0.55084998
630.845	0.55106264
631.043	0.55122702
631.24	0.5514345
631.438	0.55161269
631.635	0.5518456
631.832	0.5519147
632.029	0.55213754
632.227	0.55241772
632.424	0.55268431
632.621	0.55279649
632.818	0.55290666
633.016	0.55311158
633.213	0.55331755
633.41	0.55349392
633.607	0.55359529
633.804	0.55371697
634.001	0.55389201
634.199	0.55416524
634.396	0.55440092
634.593	0.55456287
634.79	0.55478346
634.987	0.55504687
635.184	0.55534091
635.381	0.55565996
635.578	0.55600675
635.775	0.55618809
635.972	0.55651434
636.169	0.5567663
636.366	0.55696612
636.563	0.55711993
636.76	0.5572267
636.957	0.55736287
637.153	0.55742783
637.35	0.5577028
637.547	0.55787683
637.744	0.5581092
637.941	0.55842092
638.138	0.55860993
638.334	0.55872054
638.531	0.55908576
638.728	0.55924507
638.925	0.55965357
639.121	0.55986185
639.318	0.56000556
639.515	0.56024279
639.711	0.56062497
639.908	0.56074845
640.105	0.56099005
640.301	0.56106917
640.498	0.56128506
640.695	0.56163978
640.891	0.56189996
641.088	0.56204254
641.284	0.56238465
641.481	0.56262694
641.677	0.56284638
641.874	0.56306878
642.07	0.56325494
642.267	0.56373309
642.463	0.56398524
642.66	0.56439117
642.856	0.56457259
643.053	0.56469669
643.249	0.56508505
643.445	0.56533806
643.642	0.56548713
643.838	0.56580836
644.034	0.56588458
644.231	0.56616486
644.427	0.56649557
644.623	0.56662354
644.82	0.56687376
645.016	0.56699766
645.212	0.56711231
645.408	0.56739143
645.604	0.56782458
645.801	0.56810445
645.997	0.56842539
646.193	0.56852861
646.389	0.56893265
646.585	0.56921723
646.781	0.56945455
646.977	0.56965455
647.173	0.56991259
647.37	0.57014145
647.566	0.5704693
647.762	0.57066069
647.958	0.57107669
648.154	0.57131666
648.35	0.57153304
648.546	0.57170676
648.742	0.57202075
648.937	0.57219598
649.133	0.57252944
649.329	0.57272295
649.525	0.57299269
649.721	0.5732821
649.917	0.57378226
650.113	0.57394017
650.309	0.57435768
650.504	0.57444954
650.7	0.57460194
650.896	0.57480966
651.092	0.57495506
651.287	0.57501335
651.483	0.57537467
651.679	0.57549848
651.875	0.575903
652.07	0.57620031
652.266	0.57657381
652.462	0.57684509
652.657	0.57703914
652.853	0.57716485
653.048	0.57744229
653.244	0.57743852
653.44	0.57756875
653.635	0.57752249
653.831	0.5776979
654.026	0.57800564
654.222	0.57819578
654.417	0.57847763
654.613	0.57872539
654.808	0.5788389
655.004	0.57919329
655.199	0.57938912
655.394	0.57956511
655.59	0.57990065
655.785	0.58002593
655.98	0.58033684
656.176	0.58060751
656.371	0.58087649
656.566	0.58110616
656.762	0.58121748
656.957	0.58138066
657.152	0.5815957
657.348	0.58178729
657.543	0.58204219
657.738	0.5822701
657.933	0.58246756
658.128	0.58272161
658.324	0.58281281
658.519	0.58304276
658.714	0.58327341
658.909	0.58346908
659.104	0.58365169
659.299	0.58389511
659.494	0.58401231
659.689	0.58429542
659.884	0.58438829
660.079	0.58439983
660.274	0.58453218
660.469	0.58468302
660.664	0.58486653
660.859	0.58504679
661.054	0.58519801
661.249	0.58540899
661.444	0.58567889
661.639	0.58579251
661.834	0.58584191
662.029	0.58598771
662.224	0.58621045
662.418	0.58630343
662.613	0.58649515
662.808	0.58654906
663.003	0.58684719
663.198	0.58702283
663.392	0.58700896
663.587	0.587257
663.782	0.58728336
663.977	0.5873514
664.171	0.58760265
664.366	0.58774815
664.561	0.58793159
664.755	0.58816053
664.95	0.58813849
665.144	0.58840125
665.339	0.58860439
665.534	0.58869384
665.728	0.58880177
665.923	0.58899757
666.117	0.58915191
666.312	0.58941952
666.506	0.58963938
666.701	0.58962404
666.895	0.58976437
667.09	0.58985255
667.284	0.58996067
667.479	0.59004718
667.673	0.59007179
667.867	0.59027917
668.062	0.59060115
668.256	0.59082491
668.45	0.59107286
668.645	0.59118307
668.839	0.5913862
669.033	0.59149105
669.228	0.59143248
669.422	0.59148339
669.616	0.59143985
669.81	0.59153991
670.004	0.59154059
670.199	0.59166948
670.393	0.59178103
670.587	0.59187971
670.781	0.5920388
670.975	0.59217596
671.169	0.59206749
671.363	0.59217442
671.558	0.59204294
671.752	0.59208615
671.946	0.59218381
672.14	0.59216157
672.334	0.59215268
672.528	0.59239335
672.722	0.5923885
672.916	0.59261297
673.11	0.59261125
673.304	0.59280139
673.497	0.59272219
673.691	0.59292798
673.885	0.59281613
674.079	0.59297675
674.273	0.59295266
674.467	0.5931925
674.661	0.59310461
674.854	0.59328211
675.048	0.59328354
675.242	0.59345986
675.436	0.59349277
675.629	0.59347548
675.823	0.59330541
676.017	0.59342815
676.211	0.5933652
676.404	0.59333234
676.598	0.59332116
676.792	0.59338141
676.985	0.59349283
677.179	0.59358912
677.372	0.59349344
677.566	0.59366476
677.76	0.59375061
677.953	0.59379708
678.147	0.59382626
678.34	0.59398425
678.534	0.59404069
678.727	0.59414544
678.921	0.59423041
679.114	0.59420366
679.307	0.59422572
679.501	0.59424065
679.694	0.59413423
679.888	0.59412541
680.081	0.59408105
680.274	0.59384658
680.468	0.59386897
680.661	0.5938363
680.854	0.59394319
681.048	0.59408434
681.241	0.59410049
681.434	0.59412556
681.627	0.59425349
681.821	0.59425223
682.014	0.59431023
682.207	0.59414029
682.4	0.59395287
682.593	0.59394123
682.786	0.59383325
682.98	0.59380852
683.173	0.59385367
683.366	0.59375814
683.559	0.59371822
683.752	0.59379455
683.945	0.59369101
684.138	0.59380078
684.331	0.5937522
684.524	0.59374239
684.717	0.59371959
684.91	0.59382898
685.103	0.5938225
685.296	0.59391741
685.489	0.59389173
685.682	0.59383288
685.874	0.59395661
686.067	0.59400368
686.26	0.59388556
686.453	0.59372443
686.646	0.59354469
686.839	0.59351096
687.031	0.59350469
687.224	0.5931403
687.417	0.59309251
687.61	0.59297576
687.802	0.5928504
687.995	0.59290675
688.188	0.5928129
688.38	0.59271823
688.573	0.59280635
688.766	0.59266047
688.958	0.59265252
689.151	0.59258669
689.343	0.59253605
689.536	0.59241771
689.729	0.59231026
689.921	0.59219225
690.114	0.59203197
690.306	0.59192031
690.499	0.59194186
690.691	0.59188157
690.884	0.59176679
691.076	0.59175692
691.268	0.59166335
691.461	0.59152541
691.653	0.59150085
691.846	0.59151676
692.038	0.59139889
692.23	0.59121023
692.423	0.59109876
692.615	0.59099932
692.807	0.59096281
692.999	0.59084009
693.192	0.5906148
693.384	0.59049562
693.576	0.59041912
693.768	0.59037008
693.961	0.59016493
694.153	0.5901584
694.345	0.58998427
694.537	0.58992132
694.729	0.58982053
694.921	0.58984527
695.113	0.58983968
695.305	0.58980876
695.498	0.58966287
695.69	0.58970863
695.882	0.58958553
696.074	0.58958478
696.266	0.58941507
696.458	0.5891158
696.65	0.58915409
696.842	0.58910047
697.033	0.58899657
697.225	0.58890411
697.417	0.58882805
697.609	0.58880165
697.801	0.58876964
697.993	0.58868605
698.185	0.58854005
698.376	0.58840466
698.568	0.58828347
698.76	0.58819772
698.952	0.58807534
699.144	0.58798899
699.335	0.58778306
699.527	0.58771135
699.719	0.58761216
699.91	0.5876086
700.102	0.58742972
700.294	0.58735989
700.485	0.58722238
700.677	0.58704615
700.869	0.58699555
701.06	0.58696379
701.252	0.58682004
701.443	0.58673227
701.635	0.58664509
701.826	0.58660247
702.018	0.5866499
702.209	0.5864946
702.401	0.58632325
702.592	0.58624038
702.784	0.58607561
702.975	0.5859303
703.166	0.58575515
703.358	0.58554226
703.549	0.58548969
703.741	0.5853256
703.932	0.58522159
704.123	0.58518613
704.315	0.58506514
704.506	0.5851172
704.697	0.58504001
704.888	0.58502072
705.08	0.58491141
705.271	0.58479254
705.462	0.58454901
705.653	0.58438469
705.844	0.5840861
706.035	0.58393014
706.227	0.58363473
706.418	0.58350445
706.609	0.583447
706.8	0.58348941
706.991	0.58344647
707.182	0.58347969
707.373	0.58339692
707.564	0.5833825
707.755	0.5832339
707.946	0.582966
708.137	0.58265824
708.328	0.58248965
708.519	0.58239444
708.71	0.58224912
708.901	0.58205506
709.092	0.58202415
709.283	0.58197583
709.473	0.58191619
709.664	0.58183416
709.855	0.58163196
710.046	0.58158764
710.237	0.58145707
710.427	0.5812514
710.618	0.58113221
710.809	0.58109212
711	0.58109544
711.19	0.58093922
711.381	0.58095679
711.572	0.58092549
711.762	0.58110116
711.953	0.5810013
712.144	0.58086696
712.334	0.58066915
712.525	0.58069409
712.715	0.58057058
712.906	0.58048182
713.097	0.58012932
713.287	0.58006614
713.478	0.58004984
713.668	0.58010429
713.859	0.57996825
714.049	0.57972576
714.239	0.57964633
714.43	0.57964634
714.62	0.57955086
714.811	0.57936588
715.001	0.5791653
715.191	0.57903344
715.382	0.57895206
715.572	0.57894703
715.762	0.57881884
715.953	0.5787836
716.143	0.57881527
716.333	0.57864358
716.523	0.57855369
716.714	0.57855773
716.904	0.57834537
717.094	0.57827919
717.284	0.57800289
717.474	0.57780487
717.664	0.57789997
717.855	0.57785396
718.045	0.57777241
718.235	0.57771121
718.425	0.57781643
718.615	0.57803392
718.805	0.57812222
718.995	0.57813184
719.185	0.57822087
719.375	0.57813354
719.565	0.57815139
719.755	0.57784728
719.945	0.57765555
720.135	0.57758414
720.325	0.57745791
720.515	0.57732149
720.704	0.57731746
720.894	0.57736932
721.084	0.57742346
721.274	0.57744208
721.464	0.57744555
721.654	0.57743186
721.843	0.57745198
722.033	0.57739968
722.223	0.57723846
722.413	0.57739078
722.602	0.57743601
722.792	0.5773343
722.982	0.57732309
723.171	0.57736389
723.361	0.57745031
723.55	0.57762417
723.74	0.57750649
723.93	0.57743907
724.119	0.57751675
724.309	0.57747254
724.498	0.57732631
724.688	0.57719526
724.877	0.5770872
725.067	0.57703336
725.256	0.57694305
725.446	0.57678243
725.635	0.57656693
725.825	0.57651994
726.014	0.57642362
726.203	0.57624833
726.393	0.57606052
726.582	0.57590138
726.771	0.57581561
726.961	0.57589232
727.15	0.57572382
727.339	0.5757182
727.529	0.57580029
727.718	0.57589963
727.907	0.57584623
728.096	0.57579404
728.286	0.57565503
728.475	0.57573812
728.664	0.57563186
728.853	0.57531502
729.042	0.57508719
729.231	0.57501581
729.42	0.57492716
729.609	0.57481046
729.799	0.5745891
729.988	0.57456664
730.177	0.57450591
730.366	0.57448991
730.555	0.57446399
730.744	0.57440257
730.933	0.57444533
731.122	0.57447193
731.31	0.57444293
731.499	0.57453007
731.688	0.57460883
731.877	0.57456844
732.066	0.57458505
732.255	0.57440742
732.444	0.57429282
732.632	0.5741408
732.821	0.5740375
733.01	0.57390633
733.199	0.5737388
733.388	0.57361825
733.576	0.5736778
733.765	0.57372979
733.954	0.57376658
734.142	0.57368992
734.331	0.57365201
734.52	0.57367863
734.708	0.57361167
734.897	0.57356119
735.086	0.57348316
735.274	0.57340035
735.463	0.57344559
735.651	0.57345999
735.84	0.57362258
736.028	0.57375141
736.217	0.5738516
736.405	0.57386537
736.594	0.57395712
736.782	0.57405995
736.971	0.5739794
737.159	0.57380798
737.347	0.57372998
737.536	0.57357063
737.724	0.57359151
737.912	0.57354712
738.101	0.57338399
738.289	0.5734358
738.477	0.57352563
738.666	0.57349765
738.854	0.57359077
739.042	0.57358502
739.23	0.5734675
739.418	0.57346194
739.607	0.57328625
739.795	0.57318246
739.983	0.57326173
740.171	0.57323764
740.359	0.57321299
740.547	0.57317361
740.735	0.57323222
740.923	0.57342508
741.112	0.57349762
741.3	0.57350064
741.488	0.5733417
741.676	0.5734503
741.864	0.57352884
742.052	0.57360534
742.239	0.5734449
742.427	0.57337501
742.615	0.57332051
742.803	0.57343413
742.991	0.57327088
743.179	0.57334198
743.367	0.57326246
743.555	0.57352212
743.742	0.57362801
743.93	0.57378852
744.118	0.5738806
744.306	0.5739763
744.494	0.57393067
744.681	0.57398866
744.869	0.57392211
745.057	0.57399729
745.244	0.57393887
745.432	0.57402472
745.62	0.57411914
745.807	0.57428153
745.995	0.57435648
746.182	0.57430469
746.37	0.57430945
746.558	0.57427143
746.745	0.57411677
746.933	0.57403125
747.12	0.57394332
747.308	0.57391936
747.495	0.5738364
747.683	0.57375407
747.87	0.57375161
748.057	0.57396051
748.245	0.57410278
748.432	0.57419346
748.62	0.57421507
748.807	0.57447867
748.994	0.5745562
749.182	0.57477096
749.369	0.5747194
749.556	0.57482152
749.743	0.5747889
749.931	0.57486617
750.118	0.57495165
750.305	0.57508171
750.492	0.57501506
750.68	0.57515997
750.867	0.57515969
751.054	0.57536234
751.241	0.57545508
751.428	0.57547949
751.615	0.57551645
751.802	0.5755813
751.989	0.57553507
752.176	0.57559331
752.363	0.57560717
752.55	0.57557214
752.737	0.57557641
752.924	0.57554655
753.111	0.57557886
753.298	0.57565457
753.485	0.57565273
753.672	0.57565898
753.859	0.57580622
754.046	0.57592585
754.233	0.57599558
754.42	0.57618429
754.606	0.57624196
754.793	0.57628687
754.98	0.57652223
755.167	0.57647129
755.353	0.57652646
755.54	0.57667712
755.727	0.57670538
755.914	0.57677686
756.1	0.57685564
756.287	0.57676401
756.474	0.5769117
756.66	0.57705072
756.847	0.57715603
757.033	0.57713411
757.22	0.57718512
757.407	0.57746273
757.593	0.57759269
757.78	0.57752385
757.966	0.57757376
758.153	0.577555
758.339	0.57758609
758.526	0.57764322
758.712	0.57743262
758.898	0.57759892
759.085	0.57767731
759.271	0.57757327
759.458	0.57765077
759.644	0.57785777
759.83	0.57797842
760.017	0.57818102
760.203	0.57809721
760.389	0.57828965
760.576	0.57840229
760.762	0.57850587
760.948	0.5783939
761.134	0.57844566
761.32	0.57846756
761.507	0.5784953
761.693	0.57868534
761.879	0.57885402
762.065	0.57913618
762.251	0.57945565
762.437	0.57967417
762.623	0.5797993
762.809	0.5799446
762.995	0.57995576
763.181	0.57992814
763.367	0.57985858
763.553	0.57986831
763.739	0.57993116
763.925	0.58005247
764.111	0.58029129
764.297	0.58048684
764.483	0.58059957
764.669	0.58058621
764.855	0.58064104
765.041	0.58069863
765.227	0.58074267
765.412	0.58077946
765.598	0.58076743
765.784	0.58090261
765.97	0.58107174
766.156	0.58124384
766.341	0.58133639
766.527	0.58136045
766.713	0.58137847
766.898	0.58144421
767.084	0.58152741
767.27	0.58151233
767.455	0.58141857
767.641	0.58143324
767.827	0.58147895
768.012	0.5815384
768.198	0.58166759
768.383	0.58175541
768.569	0.58194639
768.754	0.58211292
768.94	0.58221485
769.125	0.58233066
769.311	0.58228777
769.496	0.58229301
769.682	0.58237679
769.867	0.5825123
770.052	0.58265218
770.238	0.58268921
770.423	0.58289141
770.608	0.58315677
770.794	0.58333227
770.979	0.58337047
771.164	0.58339392
771.35	0.58347667
771.535	0.58360486
771.72	0.58364673
771.905	0.58380105
772.09	0.58377217
772.276	0.5840255
772.461	0.58407623
772.646	0.58405532
772.831	0.5842532
773.016	0.58453904
773.201	0.58453732
773.386	0.58476578
773.571	0.58464212
773.756	0.58472195
773.941	0.58481097
774.126	0.5849802
774.311	0.58475469
774.496	0.58479704
774.681	0.58473777
774.866	0.58489423
775.051	0.58497442
775.236	0.58500416
775.421	0.58479667
775.606	0.5848315
775.791	0.5848946
775.976	0.58498156
776.16	0.5850755
776.345	0.58515819
776.53	0.5854376
776.715	0.58561285
776.899	0.58579147
777.084	0.58591052
777.269	0.58603299
777.454	0.58609009
777.638	0.58620927
777.823	0.58614413
778.008	0.58600467
778.192	0.58609325
778.377	0.58612026
778.561	0.58621678
778.746	0.58630362
778.931	0.58639991
779.115	0.58665467
779.3	0.58702379
779.484	0.58712706
779.669	0.58718697
779.853	0.58720585
780.037	0.58728192
780.222	0.58718791
780.406	0.58705674
780.591	0.58710301
780.775	0.58713551
780.959	0.58725849
781.144	0.58739922
781.328	0.58745391
781.512	0.58749715
781.697	0.58752195
781.881	0.58752308
782.065	0.58766482
782.249	0.58763301
782.434	0.58767289
782.618	0.58767625
782.802	0.58791184
782.986	0.58814885
783.17	0.58824605
783.354	0.58820318
783.539	0.58833985
783.723	0.58823962
783.907	0.58832483
784.091	0.58838536
784.275	0.58842862
784.459	0.58847094
784.643	0.58878209
784.827	0.58883593
785.011	0.58907879
785.195	0.58929614
785.379	0.58944158
785.563	0.58957136
785.747	0.58960506
785.93	0.58977431
786.114	0.58979238
786.298	0.58972533
786.482	0.58953162
786.666	0.58944805
786.85	0.58934623
787.033	0.58941444
787.217	0.58924602
787.401	0.58941268
787.585	0.58955724
787.768	0.58984378
787.952	0.58972916
788.136	0.58975211
788.319	0.58979395
788.503	0.5896487
788.687	0.58953541
788.87	0.58944977
789.054	0.58944942
789.237	0.58956823
789.421	0.5896876
789.605	0.58964167
789.788	0.58968772
789.972	0.58970321
790.155	0.5896965
790.338	0.58963531
790.522	0.58979702
790.705	0.58981927
790.889	0.58988262
791.072	0.5900922
791.256	0.59031658
791.439	0.59050451
791.622	0.59058535
791.806	0.59082072
791.989	0.59078948
792.172	0.59087039
792.355	0.59086218
792.539	0.59079504
792.722	0.59076475
792.905	0.59065605
793.088	0.59038776
793.271	0.59042637
793.455	0.59048016
793.638	0.59049377
793.821	0.59041926
794.004	0.59041006
794.187	0.5906732
794.37	0.59092776
794.553	0.59114996
794.736	0.59110771
794.919	0.5910811
795.102	0.591227
795.285	0.5913195
795.468	0.59112427
795.651	0.59096383
795.834	0.59093263
796.017	0.59108015
796.2	0.59100824
796.383	0.59099002
796.566	0.59112485
796.749	0.59127702
796.931	0.59135449
797.114	0.59133012
797.297	0.59135096
797.48	0.59144872
797.663	0.59155754
797.845	0.5916742
798.028	0.59184132
798.211	0.59186147
798.393	0.59171874
798.576	0.59157026
798.759	0.59143264
798.941	0.59129444
799.124	0.59112705
799.307	0.59103832
799.489	0.59107014
799.672	0.59121415
799.854	0.59133449
800.037	0.59156392
800.219	0.59179375
800.402	0.5918826
800.584	0.59174522
800.767	0.59174484
800.949	0.5917134
801.132	0.59184282
801.314	0.59183076
801.496	0.59174469
801.679	0.5916517
801.861	0.59168095
802.043	0.59143506
802.226	0.59138411
802.408	0.59121424
802.59	0.59123531
802.772	0.59131518
802.955	0.59135969
803.137	0.59146054
803.319	0.59165276
803.501	0.59170468
803.684	0.59172963
803.866	0.59149375
804.048	0.59135388
804.23	0.59124515
804.412	0.59116772
804.594	0.59103515
804.776	0.59122061
804.958	0.5911387
805.14	0.59128704
805.322	0.59127683
805.504	0.59140181
805.686	0.59137896
805.868	0.59141538
806.05	0.59122405
806.232	0.59127873
806.414	0.59148783
806.596	0.59151057
806.778	0.59142524
806.96	0.59154727
807.141	0.59149225
807.323	0.59140697
807.505	0.59127379
807.687	0.59104165
807.869	0.59097534
808.05	0.59083782
808.232	0.59065259
808.414	0.59079726
808.595	0.59082311
808.777	0.59080034
808.959	0.59086759
809.14	0.59090082
809.322	0.59104852
809.504	0.59104664
809.685	0.59116568
809.867	0.59104299
810.048	0.59109459
810.23	0.59105538
810.411	0.59097521
810.593	0.5907944
810.774	0.59068349
810.956	0.59036216
811.137	0.59032267
811.319	0.59032229
811.5	0.59018675
811.681	0.59014151
811.863	0.59007501
812.044	0.59005814
812.225	0.5901854
812.407	0.5901673
812.588	0.58994494
812.769	0.58974908
812.951	0.5896122
813.132	0.58962798
813.313	0.58980702
813.494	0.589571
813.675	0.58964357
813.857	0.58976754
814.038	0.59000296
814.219	0.58993273
814.4	0.58982768
814.581	0.58973051
814.762	0.58970394
814.943	0.58965824
815.124	0.58953499
815.305	0.58948228
815.486	0.58969267
815.667	0.58973342
815.848	0.5894496
816.029	0.58931619
816.21	0.58923029
816.391	0.58923959
816.572	0.58896467
816.753	0.58876871
816.934	0.58852788
817.115	0.58851872
817.295	0.58856049
817.476	0.58829838
817.657	0.588226
817.838	0.58841581
818.019	0.58828655
818.199	0.5884068
818.38	0.58835235
818.561	0.58833965
818.741	0.58829669
818.922	0.58812397
819.103	0.5880026
819.283	0.58806499
819.464	0.58785028
819.645	0.58772384
819.825	0.58757836
820.006	0.58762056
820.186	0.58765622
820.367	0.58738176
820.547	0.58707233
820.728	0.58686393
820.908	0.586755
821.089	0.58684631
821.269	0.58688962
821.45	0.58687034
821.63	0.58680427
821.81	0.58696678
821.991	0.58717347
822.171	0.58723923
822.351	0.58698192
822.532	0.58675746
822.712	0.58649088
822.892	0.58638868
823.072	0.58605803
823.253	0.58580211
823.433	0.58558555
823.613	0.58542729
823.793	0.5852126
823.973	0.5852116
824.154	0.5851111
824.334	0.58501531
824.514	0.58486188
824.694	0.58489721
824.874	0.58466489
825.054	0.58469132
825.234	0.58449189
825.414	0.58431349
825.594	0.58429524
825.774	0.58423624
825.954	0.58392905
826.134	0.58382895
826.314	0.58353763
826.494	0.58357834
826.674	0.5832596
826.854	0.58295555
827.033	0.58268162
827.213	0.58281189
827.393	0.58266424
827.573	0.58270905
827.753	0.5823992
827.932	0.5825975
828.112	0.58275202
828.292	0.58285332
828.472	0.58246688
828.651	0.58268406
828.831	0.58241184
829.011	0.58231151
829.19	0.58204182
829.37	0.58169571
829.549	0.58151738
829.729	0.58137361
829.909	0.58102043
830.088	0.58091841
830.268	0.58057139
830.447	0.58062909
830.627	0.58073555
830.806	0.58074612
830.986	0.58055336
831.165	0.5806064
831.344	0.58051118
831.524	0.58055356
831.703	0.58029571
831.883	0.57987672
832.062	0.57950878
832.241	0.57935294
832.421	0.57908445
832.6	0.57889936
832.779	0.57877613
832.958	0.57856447
833.138	0.57835626
833.317	0.57841455
833.496	0.57836464
833.675	0.57820311
833.854	0.57839722
834.034	0.57828884
834.213	0.57819581
834.392	0.57830473
834.571	0.57786401
834.75	0.57774013
834.929	0.57757499
835.108	0.57697167
835.287	0.57687782
835.466	0.5766897
835.645	0.57654672
835.824	0.57641826
836.003	0.57633339
836.182	0.57616772
836.361	0.57627238
836.54	0.57594682
836.719	0.5758046
836.897	0.57548466
837.076	0.57535559
837.255	0.57518074
837.434	0.5751126
837.613	0.57479788
837.791	0.57471518
837.97	0.57458767
838.149	0.57444917
838.328	0.57437483
838.506	0.57402988
838.685	0.57377518
838.864	0.57379136
839.042	0.57354095
839.221	0.57342946
839.4	0.5733053
839.578	0.57310947
839.757	0.5728424
839.935	0.57265951
840.114	0.57245712
840.292	0.57232945
840.471	0.57222594
840.649	0.57195096
840.828	0.5716539
841.006	0.57166149
841.185	0.57126645
841.363	0.57095637
841.541	0.57071435
841.72	0.57058104
841.898	0.57061014
842.076	0.57058924
842.255	0.57046768
842.433	0.5705189
842.611	0.57014742
842.789	0.56986486
842.968	0.56969998
843.146	0.56920906
843.324	0.56900874
843.502	0.5687154
843.68	0.56864176
843.859	0.56855285
844.037	0.56840101
844.215	0.56791867
844.393	0.56794647
844.571	0.56769042
844.749	0.56748449
844.927	0.56719061
845.105	0.56692865
845.283	0.56660466
845.461	0.56630522
845.639	0.56595928
845.817	0.56556394
845.995	0.56554169
846.173	0.56525009
846.351	0.5649885
846.529	0.56490421
846.706	0.56476284
846.884	0.56461852
847.062	0.56441847
847.24	0.56395065
847.418	0.56356561
847.595	0.56341526
847.773	0.56316692
847.951	0.56292966
848.129	0.56274689
848.306	0.56293579
848.484	0.56297133
848.662	0.56306605
848.839	0.56302135
849.017	0.56303151
849.194	0.562761
849.372	0.56238346
849.549	0.56181189
849.727	0.56148361
849.905	0.56088554
850.082	0.5603823
850.26	0.55987356
850.437	0.55960425
850.614	0.55959204
850.792	0.55950369
850.969	0.55963359
851.147	0.55986535
851.324	0.56005376
851.501	0.560154
851.679	0.5602111
851.856	0.56002183
852.033	0.55998409
852.211	0.55954478
852.388	0.55905343
852.565	0.55900784
852.742	0.55882851
852.92	0.55862919
853.097	0.55839481
853.274	0.55802879
853.451	0.5574556
853.628	0.55720075
853.805	0.55657423
853.982	0.55605534
854.159	0.55558328
854.336	0.55534883
854.514	0.5550193
854.691	0.554944
854.868	0.55488444
855.045	0.55468298
855.221	0.55467471
855.398	0.55458682
855.575	0.55428738
855.752	0.55413968
855.929	0.55415011
856.106	0.55371002
856.283	0.55353786
856.46	0.55335195
856.637	0.55324493
856.813	0.55299806
856.99	0.55270948
857.167	0.5523711
857.344	0.55226047
857.52	0.55197933
857.697	0.55130816
857.874	0.55085842
858.05	0.55047153
858.227	0.55016063
858.404	0.54994027
858.58	0.5500025
858.757	0.54977235
858.933	0.5499222
859.11	0.54989062
859.287	0.54961314
859.463	0.54939162
859.64	0.5491753
859.816	0.54862653
859.993	0.54841458
860.169	0.54818031
860.345	0.54781662
860.522	0.54777258
860.698	0.54755218
860.875	0.54720391
861.051	0.54709736
861.227	0.5466633
861.404	0.54653877
861.58	0.54643747
861.756	0.54616708
861.932	0.5461269
862.109	0.54570167
862.285	0.54557319
862.461	0.54585446
862.637	0.54549789
862.813	0.54514432
862.99	0.54478433
863.166	0.54412684
863.342	0.54443337
863.518	0.54372792
863.694	0.5431797
863.87	0.54269868
864.046	0.54239491
864.222	0.54220151
864.398	0.54220745
864.574	0.54142966
864.75	0.54142935
864.926	0.54117837
865.102	0.54125273
865.278	0.54095927
865.454	0.54102105
865.63	0.54084911
865.805	0.54087318
865.981	0.54085308
866.157	0.54087019
866.333	0.54029525
866.509	0.54036796
866.684	0.5399452
866.86	0.53987095
867.036	0.53942751
867.212	0.53870534
867.387	0.53811378
867.563	0.53803828
867.739	0.53758621
867.914	0.53739962
868.09	0.53690512
868.265	0.53682843
868.441	0.53682383
868.617	0.536806
868.792	0.53664745
868.968	0.53640577
869.143	0.53631122
869.319	0.53624542
869.494	0.53589536
869.67	0.53564072
869.845	0.53534102
870.02	0.53524249
870.196	0.53499081
870.371	0.53451646
870.546	0.53415466
870.722	0.5340408
870.897	0.53364764
871.072	0.53325891
871.248	0.53271091
871.423	0.53242059
871.598	0.53238199
871.773	0.5319853
871.949	0.53169155
872.124	0.53194156
872.299	0.53178357
872.474	0.53181754
872.649	0.53160464
872.824	0.53122776
872.999	0.53120517
873.174	0.53121786
873.349	0.53098875
873.524	0.53100135
873.699	0.53069495
873.874	0.53059779
874.049	0.53027307
874.224	0.52999997
874.399	0.52938769
874.574	0.52903291
874.749	0.52859187
874.924	0.52822346
875.099	0.52778404
875.274	0.52764683
875.449	0.52767244
875.623	0.52756077
875.798	0.5272002
875.973	0.52708342
876.148	0.52668328
876.322	0.52655378
876.497	0.5262565
876.672	0.52581915
876.846	0.52559834
877.021	0.52538164
877.196	0.52442956
877.37	0.52435948
877.545	0.52444686
877.72	0.52412407
877.894	0.52376543
878.069	0.52323918
878.243	0.52240803
878.418	0.52270941
878.592	0.52233123
878.767	0.52165403
878.941	0.52140937
879.116	0.52091758
879.29	0.52078909
879.464	0.52079609
879.639	0.52027679
879.813	0.52035706
879.987	0.51998838
880.162	0.51960313
880.336	0.51955369
880.51	0.51942392
880.685	0.5193008
880.859	0.51918651
881.033	0.51865762
881.207	0.5181798
881.381	0.51796647
881.556	0.51751866
881.73	0.51686715
881.904	0.51684895
882.078	0.51649746
882.252	0.51600795
882.426	0.51582292
882.6	0.51543319
882.774	0.51527719
882.948	0.51519253
883.122	0.51448965
883.296	0.51417889
883.47	0.51417534
883.644	0.51418462
883.818	0.51387268
883.992	0.51368818
884.166	0.5138408
884.34	0.51386818
884.514	0.51390702
884.687	0.51374869
884.861	0.51309085
885.035	0.51302902
885.209	0.51273376
885.382	0.51224061
885.556	0.51182484
885.73	0.51143248
885.904	0.51124896
886.077	0.5111098
886.251	0.51095749
886.425	0.5108799
886.598	0.5104978
886.772	0.51019738
886.945	0.50946869
887.119	0.50867375
887.292	0.50845486
887.466	0.50824793
887.64	0.50774
887.813	0.5073902
887.986	0.50711612
888.16	0.50730304
888.333	0.50693614
888.507	0.50674083
888.68	0.50603178
888.854	0.50561463
889.027	0.5053019
889.2	0.50525268
889.374	0.50487985
889.547	0.50504958
889.72	0.5050831
889.893	0.50510983
890.067	0.50483516
890.24	0.50454835
890.413	0.5040921
890.586	0.50363348
890.759	0.50337714
890.933	0.50279159
891.106	0.50228717
891.279	0.50206526
891.452	0.50198272
891.625	0.50155102
891.798	0.50133712
891.971	0.50072048
892.144	0.50026975
892.317	0.50037341
892.49	0.49982966
892.663	0.49959663
892.836	0.49982654
893.009	0.49981071
893.182	0.49965162
893.355	0.49981256
893.527	0.49938474
893.7	0.49995268
893.873	0.49967823
894.046	0.4990814
894.219	0.49890419
894.391	0.49902071
894.564	0.49883919
894.737	0.49859698
894.91	0.49794143
895.082	0.49760978
895.255	0.49749104
895.428	0.49698295
895.6	0.49616253
895.773	0.49533776
895.945	0.49487484
896.118	0.49459755
896.291	0.49442307
896.463	0.49411169
896.636	0.49375088
896.808	0.49364244
896.981	0.49359215
897.153	0.49352124
897.326	0.49329563
897.498	0.49270796
897.67	0.49239483
897.843	0.49226867
898.015	0.49230227
898.187	0.49225188
898.36	0.49150148
898.532	0.49099858
898.704	0.49129659
898.877	0.49105569
899.049	0.49096866
899.221	0.49086695
899.393	0.49066096
899.566	0.4908814
899.738	0.49105185
899.91	0.49084506
900.082	0.49059553
900.254	0.49025989
900.426	0.48992258
900.598	0.48966823
900.77	0.48913121
900.942	0.48860996
901.114	0.48790593
901.286	0.48762596
901.458	0.48724731
901.63	0.48680018
901.802	0.48648608
901.974	0.4865703
902.146	0.48624427
902.318	0.48607793
902.49	0.48568409
902.662	0.48513834
902.834	0.48488776
903.005	0.48498288
903.177	0.4848656
903.349	0.48493403
903.521	0.48469049
903.693	0.48464218
903.864	0.48480689
904.036	0.48462463
904.208	0.4836749
904.379	0.4831515
904.551	0.48301639
904.723	0.48274123
904.894	0.48223947
905.066	0.48197797
905.237	0.48188998
905.409	0.48190716
905.58	0.4819404
905.752	0.48145278
905.923	0.48121425
906.095	0.48096978
906.266	0.48059716
906.438	0.48037049
906.609	0.48027743
906.78	0.47978851
906.952	0.47952476
907.123	0.47902332
907.295	0.47914444
907.466	0.47906044
907.637	0.47880285
907.808	0.47841348
907.98	0.4779785
908.151	0.47752362
908.322	0.47764349
908.493	0.47695905
908.665	0.47637104
908.836	0.47573982
909.007	0.47554188
909.178	0.47513088
909.349	0.47484001
909.52	0.47481162
909.691	0.47473442
909.862	0.47495555
910.033	0.47486142
910.204	0.47476077
910.375	0.47499435
910.546	0.47509274
910.717	0.47444717
910.888	0.47452298
911.059	0.4740501
911.23	0.47380857
911.401	0.47316918
911.572	0.47254661
911.742	0.47180287
911.913	0.47157335
912.084	0.47083112
912.255	0.4706584
912.426	0.47031255
912.596	0.47023167
912.767	0.4702583
912.938	0.47044337
913.108	0.47033217
913.279	0.47025099
913.45	0.46999879
913.62	0.46978703
913.791	0.46963823
913.962	0.469462
914.132	0.4690241
914.303	0.46872633
914.473	0.46844409
914.644	0.46811541
914.814	0.46770288
914.985	0.46748593
915.155	0.46702009
915.326	0.46670482
915.496	0.46618699
915.666	0.46582761
915.837	0.46583496
916.007	0.46526293
916.177	0.4644102
916.348	0.46446564
916.518	0.46430166
916.688	0.46431505
916.858	0.46423406
917.029	0.46340056
917.199	0.46375047
917.369	0.46408738
917.539	0.46382107
917.709	0.4636172
917.88	0.46292523
918.05	0.46230016
918.22	0.46241901
918.39	0.46185617
918.56	0.46150084
918.73	0.46132085
918.9	0.46095149
919.07	0.46092649
919.24	0.46118865
919.41	0.46092809
919.58	0.46034872
919.75	0.46000002
919.92	0.45905673
920.09	0.45914572
920.26	0.45880192
920.429	0.45846379
920.599	0.45815886
920.769	0.45801451
920.939	0.45756145
921.109	0.45743959
921.278	0.45668714
921.448	0.45659011
921.618	0.45638951
921.787	0.456205
921.957	0.45628009
922.127	0.45591775
922.296	0.45611516
922.466	0.4560095
922.636	0.45606477
922.805	0.45603681
922.975	0.45557639
923.144	0.45535872
923.314	0.45539159
923.483	0.45494736
923.653	0.45474418
923.822	0.45414208
923.992	0.45352336
924.161	0.45338801
924.331	0.45318756
924.5	0.45297652
924.669	0.45243088
924.839	0.45242962
925.008	0.4523225
925.177	0.45183294
925.347	0.4519556
925.516	0.45208517
925.685	0.45194866
925.854	0.45212072
926.023	0.45158049
926.193	0.45173766
926.362	0.45159107
926.531	0.45109361
926.7	0.45039959
926.869	0.45034049
927.038	0.44959712
927.207	0.44951262
927.376	0.44861529
927.545	0.44849089
927.715	0.4479722
927.884	0.4476968
928.052	0.44750328
928.221	0.44719681
928.39	0.44685088
928.559	0.44691623
928.728	0.44700711
928.897	0.44755542
929.066	0.44782067
929.235	0.44695238
929.404	0.44728486
929.572	0.44719443
929.741	0.4472704
929.91	0.44699742
930.079	0.44620574
930.247	0.44527838
930.416	0.44565223
930.585	0.44528591
930.753	0.44496705
930.922	0.44447371
931.091	0.44426796
931.259	0.44402989
931.428	0.44452999
931.596	0.44452768
931.765	0.44470674
931.934	0.44513592
932.102	0.44411342
932.27	0.4438783
932.439	0.44340198
932.607	0.44267906
932.776	0.44234369
932.944	0.44196045
933.113	0.4412062
933.281	0.44158748
933.449	0.44058204
933.618	0.44028988
933.786	0.44026331
933.954	0.4399246
934.123	0.43939718
934.291	0.43960105
934.459	0.43929618
934.627	0.4399875
934.795	0.44014856
934.964	0.44020251
935.132	0.43900102
935.3	0.43838752
935.468	0.43726804
935.636	0.43756652
935.804	0.43632647
935.972	0.43560704
936.14	0.43524687
936.308	0.4355083
936.476	0.43606395
936.644	0.43647683
936.812	0.43642921
936.98	0.43688592
937.148	0.43676205
937.316	0.43493445
937.484	0.43604229
937.652	0.43439214
937.82	0.4348795
937.987	0.43399586
938.155	0.43361797
938.323	0.43378308
938.491	0.43394695
938.658	0.43371967
938.826	0.43458675
938.994	0.43342762
939.162	0.43355038
939.329	0.43426273
939.497	0.43632584
939.665	0.43714547
939.832	0.43803434
940	0.43955586
940.167	0.43989959
940.335	0.43833064
940.502	0.43742857
940.67	0.43635827
940.837	0.43819118
941.005	0.436281
941.172	0.43577961
941.34	0.43611314
941.507	0.44112213
941.674	0.44355038
941.842	0.44270156
942.009	0.44434798
942.177	0.44118789
942.344	0.44222108
942.511	0.44299217
942.678	0.44184094
942.846	0.43995493
943.013	0.43974585
943.18	0.43698966
943.347	0.44145756
943.514	0.43962033
943.682	0.44166464
943.849	0.43791982
944.016	0.43635862
944.183	0.43640069
944.35	0.43733758
944.517	0.43904426
944.684	0.44083943
944.851	0.43060501
945.018	0.42969739
945.185	0.43176973
945.352	0.43063542
945.519	0.42904502
945.686	0.42660994
945.853	0.43005683
946.02	0.43252
946.187	0.43302477
946.353	0.43427936
946.52	0.43551286
946.687	0.43498652
946.854	0.43486468
947.021	0.43061914
947.187	0.43285831
947.354	0.43091589
947.521	0.42870414
947.687	0.42702944
947.854	0.42708151
948.021	0.4241118
948.187	0.42211396
948.354	0.42028619
948.52	0.42229958
948.687	0.42474672
948.854	0.42666288
949.02	0.42399709
949.187	0.42596504
949.353	0.42669212
949.52	0.42564627
949.686	0.42378986
949.852	0.42269046
950.019	0.42420091
950.185	0.42826107
950.352	0.42711324
950.518	0.42401187
950.684	0.4258925
950.851	0.42657772
951.017	0.42348687
951.183	0.42036973
951.349	0.41824053
951.516	0.41514491
951.682	0.41676361
951.848	0.41509624
952.014	0.41379731
952.18	0.41512442
952.346	0.41505679
952.512	0.41441768
952.679	0.41807465
952.845	0.41735268
953.011	0.41688098
953.177	0.41760733
953.343	0.41437838
953.509	0.41588279
953.675	0.41554022
953.841	0.41339949
954.007	0.41525973
954.172	0.41781057
954.338	0.41670251
954.504	0.41687323
954.67	0.41233879
954.836	0.41320328
955.002	0.41386396
955.167	0.41269879
955.333	0.40906516
955.499	0.40919393
955.665	0.40771821
955.83	0.41046992
955.996	0.40929921
956.162	0.40804011
956.327	0.40690437
956.493	0.40737958
956.659	0.40820836
956.824	0.4088658
956.99	0.40677848
957.155	0.40707629
957.321	0.4079642
957.486	0.40797211
957.652	0.40771538
957.817	0.40850626
957.983	0.40838564
958.148	0.40835962
958.314	0.40738885
958.479	0.40434166
958.644	0.40439995
958.81	0.40545993
958.975	0.40423659
959.14	0.40428065
959.306	0.40412547
959.471	0.40325199
959.636	0.40310762
959.801	0.40421867
959.967	0.4032519
960.132	0.40295028
960.297	0.40241917
960.462	0.40346521
960.627	0.4036532
960.792	0.40395817
960.957	0.40224701
961.123	0.4032787
961.288	0.402396
961.453	0.40344239
961.618	0.40255466
961.783	0.40326494
961.948	0.40307752
962.113	0.40216257
962.277	0.40017913
962.442	0.40004026
962.607	0.39985202
962.772	0.39928764
962.937	0.39734431
963.102	0.39763887
963.267	0.39829888
963.431	0.39845872
963.596	0.39830874
963.761	0.39730168
963.926	0.3961549
964.09	0.39726043
964.255	0.39804616
964.42	0.39811974
964.584	0.39893488
964.749	0.39799429
964.914	0.39657169
965.078	0.39677513
965.243	0.39589537
965.407	0.3936075
965.572	0.3926305
965.736	0.39178252
965.901	0.39283011
966.065	0.39601578
966.23	0.39615823
966.394	0.39656769
966.559	0.39678321
966.723	0.39679795
966.887	0.39615035
967.052	0.39471224
967.216	0.39206616
967.38	0.38985624
967.545	0.38885265
967.709	0.39087061
967.873	0.39170492
968.037	0.39100099
968.202	0.390983
968.366	0.39151972
968.53	0.39337523
968.694	0.39306479
968.858	0.39079573
969.022	0.38815682
969.187	0.38758233
969.351	0.38783801
969.515	0.38797043
969.679	0.38704461
969.843	0.38590473
970.007	0.38566976
970.171	0.38744255
970.335	0.38813932
970.499	0.38754828
970.662	0.38675581
970.826	0.38682513
970.99	0.38894377
971.154	0.38947456
971.318	0.38865217
971.482	0.38695961
971.645	0.38732062
971.809	0.3885193
971.973	0.38897187
972.137	0.38747515
972.3	0.3878393
972.464	0.38816192
972.628	0.39065374
972.791	0.3920424
972.955	0.39098188
973.119	0.39056496
973.282	0.39066281
973.446	0.38988399
973.609	0.38930696
973.773	0.38807592
973.936	0.3862454
974.1	0.38571386
974.263	0.38538737
974.427	0.38551795
974.59	0.38458598
974.754	0.38417855
974.917	0.38308824
975.08	0.38332595
975.244	0.38244739
975.407	0.3824397
975.57	0.38156603
975.734	0.38063314
975.897	0.38105203
976.06	0.3818994
976.223	0.38109088
976.387	0.38219202
976.55	0.38114518
976.713	0.38125248
976.876	0.38255625
977.039	0.38121683
977.202	0.38080308
977.365	0.37873028
977.528	0.37811879
977.692	0.37898715
977.855	0.37716168
978.018	0.3763072
978.181	0.37701479
978.344	0.37658129
978.506	0.37732634
978.669	0.37613265
978.832	0.37435976
978.995	0.37503007
979.158	0.37671767
979.321	0.37520856
979.484	0.3738599
979.646	0.37422612
979.809	0.37584752
979.972	0.37577801
980.135	0.37677568
980.297	0.37487469
980.46	0.37498938
980.623	0.37692408
980.786	0.37666612
980.948	0.37572253
981.111	0.3763831
981.273	0.37530897
981.436	0.37478901
981.599	0.37535729
981.761	0.37306159
981.924	0.37449986
982.086	0.37384546
982.249	0.37436146
982.411	0.37443838
982.573	0.37386898
982.736	0.3753413
982.898	0.37532718
983.061	0.37370792
983.223	0.37324084
983.385	0.37122476
983.548	0.37196952
983.71	0.37218038
983.872	0.36977605
984.034	0.37001115
984.197	0.36874657
984.359	0.36896421
984.521	0.37134853
984.683	0.37193685
984.845	0.37291403
985.008	0.37253753
985.17	0.3747281
985.332	0.37677818
985.494	0.3751498
985.656	0.37429545
985.818	0.37172668
985.98	0.37107469
986.142	0.36893124
986.304	0.36645983
986.466	0.36361141
986.628	0.3647374
986.79	0.36333057
986.952	0.36288561
987.113	0.36262471
987.275	0.36381453
987.437	0.36471083
987.599	0.3663804
987.761	0.36715586
987.922	0.36672854
988.084	0.36831176
988.246	0.36884786
988.408	0.36952457
988.569	0.36911151
988.731	0.37045059
988.893	0.37020565
989.054	0.37257
989.216	0.37182136
989.377	0.3699797
989.539	0.36943558
989.701	0.36731263
989.862	0.36566821
990.024	0.36339966
990.185	0.36135375
990.347	0.36214612
990.508	0.36192167
990.669	0.36375913
990.831	0.36579539
990.992	0.36842182
991.154	0.36794124
991.315	0.37137394
991.476	0.37152904
991.638	0.37236285
991.799	0.37032039
991.96	0.36978847
992.121	0.36928208
992.283	0.37079765
992.444	0.36679941
992.605	0.3644462
992.766	0.36441132
992.927	0.36390442
993.088	0.36400681
993.249	0.36016591
993.41	0.35779659
993.572	0.359511
993.733	0.35982967
993.894	0.35834182
994.055	0.35541774
994.216	0.35571494
994.376	0.35406244
994.537	0.35648044
994.698	0.35558161
994.859	0.35504556
995.02	0.35532982
995.181	0.35506691
995.342	0.35487475
995.503	0.35614783
995.663	0.355639
995.824	0.35271893
995.985	0.35722992
996.146	0.35844891
996.306	0.36105971
996.467	0.36137759
996.628	0.36466531
996.788	0.36507593
996.949	0.36976589
997.11	0.3652819
997.27	0.36232794
997.431	0.36190856
997.591	0.3574585
997.752	0.35156423
997.912	0.35040818
998.073	0.34825416
998.233	0.34943451
998.394	0.35037508
998.554	0.35239788
998.714	0.35456918
998.875	0.35602548
999.035	0.35392389
999.196	0.35338891
999.356	0.3513864
999.516	0.35354386
999.676	0.35438157
999.837	0.35597116
999.997	0.35583993
1000.157	0.35660137
1000.317	0.35257642
1000.477	0.3507349
1000.638	0.34714045
1000.798	0.34572874
1000.958	0.34660139
1001.118	0.34706263
1001.278	0.34659986
1001.438	0.34890783
1001.598	0.35054847
1001.758	0.3520591
1001.918	0.35053524
1002.078	0.34405256
1002.238	0.34417062
1002.398	0.3472127
1002.558	0.34643812
1002.718	0.34637743
1002.878	0.34685862
1003.037	0.34036265
1003.197	0.34387471
1003.357	0.34043951
1003.517	0.342243
1003.677	0.33951953
1003.836	0.33945035
1003.996	0.33678144
1004.156	0.34239632
1004.315	0.34427839
1004.475	0.34957881
1004.635	0.34895224
1004.794	0.35345694
1004.954	0.35395156
1005.114	0.35439281
1005.273	0.35789444
1005.433	0.35153466
1005.592	0.35144226
1005.752	0.34885492
1005.911	0.34673519
1006.071	0.34771318
1006.23	0.34480444
1006.389	0.34037774
1006.549	0.34404226
1006.708	0.34017439
1006.868	0.33443086
1007.027	0.33667862
1007.186	0.33816599
1007.345	0.34556571
1007.505	0.34753396
1007.664	0.35008726
1007.823	0.35148931
1007.982	0.35868126
1008.142	0.35938228
1008.301	0.35788764
1008.46	0.35401908
1008.619	0.34813548
1008.778	0.34617703
1008.937	0.345364
1009.096	0.34176476
1009.255	0.34003606
1009.414	0.33110849
1009.573	0.33178051
1009.732	0.34052518
1009.891	0.33676061
1010.05	0.34031781
1010.209	0.33915203
1010.368	0.33929689
1010.527	0.34416254
1010.686	0.3478576
1010.845	0.3382734
1011.003	0.34322803
1011.162	0.34119914
1011.321	0.33669784
1011.48	0.34005065
1011.638	0.34161943
1011.797	0.33991416
1011.956	0.3445674
1012.115	0.34510369
1012.273	0.34145564
1012.432	0.34518061
1012.59	0.3381873
1012.749	0.33707955
1012.908	0.33178255
1013.066	0.33253119
1013.225	0.32869443
1013.383	0.3343684
1013.542	0.33515499
1013.7	0.34172504
1013.859	0.34944944
1014.017	0.35682352
1014.175	0.34902142
1014.334	0.35333014
1014.492	0.35374099
1014.65	0.3559114
1014.809	0.35646166
1014.967	0.35001213
1015.125	0.34822955
1015.284	0.36215818
1015.442	0.35878569
1015.6	0.35475301
1015.758	0.34977717
1015.916	0.34256879
1016.075	0.3408839
1016.233	0.33754179
1016.391	0.33722446
1016.549	0.34245763
1016.707	0.34434665
1016.865	0.34956572
1017.023	0.34509492
1017.181	0.3439421
1017.339	0.34354873
1017.497	0.33693502
1017.655	0.33056719
1017.813	0.32894521
1017.971	0.32966356
1018.129	0.33739819
1018.286	0.34009155
1018.444	0.33312467
1018.602	0.33566392
1018.76	0.33483958
1018.918	0.33486059
1019.075	0.3352654
1019.233	0.33153075
1019.391	0.33352611
1019.549	0.34715186
1019.706	0.34628651
1019.864	0.34742743
1020.022	0.35115937
1020.179	0.35381675
1020.337	0.35741721
1020.494	0.34897646
1020.652	0.34031196
1020.809	0.34213987
1020.967	0.33835218
1021.124	0.33014553
1021.282	0.33304667
1021.439	0.33056526
1021.597	0.34343094
1021.754	0.34092298
1021.911	0.34824433
1022.069	0.3430173
1022.226	0.34527849
1022.384	0.32925989
1022.541	0.32755217
1022.698	0.32139415
1022.855	0.32237419
1023.013	0.31481964
1023.17	0.31785757
1023.327	0.32502616
1023.484	0.33459403
1023.641	0.33535642
1023.798	0.35366015
1023.956	0.3656914
1024.113	0.35516214
1024.27	0.35263441
1024.427	0.34902166
1024.584	0.3503895
1024.741	0.34824477
1024.898	0.32701202
1025.055	0.31481031
1025.212	0.31238288
1025.369	0.30732933
1025.525	0.3056027
1025.682	0.30740446
1025.839	0.30868238
1025.996	0.3080642
1026.153	0.31896876
1026.31	0.33413344
1026.466	0.35597811
1026.623	0.36395004
1026.78	0.36580593
1026.937	0.36269527
1027.093	0.36995437
1027.25	0.38222144
1027.407	0.37440209
1027.563	0.36207315
1027.72	0.36326318
1027.876	0.34425079
1028.033	0.35783871
1028.19	0.35503381
1028.346	0.32754966
1028.503	0.3320643
1028.659	0.33846543
1028.816	0.33728384
1028.972	0.36041814
1029.128	0.37022043
1029.285	0.36293948
1029.441	0.37504781
1029.598	0.36376709
1029.754	0.37138357
1029.91	0.36217715
1030.067	0.35226696
1030.223	0.34992765
1030.379	0.35342812
1030.535	0.35910983
1030.691	0.3625715
1030.848	0.3672385
1031.004	0.36455221
1031.16	0.37416794
1031.316	0.37233739
1031.472	0.39600722
1031.628	0.38446082
1031.784	0.37892479
1031.94	0.38345202
1032.096	0.39931378
1032.252	0.39139976
1032.408	0.40010077
1032.564	0.37888198
1032.72	0.39508682
1032.876	0.38714278
1033.032	0.36835633
1033.188	0.35639993
1033.344	0.36787564
1033.5	0.36417658
1033.655	0.36532573
1033.811	0.36254154
1033.967	0.40073871
