Data from 0_1_mm_pl_20pc_Absorbance__0__15-24-24-972.txt Node

Date: Fri Feb 24 15:24:24 CET 2023
User: Ange
Spectrometer: FLMT08341
Trigger mode: 0
Integration Time (sec): 1.000000E-2
Scans to average: 400
Electric dark correction enabled: true
Nonlinearity correction enabled: false
Boxcar width: 3
XAxis mode: Wavelengths
Number of Pixels in Spectrum: 3648
>>>>>Begin Spectral Data<<<<<
345.271	-0.02481251
345.487	-0.00609975
345.704	-0.00937096
345.921	-0.00683258
346.137	-0.00906275
346.354	0.00430218
346.571	0.02523227
346.787	0.02304995
347.004	0.22920576
347.22	0.09578387
347.437	0.05208171
347.653	-0.11356642
347.87	0.10057153
348.086	0.20187701
348.303	-1.04495271
348.519	0.57083334
348.736	0.48110489
348.952	0.47336279
349.169	0.4900943
349.385	0.51300517
349.601	0.51324952
349.818	0.50445281
350.034	0.49900827
350.251	0.49684888
350.467	0.50185654
350.683	0.48572422
350.9	0.48155078
351.116	0.47367598
351.332	0.46612824
351.549	0.47699139
351.765	0.48869111
351.981	0.49292967
352.197	0.50874677
352.414	0.52728878
352.63	0.5397639
352.846	0.5547503
353.062	0.54102859
353.278	0.52836641
353.495	0.53823737
353.711	0.53844581
353.927	0.54127522
354.143	0.53837989
354.359	0.52991697
354.575	0.53094614
354.792	0.54537235
355.008	0.53433983
355.224	0.52324407
355.44	0.5188257
355.656	0.51347848
355.872	0.52169769
356.088	0.54614997
356.304	0.54637936
356.52	0.54765101
356.736	0.55542839
356.952	0.55709882
357.168	0.56141008
357.384	0.56425772
357.6	0.54300107
357.816	0.54488936
358.032	0.55365642
358.248	0.5652455
358.464	0.56200996
358.679	0.56333559
358.895	0.56143274
359.111	0.57071753
359.327	0.56101973
359.543	0.55947446
359.759	0.56306167
359.974	0.56024853
360.19	0.55757819
360.406	0.55834873
360.622	0.55245599
360.838	0.54767705
361.053	0.549277
361.269	0.54192838
361.485	0.54529875
361.701	0.5462805
361.916	0.53584153
362.132	0.53501372
362.348	0.54023493
362.563	0.53876046
362.779	0.5346174
362.995	0.53596647
363.21	0.54020389
363.426	0.54159342
363.641	0.54080087
363.857	0.54293771
364.073	0.53759066
364.288	0.53178937
364.504	0.53572044
364.719	0.53392895
364.935	0.53118184
365.15	0.5301175
365.366	0.52718092
365.581	0.5296447
365.797	0.53342656
366.012	0.522947
366.228	0.51375584
366.443	0.52124424
366.658	0.520273
366.874	0.51309077
367.089	0.51524672
367.305	0.51213474
367.52	0.51277675
367.735	0.51047147
367.951	0.50162105
368.166	0.50283714
368.381	0.50955147
368.597	0.50164508
368.812	0.50353425
369.027	0.50507392
369.243	0.50743606
369.458	0.51479523
369.673	0.51106698
369.888	0.50790927
370.104	0.5062946
370.319	0.50482588
370.534	0.50112108
370.749	0.49967012
370.964	0.4972497
371.179	0.49502136
371.395	0.49070259
371.61	0.49168936
371.825	0.48499719
372.04	0.48215853
372.255	0.47931426
372.47	0.47305728
372.685	0.46728475
372.9	0.46485911
373.115	0.45877454
373.33	0.45949515
373.545	0.45815781
373.76	0.45568219
373.975	0.45352746
374.19	0.45116337
374.405	0.44855433
374.62	0.45155234
374.835	0.45290652
375.05	0.45030724
375.265	0.44864258
375.48	0.44811127
375.695	0.4526445
375.91	0.45001434
376.125	0.44222032
376.339	0.4346644
376.554	0.43215853
376.769	0.4305009
376.984	0.42769561
377.199	0.42508611
377.414	0.4229013
377.628	0.42594453
377.843	0.42688015
378.058	0.42514912
378.273	0.42555494
378.487	0.42393898
378.702	0.42300007
378.917	0.4212943
379.131	0.41587165
379.346	0.41112636
379.561	0.40790348
379.775	0.40383294
379.99	0.39925021
380.205	0.39321093
380.419	0.39000091
380.634	0.38561601
380.848	0.38521306
381.063	0.38382437
381.278	0.38384502
381.492	0.38086035
381.707	0.38144777
381.921	0.37953307
382.136	0.38118222
382.35	0.37757094
382.565	0.37431159
382.779	0.37179776
382.994	0.37085261
383.208	0.36622179
383.422	0.36608042
383.637	0.36347266
383.851	0.3631082
384.066	0.36275466
384.28	0.36135005
384.494	0.35998864
384.709	0.36042303
384.923	0.35765445
385.137	0.35438475
385.352	0.35223441
385.566	0.35047122
385.78	0.34741404
385.995	0.34438204
386.209	0.34095795
386.423	0.34077838
386.637	0.33984226
386.852	0.33679678
387.066	0.3345309
387.28	0.33186266
387.494	0.33240895
387.708	0.33142578
387.923	0.32811753
388.137	0.3272697
388.351	0.32727305
388.565	0.32599186
388.779	0.32563502
388.993	0.32478096
389.207	0.3228433
389.421	0.32191323
389.635	0.31925923
389.85	0.31689732
390.064	0.31544683
390.278	0.31408752
390.492	0.31217922
390.706	0.31131599
390.92	0.30966946
391.134	0.30942928
391.348	0.31001484
391.561	0.30760372
391.775	0.3048433
391.989	0.30213464
392.203	0.3007812
392.417	0.30024333
392.631	0.29997117
392.845	0.29659772
393.059	0.29652345
393.273	0.29507162
393.486	0.29293696
393.7	0.29039473
393.914	0.28888995
394.128	0.28604139
394.342	0.28523307
394.555	0.28304274
394.769	0.28146952
394.983	0.2810864
395.197	0.28068321
395.41	0.27906756
395.624	0.27800049
395.838	0.27610658
396.051	0.27619154
396.265	0.27563764
396.479	0.2748103
396.692	0.27377541
396.906	0.27202884
397.12	0.27073294
397.333	0.27057706
397.547	0.26884677
397.76	0.26820796
397.974	0.26706949
398.187	0.26618906
398.401	0.26622331
398.614	0.26498928
398.828	0.26380479
399.041	0.26323385
399.255	0.26167497
399.468	0.26044624
399.682	0.25919825
399.895	0.258141
400.109	0.2571673
400.322	0.25609096
400.536	0.25374902
400.749	0.25354161
400.962	0.25262546
401.176	0.25145589
401.389	0.25040436
401.602	0.24876625
401.816	0.24817777
402.029	0.24817362
402.242	0.24657032
402.456	0.24547218
402.669	0.24379041
402.882	0.24206335
403.095	0.24220253
403.309	0.24060992
403.522	0.23985714
403.735	0.23888051
403.948	0.2380435
404.161	0.23895728
404.375	0.23850563
404.588	0.23774639
404.801	0.23728767
405.014	0.23594157
405.227	0.23620227
405.44	0.23596326
405.653	0.23499296
405.866	0.23392745
406.079	0.23308937
406.293	0.23248282
406.506	0.23198229
406.719	0.23048827
406.932	0.22949965
407.145	0.22805001
407.358	0.22825524
407.571	0.22692854
407.784	0.22607014
407.996	0.22569736
408.209	0.2248331
408.422	0.22409248
408.635	0.22359226
408.848	0.22241407
409.061	0.22196119
409.274	0.22123973
409.487	0.22016218
409.7	0.21983563
409.912	0.21937182
410.125	0.2188007
410.338	0.2184229
410.551	0.21791827
410.764	0.2175899
410.976	0.21742727
411.189	0.21691556
411.402	0.21624809
411.615	0.21577587
411.827	0.2152661
412.04	0.21490793
412.253	0.21420645
412.465	0.21332116
412.678	0.21268055
412.891	0.21248632
413.103	0.21150787
413.316	0.21100081
413.529	0.21059371
413.741	0.2102539
413.954	0.21033573
414.166	0.21000975
414.379	0.20918996
414.591	0.20939627
414.804	0.2086327
415.016	0.20821431
415.229	0.2076758
415.441	0.20681842
415.654	0.20649258
415.866	0.20628669
416.079	0.20613709
416.291	0.20602176
416.504	0.20593485
416.716	0.20561531
416.928	0.20530382
417.141	0.20472362
417.353	0.20438489
417.566	0.20325373
417.778	0.20296282
417.99	0.20212438
418.203	0.20153831
418.415	0.2013408
418.627	0.20118015
418.839	0.20067047
419.052	0.20089611
419.264	0.20061623
419.476	0.2005436
419.688	0.20068643
419.901	0.20027714
420.113	0.19959675
420.325	0.19932654
420.537	0.19866568
420.749	0.19852097
420.961	0.19824053
421.174	0.1975405
421.386	0.19698184
421.598	0.19684113
421.81	0.19665192
422.022	0.19651371
422.234	0.19620615
422.446	0.19593338
422.658	0.195661
422.87	0.19581915
423.082	0.19550387
423.294	0.19504211
423.506	0.19490593
423.718	0.1944408
423.93	0.19380717
424.142	0.19357848
424.354	0.19291114
424.566	0.19266311
424.778	0.19265741
424.99	0.19219767
425.202	0.19181045
425.414	0.19194628
425.625	0.19184376
425.837	0.19138615
426.049	0.19133746
426.261	0.19098121
426.473	0.1907287
426.684	0.19073529
426.896	0.19056869
427.108	0.19019627
427.32	0.19040471
427.531	0.19029842
427.743	0.18992375
427.955	0.19000002
428.167	0.18972357
428.378	0.18943887
428.59	0.18929127
428.802	0.18917108
429.013	0.18872705
429.225	0.18886785
429.436	0.18859743
429.648	0.1884688
429.86	0.18837944
430.071	0.18834135
430.283	0.18828115
430.494	0.18822242
430.706	0.18812025
430.917	0.18791526
431.129	0.18768674
431.34	0.18748322
431.552	0.18751045
431.763	0.18704107
431.975	0.18727563
432.186	0.18703613
432.398	0.1870523
432.609	0.18656254
432.821	0.18649108
433.032	0.18639256
433.243	0.18622769
433.455	0.18585553
433.666	0.18583308
433.877	0.18571971
434.089	0.18564826
434.3	0.18544149
434.511	0.18493625
434.723	0.18493595
434.934	0.18486096
435.145	0.18433203
435.356	0.18403004
435.568	0.18411002
435.779	0.18404226
435.99	0.18383575
436.201	0.18364225
436.412	0.18322829
436.624	0.18339642
436.835	0.18329803
437.046	0.18337484
437.257	0.18317235
437.468	0.18359142
437.679	0.18372355
437.89	0.183766
438.101	0.18378836
438.312	0.18399688
438.523	0.18378273
438.734	0.18375747
438.945	0.18359063
439.156	0.18319403
439.367	0.18329356
439.578	0.18330949
439.789	0.1829774
440	0.18313895
440.211	0.18306226
440.422	0.18297998
440.633	0.1830895
440.844	0.18289242
441.055	0.1826434
441.266	0.18275836
441.477	0.18255006
441.687	0.18248584
441.898	0.18240032
442.109	0.18240307
442.32	0.18225927
442.531	0.18223753
442.741	0.18183632
442.952	0.18172727
443.163	0.18186296
443.374	0.18175481
443.584	0.1816542
443.795	0.1820213
444.006	0.18196024
444.216	0.1821497
444.427	0.1819964
444.638	0.1818924
444.848	0.18185267
445.059	0.18194032
445.27	0.1814449
445.48	0.18125114
445.691	0.18112669
445.901	0.18125786
446.112	0.18099158
446.323	0.18073093
446.533	0.18058904
446.744	0.18063696
446.954	0.18061391
447.165	0.18037137
447.375	0.18038913
447.586	0.18047317
447.796	0.18062523
448.006	0.18044968
448.217	0.18054193
448.427	0.18048834
448.638	0.1806307
448.848	0.1802385
449.058	0.18008145
449.269	0.18008064
449.479	0.18014553
449.689	0.17997235
449.9	0.17998438
450.11	0.17998242
450.32	0.18003795
450.531	0.17996348
450.741	0.17978342
450.951	0.1797818
451.161	0.17989324
451.372	0.17979572
451.582	0.18007309
451.792	0.18004405
452.002	0.17999927
452.212	0.17992331
452.422	0.17985302
452.633	0.17959632
452.843	0.17979071
453.053	0.17945872
453.263	0.17965162
453.473	0.17987622
453.683	0.17999486
453.893	0.17986735
454.103	0.18007841
454.313	0.17998197
454.523	0.18010797
454.733	0.18013673
454.943	0.18017436
455.153	0.18026851
455.363	0.18047182
455.573	0.18040073
455.783	0.18045026
455.993	0.18023813
456.203	0.18019739
456.413	0.18016064
456.623	0.18014083
456.833	0.18020071
457.042	0.18029072
457.252	0.18038618
457.462	0.18055279
457.672	0.18064784
457.882	0.18056677
458.091	0.18055005
458.301	0.18044047
458.511	0.18046465
458.721	0.18046318
458.931	0.18058729
459.14	0.18059337
459.35	0.18076771
459.56	0.18091923
459.769	0.18120877
459.979	0.18128827
460.189	0.1812406
460.398	0.1812359
460.608	0.18137911
460.817	0.18132969
461.027	0.18139349
461.237	0.18141229
461.446	0.18148628
461.656	0.18178596
461.865	0.18182018
462.075	0.18183066
462.284	0.18219442
462.494	0.18231113
462.703	0.18231425
462.913	0.18247823
463.122	0.18236675
463.332	0.18265804
463.541	0.18273843
463.751	0.18271746
463.96	0.18293208
464.169	0.18313025
464.379	0.18331561
464.588	0.18365206
464.797	0.18367578
465.007	0.18404029
465.216	0.18417268
465.425	0.18414577
465.635	0.18425956
465.844	0.18426161
466.053	0.18431232
466.263	0.18441007
466.472	0.18443218
466.681	0.18460556
466.89	0.18466118
467.099	0.18486774
467.309	0.18506869
467.518	0.18523176
467.727	0.18538713
467.936	0.18543296
468.145	0.18562553
468.354	0.18588304
468.563	0.18596252
468.772	0.18610624
468.982	0.18616857
469.191	0.18631735
469.4	0.18647138
469.609	0.18650926
469.818	0.18673836
470.027	0.18692632
470.236	0.18703324
470.445	0.18722115
470.654	0.18729969
470.863	0.18739885
471.072	0.1875501
471.28	0.1876303
471.489	0.1878225
471.698	0.18807645
471.907	0.18815349
472.116	0.18841128
472.325	0.18868073
472.534	0.18885172
472.743	0.18892099
472.951	0.18913776
473.16	0.1894028
473.369	0.18961154
473.578	0.18976428
473.786	0.18991697
473.995	0.19005315
474.204	0.19022442
474.413	0.19033912
474.621	0.19036526
474.83	0.19057905
475.039	0.19081858
475.247	0.19096254
475.456	0.19124325
475.665	0.19150163
475.873	0.19167771
476.082	0.1918354
476.291	0.19199181
476.499	0.19220496
476.708	0.19244738
476.916	0.19251821
477.125	0.19274823
477.333	0.19289875
477.542	0.1931154
477.75	0.1934377
477.959	0.19370547
478.167	0.1939115
478.376	0.1941444
478.584	0.19433173
478.793	0.19456533
479.001	0.19485344
479.209	0.19502455
479.418	0.19512813
479.626	0.19531853
479.834	0.19563233
480.043	0.1959438
480.251	0.19612874
480.459	0.19637968
480.668	0.19666499
480.876	0.19697065
481.084	0.1973348
481.293	0.197524
481.501	0.19771649
481.709	0.19807294
481.917	0.19828135
482.125	0.19846247
482.334	0.19874365
482.542	0.19895913
482.75	0.19925099
482.958	0.19950178
483.166	0.19981287
483.374	0.20011173
483.583	0.20047089
483.791	0.20068042
483.999	0.20090483
484.207	0.20120855
484.415	0.20149905
484.623	0.20171055
484.831	0.2019457
485.039	0.20219612
485.247	0.20256296
485.455	0.20290327
485.663	0.20306784
485.871	0.2033622
486.079	0.20358958
486.287	0.20391635
486.495	0.20411941
486.702	0.20431935
486.91	0.20451741
487.118	0.20487796
487.326	0.20515871
487.534	0.20540393
487.742	0.20571191
487.95	0.20598856
488.157	0.20631563
488.365	0.2066742
488.573	0.20700863
488.781	0.20736061
488.988	0.20783619
489.196	0.20816125
489.404	0.20856103
489.612	0.20891953
489.819	0.2092711
490.027	0.20956326
490.235	0.20991585
490.442	0.21018785
490.65	0.21050229
490.857	0.21085812
491.065	0.21114993
491.273	0.21146332
491.48	0.21187469
491.688	0.21214365
491.895	0.21250133
492.103	0.21282095
492.31	0.21314116
492.518	0.21345053
492.725	0.2138245
492.933	0.21418262
493.14	0.21458134
493.348	0.2149086
493.555	0.21525046
493.763	0.2155632
493.97	0.21597066
494.177	0.21635918
494.385	0.21672991
494.592	0.21711195
494.8	0.21739133
495.007	0.21777621
495.214	0.21812847
495.422	0.2184727
495.629	0.21882775
495.836	0.21912234
496.043	0.21947289
496.251	0.21995676
496.458	0.22038637
496.665	0.22085727
496.872	0.2212457
497.08	0.22159446
497.287	0.22202863
497.494	0.22244213
497.701	0.22282239
497.908	0.22316047
498.115	0.22349964
498.322	0.22390103
498.53	0.22430701
498.737	0.2246766
498.944	0.22504127
499.151	0.22549589
499.358	0.22590438
499.565	0.22626754
499.772	0.22670242
499.979	0.22705731
500.186	0.2274705
500.393	0.22780931
500.6	0.22813079
500.807	0.22855142
501.014	0.22899599
501.221	0.22936242
501.427	0.2297835
501.634	0.23021259
501.841	0.23065071
502.048	0.23103091
502.255	0.23136793
502.462	0.2317632
502.669	0.23222347
502.875	0.23272758
503.082	0.23313118
503.289	0.23353046
503.496	0.23401545
503.702	0.23441112
503.909	0.23493246
504.116	0.23530619
504.323	0.23561303
504.529	0.23609873
504.736	0.2366475
504.943	0.23709217
505.149	0.23767592
505.356	0.23806886
505.563	0.23854626
505.769	0.23904718
505.976	0.23944706
506.182	0.2398439
506.389	0.24037287
506.595	0.24083341
506.802	0.24126318
507.008	0.24175334
507.215	0.24225717
507.421	0.24279705
507.628	0.2432804
507.834	0.2436378
508.041	0.24403888
508.247	0.24453209
508.454	0.24502714
508.66	0.24544088
508.866	0.2458401
509.073	0.24626378
509.279	0.24677371
509.486	0.24726994
509.692	0.2477289
509.898	0.24811916
510.105	0.24865935
510.311	0.2491315
510.517	0.24965326
510.723	0.25009103
510.93	0.25055912
511.136	0.25105472
511.342	0.25155039
511.548	0.2520058
511.754	0.25249978
511.961	0.25293981
512.167	0.25348332
512.373	0.25402069
512.579	0.25450779
512.785	0.25505287
512.991	0.255556
513.197	0.25608116
513.404	0.25665455
513.61	0.257169
513.816	0.25763007
514.022	0.25813745
514.228	0.2586399
514.434	0.25909252
514.64	0.25955228
514.846	0.26002828
515.052	0.26046845
515.258	0.26091802
515.464	0.26143297
515.669	0.26188544
515.875	0.26248281
516.081	0.26307677
516.287	0.26361651
516.493	0.26422567
516.699	0.26475321
516.905	0.26528848
517.111	0.26582266
517.316	0.26630835
517.522	0.26681549
517.728	0.26733447
517.934	0.26784467
518.139	0.26837043
518.345	0.26884837
518.551	0.26946013
518.757	0.27002948
518.962	0.27054309
519.168	0.27102842
519.374	0.27147556
519.579	0.2720256
519.785	0.27260818
519.991	0.27309306
520.196	0.27351462
520.402	0.27396152
520.607	0.27449395
520.813	0.27509583
521.018	0.27563522
521.224	0.27615479
521.429	0.27671154
521.635	0.27727544
521.84	0.27782956
522.046	0.27838062
522.251	0.27893458
522.457	0.27950718
522.662	0.28002901
522.868	0.28053025
523.073	0.28105675
523.279	0.28165733
523.484	0.28220462
523.689	0.28275332
523.895	0.28330739
524.1	0.28385566
524.305	0.28440103
524.511	0.28501695
524.716	0.28555759
524.921	0.28618662
525.126	0.28672794
525.332	0.28727722
525.537	0.28785872
525.742	0.28850153
525.947	0.28905649
526.153	0.28960248
526.358	0.2901079
526.563	0.29062871
526.768	0.2911774
526.973	0.29172149
527.178	0.2922413
527.383	0.29277783
527.588	0.29336146
527.794	0.29388314
527.999	0.2944634
528.204	0.29498801
528.409	0.29547245
528.614	0.29606939
528.819	0.29663456
529.024	0.29714087
529.229	0.29770585
529.434	0.29824713
529.639	0.29880321
529.843	0.29943014
530.048	0.29992464
530.253	0.30049676
530.458	0.3011282
530.663	0.30170388
530.868	0.30230891
531.073	0.30282051
531.278	0.30339245
531.482	0.30395494
531.687	0.30447204
531.892	0.30495184
532.097	0.30549136
532.302	0.30603908
532.506	0.30665809
532.711	0.30712629
532.916	0.30769783
533.12	0.30833441
533.325	0.30884282
533.53	0.30944567
533.734	0.30992279
533.939	0.31047004
534.144	0.31103732
534.348	0.31152451
534.553	0.31199186
534.757	0.31259489
534.962	0.31315766
535.167	0.31375557
535.371	0.31431567
535.576	0.31496719
535.78	0.31556783
535.985	0.31615227
536.189	0.31670456
536.394	0.31720206
536.598	0.31777484
536.803	0.31834645
537.007	0.31888804
537.211	0.31951955
537.416	0.32007128
537.62	0.32066394
537.825	0.32131723
538.029	0.32196373
538.233	0.322422
538.438	0.32300602
538.642	0.32344753
538.846	0.32400288
539.05	0.32447675
539.255	0.32492242
539.459	0.32541921
539.663	0.32605068
539.867	0.32658224
540.072	0.32714009
540.276	0.32768792
540.48	0.32834695
540.684	0.32896148
540.888	0.32949062
541.092	0.33004599
541.297	0.33052852
541.501	0.33114597
541.705	0.33160193
541.909	0.33205174
542.113	0.33248744
542.317	0.3330641
542.521	0.33359886
542.725	0.33422648
542.929	0.33475732
543.133	0.33541301
543.337	0.33596842
543.541	0.33656839
543.745	0.33712054
543.949	0.33767911
544.153	0.3381359
544.357	0.338624
544.56	0.33909721
544.764	0.33966164
544.968	0.34012717
545.172	0.34048034
545.376	0.34095167
545.58	0.3414771
545.783	0.34203291
545.987	0.34251833
546.191	0.3429385
546.395	0.34352787
546.598	0.34418039
546.802	0.3447283
547.006	0.34522022
547.21	0.3456209
547.413	0.34619814
547.617	0.34685905
547.821	0.34732363
548.024	0.34781148
548.228	0.34823382
548.431	0.34874262
548.635	0.3493258
548.839	0.34976123
549.042	0.35017961
549.246	0.35064604
549.449	0.35116173
549.653	0.35173929
549.856	0.35223909
550.06	0.35273387
550.263	0.35331278
550.467	0.35383363
550.67	0.35433611
550.874	0.3547752
551.077	0.35524403
551.28	0.35575366
551.484	0.35625763
551.687	0.35667162
551.891	0.35714176
552.094	0.35761321
552.297	0.35813913
552.501	0.35870376
552.704	0.35917155
552.907	0.35956784
553.11	0.36000206
553.314	0.36045681
553.517	0.36085584
553.72	0.36130365
553.923	0.3617712
554.127	0.36227538
554.33	0.36271895
554.533	0.36321342
554.736	0.36359081
554.939	0.36410662
555.142	0.36456813
555.345	0.36493456
555.549	0.36532413
555.752	0.36575589
555.955	0.36617736
556.158	0.36673607
556.361	0.36718855
556.564	0.36754929
556.767	0.36802598
556.97	0.36848495
557.173	0.36894937
557.376	0.3694312
557.579	0.36975323
557.782	0.37010411
557.984	0.37052736
558.187	0.37095814
558.39	0.37132821
558.593	0.37176476
558.796	0.37204893
558.999	0.37242929
559.202	0.37286258
559.404	0.37321867
559.607	0.37351434
559.81	0.37396742
560.013	0.37435542
560.216	0.37482772
560.418	0.37522993
560.621	0.37562334
560.824	0.37602645
561.026	0.37648501
561.229	0.37675096
561.432	0.37710206
561.634	0.37745751
561.837	0.37785984
562.04	0.3782084
562.242	0.37861154
562.445	0.37892902
562.647	0.37938177
562.85	0.37971011
563.053	0.38008719
563.255	0.38042819
563.458	0.38087133
563.66	0.38115326
563.863	0.38152203
564.065	0.38181015
564.268	0.38218291
564.47	0.38254714
564.672	0.38286238
564.875	0.38308816
565.077	0.38340824
565.28	0.38366191
565.482	0.38394524
565.684	0.38416006
565.887	0.38437499
566.089	0.38473684
566.291	0.38505973
566.494	0.38540528
566.696	0.38576576
566.898	0.38614437
567.1	0.38652778
567.303	0.38691061
567.505	0.38717598
567.707	0.38746929
567.909	0.38774176
568.111	0.38797846
568.314	0.38819797
568.516	0.38847755
568.718	0.38872492
568.92	0.38902437
569.122	0.3892949
569.324	0.38956044
569.526	0.38976958
569.728	0.38998738
569.93	0.39017352
570.132	0.39042716
570.334	0.390665
570.536	0.39093813
570.738	0.39118526
570.94	0.39141298
571.142	0.39170134
571.344	0.39193193
571.546	0.39213171
571.748	0.39235545
571.95	0.39249672
572.152	0.3927711
572.354	0.39308632
572.555	0.39332744
572.757	0.39360848
572.959	0.3937998
573.161	0.39400209
573.363	0.39420998
573.564	0.39449451
573.766	0.39465619
573.968	0.39491765
574.17	0.39506071
574.371	0.39525874
574.573	0.39541229
574.775	0.39563211
574.976	0.39571351
575.178	0.39595471
575.38	0.39602831
575.581	0.39621564
575.783	0.39641382
575.985	0.39662188
576.186	0.39678585
576.388	0.39701347
576.589	0.39711708
576.791	0.39747762
576.992	0.3977006
577.194	0.39784346
577.395	0.39797592
577.597	0.39819993
577.798	0.39820676
578	0.39837789
578.201	0.3984597
578.402	0.39857599
578.604	0.39870154
578.805	0.39895347
579.007	0.39902866
579.208	0.39929802
579.409	0.39943834
579.611	0.39956172
579.812	0.39981442
580.013	0.40008256
580.215	0.40003554
580.416	0.40019109
580.617	0.40021549
580.818	0.40029662
581.019	0.40036083
581.221	0.40038458
581.422	0.40046554
581.623	0.40073372
581.824	0.40078547
582.025	0.40095387
582.226	0.40105967
582.428	0.4012407
582.629	0.40128258
582.83	0.4013661
583.031	0.40136825
583.232	0.40155558
583.433	0.4016878
583.634	0.40178339
583.835	0.40178681
584.036	0.40186521
584.237	0.4019369
584.438	0.40209343
584.639	0.40213195
584.84	0.40228156
585.041	0.4023656
585.242	0.40244933
585.442	0.40254056
585.643	0.40266565
585.844	0.40266091
586.045	0.40281603
586.246	0.40276821
586.447	0.4028893
586.647	0.40295442
586.848	0.40305313
587.049	0.4030716
587.25	0.40315641
587.45	0.40314741
587.651	0.40326804
587.852	0.40334316
588.053	0.40359372
588.253	0.40369227
588.454	0.40378794
588.655	0.40383544
588.855	0.40390398
589.056	0.40393157
589.256	0.4040393
589.457	0.40398731
589.658	0.40414807
589.858	0.40421158
590.059	0.40436052
590.259	0.40447521
590.46	0.40454827
590.66	0.40448918
590.861	0.40456694
591.061	0.4045409
591.262	0.40473424
591.462	0.40488792
591.662	0.40493371
591.863	0.4050076
592.063	0.40510933
592.264	0.40518847
592.464	0.40523415
592.664	0.40516339
592.865	0.40528384
593.065	0.40528019
593.265	0.4054244
593.465	0.40539512
593.666	0.40536883
593.866	0.40534402
594.066	0.40541156
594.266	0.40522382
594.467	0.40531161
594.667	0.4052821
594.867	0.40548733
595.067	0.40551117
595.267	0.40553263
595.467	0.40545209
595.668	0.40548116
595.868	0.40546096
596.068	0.40544314
596.268	0.40538351
596.468	0.40551922
596.668	0.40565259
596.868	0.4057706
597.068	0.40581296
597.268	0.40594855
597.468	0.40595658
597.668	0.40607674
597.868	0.40612661
598.068	0.40619683
598.268	0.40627207
598.467	0.40650628
598.667	0.40645325
598.867	0.40646711
599.067	0.40650731
599.267	0.40650022
599.467	0.40649101
599.667	0.40651181
599.866	0.40650765
600.066	0.40662488
600.266	0.4067185
600.466	0.40669608
600.665	0.40668939
600.865	0.4067113
601.065	0.40677841
601.264	0.40682925
601.464	0.40687609
601.664	0.40710557
601.863	0.40720643
602.063	0.40732628
602.263	0.40727489
602.462	0.40732553
602.662	0.40737191
602.861	0.40743327
603.061	0.40740324
603.26	0.40750514
603.46	0.40747902
603.659	0.40758895
603.859	0.40751719
604.058	0.40738811
604.258	0.40740231
604.457	0.40749363
604.657	0.40740341
604.856	0.40738181
605.056	0.40752686
605.255	0.40760463
605.454	0.4077936
605.654	0.40777396
605.853	0.40776015
606.052	0.40782886
606.252	0.40805891
606.451	0.40819617
606.65	0.40843363
606.849	0.40842518
607.049	0.40857876
607.248	0.4085294
607.447	0.40858623
607.646	0.40860621
607.845	0.40858975
608.045	0.40853537
608.244	0.40880028
608.443	0.40898688
608.642	0.40927202
608.841	0.40939687
609.04	0.40942056
609.239	0.40955593
609.438	0.40956795
609.637	0.4096921
609.836	0.40976661
610.035	0.4098259
610.234	0.41013135
610.433	0.41036544
610.632	0.41046576
610.831	0.41078552
611.03	0.41069921
611.229	0.41084449
611.428	0.41099198
611.627	0.41100336
611.826	0.41115509
612.025	0.41140336
612.224	0.41141162
612.422	0.41160596
612.621	0.41162052
612.82	0.41169441
613.019	0.41174364
613.218	0.41190307
613.416	0.41188456
613.615	0.41217637
613.814	0.41241847
614.012	0.41264669
614.211	0.412761
614.41	0.41299586
614.608	0.41306014
614.807	0.41325034
615.006	0.41339172
615.204	0.41349932
615.403	0.4137473
615.602	0.41403604
615.8	0.41434181
615.999	0.41447766
616.197	0.41459836
616.396	0.41474819
616.594	0.41479047
616.793	0.41486935
616.991	0.41492669
617.19	0.41485048
617.388	0.41519653
617.586	0.41546897
617.785	0.41555759
617.983	0.41578384
618.182	0.4158455
618.38	0.41596763
618.578	0.41620489
618.777	0.41635163
618.975	0.41659616
619.173	0.41689512
619.372	0.4171965
619.57	0.41749764
619.768	0.41777872
619.966	0.4179972
620.165	0.41803813
620.363	0.41816373
620.561	0.41823875
620.759	0.41843245
620.957	0.41877633
621.155	0.41909256
621.354	0.41931105
621.552	0.41969185
621.75	0.41985422
621.948	0.42018771
622.146	0.42044143
622.344	0.4205589
622.542	0.42083747
622.74	0.42112089
622.938	0.4212936
623.136	0.42169422
623.334	0.42198353
623.532	0.42201367
623.73	0.42217983
623.928	0.42235054
624.126	0.42259045
624.324	0.4229925
624.522	0.4230625
624.719	0.42320233
624.917	0.42366366
625.115	0.42390262
625.313	0.42410351
625.511	0.42432916
625.708	0.42420523
625.906	0.42440176
626.104	0.42459003
626.302	0.42479965
626.499	0.42509706
626.697	0.42537687
626.895	0.42548252
627.093	0.42587494
627.29	0.42621852
627.488	0.42650639
627.686	0.42679222
627.883	0.42700624
628.081	0.42711493
628.278	0.42773804
628.476	0.42798134
628.673	0.4282903
628.871	0.42859542
629.068	0.42878794
629.266	0.42911294
629.463	0.42931498
629.661	0.42934905
629.858	0.42958206
630.056	0.42980384
630.253	0.43006916
630.451	0.43034531
630.648	0.43055619
630.845	0.43090856
631.043	0.43109209
631.24	0.4314199
631.438	0.43170629
631.635	0.43192919
631.832	0.43208445
632.029	0.43244439
632.227	0.43284024
632.424	0.43329174
632.621	0.43357649
632.818	0.43379528
633.016	0.43408896
633.213	0.43435877
633.41	0.43463713
633.607	0.43482239
633.804	0.43513719
634.001	0.4354227
634.199	0.43578053
634.396	0.43613086
634.593	0.43645338
634.79	0.43668917
634.987	0.43701193
635.184	0.43721361
635.381	0.4375171
635.578	0.43789891
635.775	0.43816601
635.972	0.43853527
636.169	0.43892984
636.366	0.43921553
636.563	0.43942168
636.76	0.43959212
636.957	0.43972981
637.153	0.43979017
637.35	0.44006822
637.547	0.44026453
637.744	0.44053761
637.941	0.44088102
638.138	0.4413234
638.334	0.44160125
638.531	0.4421061
638.728	0.44236749
638.925	0.44269866
639.121	0.44297627
639.318	0.44324725
639.515	0.44345937
639.711	0.44387514
639.908	0.44402728
640.105	0.44439652
640.301	0.44462857
640.498	0.44485034
640.695	0.44513263
640.891	0.44531944
641.088	0.44541782
641.284	0.4457696
641.481	0.44601292
641.677	0.44635629
641.874	0.44665549
642.07	0.4470445
642.267	0.44751062
642.463	0.44781942
642.66	0.44818583
642.856	0.448325
643.053	0.44835788
643.249	0.44867804
643.445	0.44884351
643.642	0.44907826
643.838	0.44953051
644.034	0.44978142
644.231	0.45017683
644.427	0.45060883
644.623	0.45081013
644.82	0.45104675
645.016	0.45118949
645.212	0.45128737
645.408	0.45157941
645.604	0.4520109
645.801	0.45240114
645.997	0.45285053
646.193	0.45316888
646.389	0.45362738
646.585	0.45400651
646.781	0.45431255
646.977	0.45453502
647.173	0.45476879
647.37	0.4549797
647.566	0.4553292
647.762	0.45557662
647.958	0.45597714
648.154	0.45615313
648.35	0.45635336
648.546	0.45651135
648.742	0.45682019
648.937	0.45687606
649.133	0.45718138
649.329	0.45745497
649.525	0.45786215
649.721	0.45819237
649.917	0.45877614
650.113	0.45905511
650.309	0.45960395
650.504	0.45975367
650.7	0.45983631
650.896	0.46004163
651.092	0.46025551
651.287	0.46031402
651.483	0.46067458
651.679	0.46090447
651.875	0.46137252
652.07	0.46160703
652.266	0.46187345
652.462	0.46213116
652.657	0.46230074
652.853	0.46233615
653.048	0.46253865
653.244	0.46260967
653.44	0.46300866
653.635	0.46326645
653.831	0.46364977
654.026	0.46410974
654.222	0.46451764
654.417	0.46489653
654.613	0.46516142
654.808	0.46532788
655.004	0.4656718
655.199	0.46581675
655.394	0.46603487
655.59	0.46642939
655.785	0.4666475
655.98	0.46712674
656.176	0.46735898
656.371	0.4676424
656.566	0.4679383
656.762	0.46803229
656.957	0.46813424
657.152	0.46824207
657.348	0.46833947
657.543	0.46870173
657.738	0.46901607
657.933	0.46922784
658.128	0.46955604
658.324	0.46973663
658.519	0.47006945
658.714	0.47032599
658.909	0.47045051
659.104	0.47053518
659.299	0.47076349
659.494	0.47101017
659.689	0.47143813
659.884	0.47174391
660.079	0.47199343
660.274	0.4722559
660.469	0.47255752
660.664	0.47286783
660.859	0.47306375
661.054	0.47312427
661.249	0.47327081
661.444	0.47349918
661.639	0.47373276
661.834	0.47384905
662.029	0.47408668
662.224	0.47438153
662.418	0.47465132
662.613	0.47487334
662.808	0.47496459
663.003	0.4751749
663.198	0.47535762
663.392	0.47543745
663.587	0.47573144
663.782	0.47591452
663.977	0.47614678
664.171	0.47658235
664.366	0.47699024
664.561	0.47736482
664.755	0.47774742
664.95	0.47781331
665.144	0.47806023
665.339	0.47828187
665.534	0.47840537
665.728	0.47854687
665.923	0.47880262
666.117	0.47892115
666.312	0.47917809
666.506	0.47949425
666.701	0.4795931
666.895	0.47973045
667.09	0.47973649
667.284	0.47980515
667.479	0.47996614
667.673	0.48012381
667.867	0.48028212
668.062	0.48052025
668.256	0.48086611
668.45	0.48138298
668.645	0.4816167
668.839	0.48185746
669.033	0.4820301
669.228	0.48204272
669.422	0.48227543
669.616	0.48230838
669.81	0.48241339
670.004	0.48253906
670.199	0.48281509
670.393	0.48309826
670.587	0.48351227
670.781	0.48377994
670.975	0.4841104
671.169	0.48409522
671.363	0.48430617
671.558	0.48432284
671.752	0.48449109
671.946	0.4846521
672.14	0.48483629
672.334	0.48492771
672.528	0.48538227
672.722	0.48549461
672.916	0.48573388
673.11	0.4858265
673.304	0.48601905
673.497	0.48598515
673.691	0.48618566
673.885	0.48605673
674.079	0.48636636
674.273	0.48650715
674.467	0.48676614
674.661	0.48690609
674.854	0.48725361
675.048	0.48740982
675.242	0.48771955
675.436	0.48786951
675.629	0.48799113
675.823	0.48802162
676.017	0.48812816
676.211	0.48814672
676.404	0.48831633
676.598	0.48850745
676.792	0.48870362
676.985	0.48904683
677.179	0.48943171
677.372	0.48962042
677.566	0.489978
677.76	0.49015783
677.953	0.49023165
678.147	0.49031095
678.34	0.49037703
678.534	0.49034076
678.727	0.49049899
678.921	0.49068189
679.114	0.49074428
679.307	0.49099937
679.501	0.49116293
679.694	0.49126037
679.888	0.49142595
680.081	0.49153843
680.274	0.49141448
680.468	0.49163972
680.661	0.49176553
680.854	0.49207493
681.048	0.4924204
681.241	0.49269297
681.434	0.49292042
681.627	0.49331377
681.821	0.49342339
682.014	0.49362395
682.207	0.49355568
682.4	0.49348713
682.593	0.49349663
682.786	0.49350083
682.98	0.49356754
683.173	0.4937838
683.366	0.49390192
683.559	0.4941706
683.752	0.49446597
683.945	0.4946911
684.138	0.49492698
684.331	0.49499015
684.524	0.49509415
684.717	0.4950358
684.91	0.4950934
685.103	0.49513422
685.296	0.49527293
685.489	0.49547211
685.682	0.49562833
685.874	0.49590614
686.067	0.49621162
686.26	0.49625453
686.453	0.49629401
686.646	0.49623772
686.839	0.49624357
687.031	0.49628745
687.224	0.49607584
687.417	0.49620079
687.61	0.49636868
687.802	0.49661062
687.995	0.49701854
688.188	0.49726186
688.38	0.49751308
688.573	0.49779743
688.766	0.49792986
688.958	0.49809258
689.151	0.49817985
689.343	0.49821054
689.536	0.49830177
689.729	0.49841015
689.921	0.49867568
690.114	0.49878878
690.306	0.49900634
690.499	0.49921777
690.691	0.49935042
690.884	0.49941046
691.076	0.49950165
691.268	0.49938259
691.461	0.49927559
691.653	0.49928255
691.846	0.49930201
692.038	0.49934576
692.23	0.49936556
692.423	0.49953904
692.615	0.49981766
692.807	0.50004992
692.999	0.50023932
693.192	0.5002027
693.384	0.50030652
693.576	0.50031432
693.768	0.50034332
693.961	0.50032695
694.153	0.50052354
694.345	0.50054317
694.537	0.500889
694.729	0.50107445
694.921	0.50132884
695.113	0.50153126
695.305	0.50166117
695.498	0.50161462
695.69	0.50174063
695.882	0.50167994
696.074	0.50173336
696.266	0.50172648
696.458	0.50165898
696.65	0.5018411
696.842	0.50212875
697.033	0.502314
697.225	0.50245091
697.417	0.50266302
697.609	0.5029009
697.801	0.50302387
697.993	0.5030992
698.185	0.50304648
698.376	0.50303866
698.568	0.50309049
698.76	0.50312013
698.952	0.50322322
699.144	0.50341036
699.335	0.50359784
699.527	0.50376455
699.719	0.50392847
699.91	0.50422515
700.102	0.50425306
700.294	0.50425911
700.485	0.50431086
700.677	0.50422956
700.869	0.50431679
701.06	0.50449087
701.252	0.50446708
701.443	0.50473237
701.635	0.50496899
701.826	0.50526744
702.018	0.50560372
702.209	0.50578235
702.401	0.50578885
702.592	0.50599104
702.784	0.50596372
702.975	0.50600569
703.166	0.50589459
703.358	0.50583133
703.549	0.50601261
703.741	0.50619676
703.932	0.5063258
704.123	0.50650239
704.315	0.50671528
704.506	0.50705853
704.697	0.50721412
704.888	0.50730117
705.08	0.50731641
705.271	0.50735346
705.462	0.50726172
705.653	0.5072894
705.844	0.50725174
706.035	0.50731668
706.227	0.50732088
706.418	0.50748968
706.609	0.50767411
706.8	0.50807475
706.991	0.50823007
707.182	0.50829241
707.373	0.50831726
707.564	0.50839645
707.755	0.50833644
707.946	0.5082916
708.137	0.50819562
708.328	0.50824132
708.519	0.50849482
708.71	0.50878018
708.901	0.50901058
709.092	0.50927943
709.283	0.50941357
709.473	0.50952019
709.664	0.50962884
709.855	0.50961561
710.046	0.5095976
710.237	0.50955089
710.427	0.50960266
710.618	0.50981441
710.809	0.51004761
711	0.51032995
711.19	0.51051473
711.381	0.51088522
711.572	0.51116391
711.762	0.51141386
711.953	0.51141697
712.144	0.51146536
712.334	0.51139843
712.525	0.51149768
712.715	0.51144665
712.906	0.51147827
713.097	0.51147025
713.287	0.51168315
713.478	0.51193313
713.668	0.51226892
713.859	0.5124987
714.049	0.51272729
714.239	0.51299601
714.43	0.51316571
714.62	0.51321225
714.811	0.51318328
715.001	0.51315475
715.191	0.51315787
715.382	0.51320624
715.572	0.51340621
715.762	0.51359914
715.953	0.51395752
716.143	0.51433526
716.333	0.51445372
716.523	0.51463602
716.714	0.51475672
716.904	0.5147124
717.094	0.51479185
717.284	0.51458065
717.474	0.51438303
717.664	0.51451641
717.855	0.51458579
718.045	0.51465289
718.235	0.51480261
718.425	0.51512174
718.615	0.51552607
718.805	0.51589018
718.995	0.51614488
719.185	0.51640214
719.375	0.51653364
719.565	0.51666285
719.755	0.51649679
719.945	0.51646259
720.135	0.51659534
720.325	0.5166971
720.515	0.5168236
720.704	0.51711396
720.894	0.51732081
721.084	0.51760331
721.274	0.51790278
721.464	0.51802675
721.654	0.51810878
721.843	0.51811037
722.033	0.51819544
722.223	0.51819846
722.413	0.51836227
722.602	0.51842646
722.792	0.5186191
722.982	0.51889592
723.171	0.51925698
723.361	0.51950309
723.55	0.51995124
723.74	0.52014979
723.93	0.52038056
724.119	0.52055202
724.309	0.5205643
724.498	0.52056132
724.688	0.52055396
724.877	0.52047669
725.067	0.52055278
725.256	0.52069672
725.446	0.52083914
725.635	0.52100822
725.825	0.52125673
726.014	0.52160414
726.203	0.52187169
726.393	0.52202886
726.582	0.52206482
726.771	0.52208368
726.961	0.52214572
727.15	0.52195317
727.339	0.5217603
727.529	0.52174477
727.718	0.52174046
727.907	0.52181884
728.096	0.52191599
728.286	0.52204024
728.475	0.52249582
728.664	0.52280027
728.853	0.52292404
729.042	0.52301392
729.231	0.52314915
729.42	0.52324624
729.609	0.52327838
729.799	0.52306462
729.988	0.5230048
730.177	0.52285707
730.366	0.52300772
730.555	0.52308643
730.744	0.5232085
730.933	0.52346301
731.122	0.52382255
731.31	0.52409405
731.499	0.52447262
731.688	0.52470566
731.877	0.52487027
732.066	0.52494343
732.255	0.52493403
732.444	0.52490298
732.632	0.52485782
732.821	0.52486252
733.01	0.52495651
733.199	0.52492932
733.388	0.5250588
733.576	0.52523625
733.765	0.52539379
733.954	0.5256114
734.142	0.52568952
734.331	0.52566225
734.52	0.52584769
734.708	0.52585164
734.897	0.52590011
735.086	0.52590113
735.274	0.52585752
735.463	0.52596532
735.651	0.52610446
735.84	0.52622662
736.028	0.52650289
736.217	0.52675999
736.405	0.52692741
736.594	0.52703085
736.782	0.52713829
736.971	0.52717838
737.159	0.5271912
737.347	0.52716076
737.536	0.52702737
737.724	0.52708717
737.912	0.52719405
738.101	0.52722624
738.289	0.52746239
738.477	0.52769448
738.666	0.52793942
738.854	0.52832723
739.042	0.52865957
739.23	0.528898
739.418	0.52916624
739.607	0.52915128
739.795	0.52915611
739.983	0.52918892
740.171	0.52907533
740.359	0.52895726
740.547	0.52890302
740.735	0.52895132
740.923	0.52913983
741.112	0.5293305
741.3	0.5294551
741.488	0.52968062
741.676	0.52993713
741.864	0.53018814
742.052	0.53033469
742.239	0.53028741
742.427	0.53031445
742.615	0.53027193
742.803	0.53031008
742.991	0.53023775
743.179	0.53031519
743.367	0.53049401
743.555	0.53082881
743.742	0.53117154
743.93	0.53157298
744.118	0.53172119
744.306	0.53201391
744.494	0.53209494
744.681	0.53205911
744.869	0.53198699
745.057	0.53182656
745.244	0.53166765
745.432	0.53167607
745.62	0.53168525
745.807	0.53184679
745.995	0.53209036
746.182	0.53231479
746.37	0.53267616
746.558	0.53297452
746.745	0.5332228
746.933	0.53341488
747.12	0.53351662
747.308	0.53360763
747.495	0.53353508
747.683	0.53339364
747.87	0.53330048
748.057	0.5333163
748.245	0.53333301
748.432	0.5333741
748.62	0.53342414
748.807	0.53369491
748.994	0.53398437
749.182	0.53422789
749.369	0.53438097
749.556	0.53469744
749.743	0.53490374
749.931	0.53505061
750.118	0.53522276
750.305	0.53515534
750.492	0.53510857
750.68	0.53513636
750.867	0.53503671
751.054	0.53509404
751.241	0.53515817
751.428	0.53526849
751.615	0.53552944
751.802	0.53591878
751.989	0.53612142
752.176	0.53644264
752.363	0.53664148
752.55	0.53681784
752.737	0.53692036
752.924	0.53690164
753.111	0.53682609
753.298	0.53690102
753.485	0.53677037
753.672	0.53668642
753.859	0.53682479
754.046	0.53687731
754.233	0.53707083
754.42	0.53740268
754.606	0.53755593
754.793	0.53770741
754.98	0.53796511
755.167	0.53789601
755.353	0.53802378
755.54	0.53805251
755.727	0.53788874
755.914	0.53780567
756.1	0.53781868
756.287	0.53768607
756.474	0.53772002
756.66	0.53780945
756.847	0.53799919
757.033	0.53814498
757.22	0.53841907
757.407	0.53882261
757.593	0.53919247
757.78	0.53936502
757.966	0.53939443
758.153	0.53931345
758.339	0.53918011
758.526	0.53899163
758.712	0.53861207
758.898	0.53856673
759.085	0.53849165
759.271	0.53843858
759.458	0.53849898
759.644	0.53884015
759.83	0.53913098
760.017	0.53955659
760.203	0.53975227
760.389	0.54008085
760.576	0.54033901
760.762	0.54048649
760.948	0.54033738
761.134	0.54026447
761.32	0.54011954
761.507	0.53997301
761.693	0.54003451
761.879	0.54005828
762.065	0.54017198
762.251	0.54042526
762.437	0.5407411
762.623	0.54104278
762.809	0.54123799
762.995	0.54137684
763.181	0.54140287
763.367	0.54142226
763.553	0.54142627
763.739	0.54130977
763.925	0.54109051
764.111	0.54105252
764.297	0.54097142
764.483	0.54099642
764.669	0.54103832
764.855	0.54112976
765.041	0.54128111
765.227	0.5414146
765.412	0.5417132
765.598	0.54185758
765.784	0.54205144
765.97	0.54224331
766.156	0.54228603
766.341	0.54225481
766.527	0.54224483
766.713	0.54206267
766.898	0.5419213
767.084	0.54176761
767.27	0.5415792
767.455	0.54143833
767.641	0.5415577
767.827	0.54175682
768.012	0.54195972
768.198	0.54222492
768.383	0.54246451
768.569	0.54280619
768.754	0.54323168
768.94	0.54325967
769.125	0.54316624
769.311	0.54291183
769.496	0.54265977
769.682	0.5423842
769.867	0.54212369
770.052	0.54188531
770.238	0.54165705
770.423	0.54166615
770.608	0.54185153
770.794	0.54199741
770.979	0.54218635
771.164	0.54228064
771.35	0.54245108
771.535	0.54276869
771.72	0.54292338
771.905	0.54311284
772.09	0.54313156
772.276	0.543231
772.461	0.54322704
772.646	0.54314843
772.831	0.54307336
773.016	0.54303275
773.201	0.54288274
773.386	0.54294315
773.571	0.54292782
773.756	0.54299726
773.941	0.5429879
774.126	0.54322947
774.311	0.54322494
774.496	0.54321992
774.681	0.54319465
774.866	0.54306945
775.051	0.54286651
775.236	0.54274241
775.421	0.5423532
775.606	0.5421225
775.791	0.54193278
775.976	0.5418828
776.16	0.54198418
776.345	0.54224033
776.53	0.5425747
776.715	0.54281003
776.899	0.54307399
777.084	0.54328365
777.269	0.54342756
777.454	0.54333265
777.638	0.54318606
777.823	0.54286046
778.008	0.54257585
778.192	0.5423807
778.377	0.54222591
778.561	0.54202215
778.746	0.54193479
778.931	0.54194814
779.115	0.54215175
779.3	0.54238448
779.484	0.54251152
779.669	0.54257183
779.853	0.54263726
780.037	0.54283069
780.222	0.5428286
780.406	0.54260427
780.591	0.54243067
780.775	0.54223958
780.959	0.54199162
781.144	0.54177233
781.328	0.54142435
781.512	0.54109701
781.697	0.54096821
781.881	0.54090414
782.065	0.54098623
782.249	0.54111787
782.434	0.54130925
782.618	0.54155195
782.802	0.54191025
782.986	0.54199748
783.17	0.54198273
783.354	0.54181522
783.539	0.5415931
783.723	0.54119547
783.907	0.54091815
784.091	0.54060341
784.275	0.54044877
784.459	0.54024639
784.643	0.54032515
784.827	0.54039507
785.011	0.54059583
785.195	0.54078239
785.379	0.54095424
785.563	0.54106748
785.747	0.54119775
785.93	0.54130785
786.114	0.54120206
786.298	0.54104787
786.482	0.54064201
786.666	0.54039188
786.85	0.5400496
787.033	0.53980822
787.217	0.539491
787.401	0.53939579
787.585	0.53932286
787.768	0.53938041
787.952	0.53926692
788.136	0.53935929
788.319	0.53952512
788.503	0.53949987
788.687	0.53962287
788.87	0.53957041
789.054	0.53961343
789.237	0.53959124
789.421	0.53942574
789.605	0.53909714
789.788	0.5387261
789.972	0.53833618
790.155	0.53801216
790.338	0.53766384
790.522	0.537439
790.705	0.53724477
790.889	0.53715669
791.072	0.53734908
791.256	0.53753192
791.439	0.53779181
791.622	0.53796707
791.806	0.53825686
791.989	0.53826455
792.172	0.53830199
792.355	0.5381576
792.539	0.53787108
792.722	0.5374305
792.905	0.53703201
793.088	0.53646255
793.271	0.53621276
793.455	0.53602672
793.638	0.53590228
793.821	0.53582019
794.004	0.53592479
794.187	0.5361661
794.37	0.53640926
794.553	0.53659564
794.736	0.5366242
794.919	0.5365179
795.102	0.53638168
795.285	0.53619118
795.468	0.53569484
795.651	0.53522078
795.834	0.53496063
796.017	0.5345842
796.2	0.53425804
796.383	0.53405787
796.566	0.53395626
796.749	0.5339997
796.931	0.53414779
797.114	0.53403715
797.297	0.53407734
797.48	0.53421177
797.663	0.53424414
797.845	0.53421134
798.028	0.53421861
798.211	0.53395298
798.393	0.53367633
798.576	0.53346683
798.759	0.53310648
798.941	0.53283905
799.124	0.53257829
799.307	0.53235179
799.489	0.53228621
799.672	0.53223369
799.854	0.53198465
800.037	0.53184972
800.219	0.53185121
800.402	0.53184953
800.584	0.53165493
800.767	0.531546
800.949	0.53148364
801.132	0.53154937
801.314	0.53143352
801.496	0.53115739
801.679	0.53079326
801.861	0.53051243
802.043	0.5300726
802.226	0.52974231
802.408	0.52938285
802.59	0.52924694
802.772	0.52914671
802.955	0.52911383
803.137	0.52908872
803.319	0.52911335
803.501	0.52906213
803.684	0.52895895
803.866	0.52865421
804.048	0.52849384
804.23	0.52822063
804.412	0.52804832
804.594	0.52766563
804.776	0.52738655
804.958	0.52690086
805.14	0.52671464
805.322	0.52636979
805.504	0.52618185
805.686	0.5258904
805.868	0.52587808
806.05	0.52577215
806.232	0.52599306
806.414	0.52608554
806.596	0.52608253
806.778	0.52595821
806.96	0.5259963
807.141	0.52571798
807.323	0.52560026
807.505	0.52514365
807.687	0.52472977
807.869	0.52424324
808.05	0.52376331
808.232	0.52326163
808.414	0.52303859
808.595	0.52268
808.777	0.52249662
808.959	0.52244845
809.14	0.52253095
809.322	0.52267268
809.504	0.52257684
809.685	0.52269653
809.867	0.52259942
810.048	0.52251125
810.23	0.52225641
810.411	0.52201784
810.593	0.52158005
810.774	0.52121448
810.956	0.52068751
811.137	0.52020457
811.319	0.51980835
811.5	0.51932963
811.681	0.51881717
811.863	0.5185447
812.044	0.51829873
812.225	0.51820068
812.407	0.51818773
812.588	0.51814975
812.769	0.51819747
812.951	0.51821748
813.132	0.51818375
813.313	0.51825916
813.494	0.51798561
813.675	0.51768112
813.857	0.5172816
814.038	0.51686666
814.219	0.51642581
814.4	0.51586561
814.581	0.51544355
814.762	0.5150051
814.943	0.5147051
815.124	0.514419
815.305	0.51416094
815.486	0.51420466
815.667	0.51431223
815.848	0.5142142
816.029	0.51407591
816.21	0.51394252
816.391	0.51400627
816.572	0.51382028
816.753	0.51352932
816.934	0.51306747
817.115	0.51253228
817.295	0.51223971
817.476	0.51172299
817.657	0.51119913
817.838	0.51093495
818.019	0.51031217
818.199	0.51001224
818.38	0.50988729
818.561	0.50960882
818.741	0.50952234
818.922	0.5093552
819.103	0.50930645
819.283	0.50944869
819.464	0.50949225
819.645	0.50932953
819.825	0.50919725
820.006	0.50887224
820.186	0.50852198
820.367	0.50795791
820.547	0.50728704
820.728	0.50658374
820.908	0.50611916
821.089	0.50569732
821.269	0.50541603
821.45	0.50521687
821.63	0.50489743
821.81	0.50496267
821.991	0.50497766
822.171	0.50492594
822.351	0.50492471
822.532	0.5048157
822.712	0.50460994
822.892	0.50459031
823.072	0.50431924
823.253	0.50404148
823.433	0.50357205
823.613	0.50305314
823.793	0.50257678
823.973	0.50227393
824.154	0.50182956
824.334	0.50141965
824.514	0.50102432
824.694	0.50089009
824.874	0.5005588
825.054	0.50048584
825.234	0.50019169
825.414	0.49989171
825.594	0.49969206
825.774	0.49956986
825.954	0.49928351
826.134	0.49904665
826.314	0.49852373
826.494	0.49813829
826.674	0.4974508
826.854	0.49678586
827.033	0.49597575
827.213	0.49554487
827.393	0.49501723
827.573	0.49462543
827.753	0.49421188
827.932	0.49427003
828.112	0.49426051
828.292	0.49445724
828.472	0.49429612
828.651	0.49442157
828.831	0.49428471
829.011	0.49425705
829.19	0.49398727
829.37	0.49380935
829.549	0.49331452
829.729	0.49279056
829.909	0.49215839
830.088	0.49169644
830.268	0.49093028
830.447	0.4905187
830.627	0.48999492
830.806	0.4896821
830.986	0.48933745
831.165	0.48922229
831.344	0.48910898
831.524	0.48919396
831.703	0.48907564
831.883	0.48881152
832.062	0.48867414
832.241	0.48858781
832.421	0.4883057
832.6	0.48801796
832.779	0.48761546
832.958	0.48722258
833.138	0.48664021
833.317	0.48616291
833.496	0.48550592
833.675	0.48494153
833.854	0.48456004
834.034	0.48413226
834.213	0.48369561
834.392	0.48368345
834.571	0.48335481
834.75	0.48330318
834.929	0.48318656
835.108	0.48287643
835.287	0.48291736
835.466	0.48271909
835.645	0.48235882
835.824	0.48193944
836.003	0.48151994
836.182	0.48117372
836.361	0.48073779
836.54	0.47994979
836.719	0.47940043
836.897	0.47880976
837.076	0.47842594
837.255	0.47791278
837.434	0.47750064
837.613	0.47714973
837.791	0.47688269
837.97	0.4766935
838.149	0.4765629
838.328	0.47635558
838.506	0.47617117
838.685	0.47597256
838.864	0.47587844
839.042	0.47553526
839.221	0.47524313
839.4	0.47479618
839.578	0.47429101
839.757	0.47369806
839.935	0.472964
840.114	0.47231057
840.292	0.47174908
840.471	0.47131596
840.649	0.47082971
840.828	0.47049924
841.006	0.47033312
841.185	0.47013224
841.363	0.46999764
841.541	0.46995817
841.72	0.46985628
841.898	0.46991805
842.076	0.46972897
842.255	0.46949697
842.433	0.46929665
842.611	0.4689095
842.789	0.46850503
842.968	0.46802238
843.146	0.46737255
843.324	0.46682978
843.502	0.46632511
843.68	0.46568506
843.859	0.46506188
844.037	0.4645012
844.215	0.46390724
844.393	0.46361886
844.571	0.46339287
844.749	0.46329396
844.927	0.46311958
845.105	0.46297129
845.283	0.46286881
845.461	0.46278988
845.639	0.46253353
845.817	0.46216382
845.995	0.46177254
846.173	0.46149268
846.351	0.46101144
846.529	0.46051841
846.706	0.4598452
846.884	0.45936868
847.062	0.4588082
847.24	0.45806057
847.418	0.45744292
847.595	0.45708572
847.773	0.45675201
847.951	0.45645641
848.129	0.45609626
848.306	0.45609876
848.484	0.45606389
848.662	0.45608095
848.839	0.45603469
849.017	0.45580403
849.194	0.45556383
849.372	0.45520058
849.549	0.45459468
849.727	0.45412389
849.905	0.45332566
850.082	0.45250012
850.26	0.45191519
850.437	0.4512385
850.614	0.45075634
850.792	0.45032861
850.969	0.45004714
851.147	0.45009662
851.324	0.45001818
851.501	0.44988294
851.679	0.44982713
851.856	0.44968396
852.033	0.44975737
852.211	0.44951022
852.388	0.44893983
852.565	0.44867542
852.742	0.44835197
852.92	0.44799847
853.097	0.44746925
853.274	0.4467039
853.451	0.44590868
853.628	0.44525541
853.805	0.44446723
853.982	0.443691
854.159	0.44302437
854.336	0.4425301
854.514	0.44209826
854.691	0.44190496
854.868	0.44182175
855.045	0.44175739
855.221	0.44177963
855.398	0.4416694
855.575	0.44161879
855.752	0.44156085
855.929	0.44151227
856.106	0.44106301
856.283	0.440762
856.46	0.4403933
856.637	0.43999513
856.813	0.43935174
856.99	0.43865269
857.167	0.4379314
857.344	0.43741111
857.52	0.43678879
857.697	0.43587583
857.874	0.43515821
858.05	0.43470676
858.227	0.43436914
858.404	0.43408323
858.58	0.43414432
858.757	0.43395606
858.933	0.43406905
859.11	0.43408496
859.287	0.4338801
859.463	0.43344794
859.64	0.43318279
859.816	0.43255801
859.993	0.43200561
860.169	0.43142416
860.345	0.43084014
860.522	0.43026081
860.698	0.42985899
860.875	0.42912447
861.051	0.42863263
861.227	0.4281279
861.404	0.42779916
861.58	0.42755375
861.756	0.42735675
861.932	0.42719097
862.109	0.42695576
862.285	0.42683296
862.461	0.42682002
862.637	0.4265301
862.813	0.42621055
862.99	0.42586021
863.166	0.42526193
863.342	0.42514929
863.518	0.42438216
863.694	0.42385082
863.87	0.4231942
864.046	0.42252551
864.222	0.4221209
864.398	0.42177996
864.574	0.42092868
864.75	0.42058691
864.926	0.42010423
865.102	0.41990597
865.278	0.41958219
865.454	0.41926694
865.63	0.41902319
865.805	0.41892337
865.981	0.41892303
866.157	0.41888628
866.333	0.41842564
866.509	0.41825023
866.684	0.41783615
866.86	0.41760528
867.036	0.41713756
867.212	0.41651784
867.387	0.4158559
867.563	0.41551915
867.739	0.41498018
867.914	0.41456697
868.09	0.41395349
868.265	0.41355102
868.441	0.41321982
868.617	0.41293379
868.792	0.41266658
868.968	0.41235613
869.143	0.41222476
869.319	0.41212762
869.494	0.4119698
869.67	0.41168929
869.845	0.41143308
870.02	0.41120725
870.196	0.41106149
870.371	0.41048113
870.546	0.40981135
870.722	0.4093215
870.897	0.40852448
871.072	0.4078247
871.248	0.40692428
871.423	0.40623671
871.598	0.4057789
871.773	0.4052719
871.949	0.40482725
872.124	0.4049408
872.299	0.40473297
872.474	0.40482514
872.649	0.40454589
872.824	0.40429179
872.999	0.40416062
873.174	0.40399406
873.349	0.40371531
873.524	0.40361243
873.699	0.40323992
873.874	0.40299553
874.049	0.40262586
874.224	0.40215705
874.399	0.40153605
874.574	0.40093216
874.749	0.40019463
874.924	0.3995264
875.099	0.3987275
875.274	0.39811849
875.449	0.39768805
875.623	0.39729082
875.798	0.39676065
875.973	0.39651818
876.148	0.39624787
876.322	0.39630041
876.497	0.39608431
876.672	0.39596092
876.846	0.39574652
877.021	0.39556145
877.196	0.39482257
877.37	0.39458384
877.545	0.39427659
877.72	0.39378871
877.894	0.39329951
878.069	0.39280602
878.243	0.39204107
878.418	0.39185677
878.592	0.39102459
878.767	0.39020464
878.941	0.389788
879.116	0.38915718
879.29	0.38872421
879.464	0.38843513
879.639	0.38800069
879.813	0.38816416
879.987	0.38804135
880.162	0.38793299
880.336	0.38797701
880.51	0.38796024
880.685	0.38792605
880.859	0.38784115
881.033	0.38736414
881.207	0.38695881
881.381	0.38642413
881.556	0.38578397
881.73	0.38498726
881.904	0.38457617
882.078	0.38385945
882.252	0.38330346
882.426	0.38265079
882.6	0.38218029
882.774	0.38191246
882.948	0.38161989
883.122	0.38102514
883.296	0.38092963
883.47	0.38086977
883.644	0.38109318
883.818	0.38093865
883.992	0.38082577
884.166	0.38098973
884.34	0.38107057
884.514	0.38115374
884.687	0.38075127
884.861	0.38019729
885.035	0.38006444
885.209	0.37963642
885.382	0.37908367
885.556	0.37850002
885.73	0.37771294
885.904	0.37729674
886.077	0.37664996
886.251	0.37596634
886.425	0.37551669
886.598	0.37507071
886.772	0.37451935
886.945	0.37411825
887.119	0.3735549
887.292	0.37341286
887.466	0.373304
887.64	0.37291983
887.813	0.37254031
887.986	0.37254772
888.16	0.37248465
888.333	0.37234511
888.507	0.37204435
888.68	0.37148665
888.854	0.371212
889.027	0.37072719
889.2	0.37018224
889.374	0.36943853
889.547	0.36906926
889.72	0.36875101
889.893	0.36844587
890.067	0.36786872
890.24	0.36740406
890.413	0.36722503
890.586	0.36708858
890.759	0.36699848
890.933	0.36674536
891.106	0.36660582
891.279	0.36654436
891.452	0.36649831
891.625	0.36606521
891.798	0.36598884
891.971	0.36559558
892.144	0.36537424
892.317	0.36513999
892.49	0.36472405
892.663	0.36435835
892.836	0.36427942
893.009	0.36374534
893.182	0.36310756
893.355	0.36260203
893.527	0.36197425
893.7	0.36172265
893.873	0.36129137
894.046	0.36063454
894.219	0.36037782
894.391	0.36023755
894.564	0.36010001
894.737	0.3599571
894.91	0.35967175
895.082	0.35945749
895.255	0.35928319
895.428	0.35881841
895.6	0.35838045
895.773	0.357664
895.945	0.35717001
896.118	0.3566582
896.291	0.35624383
896.463	0.35576552
896.636	0.35530096
896.808	0.35479015
896.981	0.35439945
897.153	0.35382575
897.326	0.35338123
897.498	0.35285909
897.67	0.35247267
897.843	0.35221912
898.015	0.35231174
898.187	0.35225968
898.36	0.35197502
898.532	0.35169804
898.704	0.35181997
898.877	0.35165559
899.049	0.35157401
899.221	0.35128354
899.393	0.35109197
899.566	0.35115407
899.738	0.35126258
899.91	0.35103125
900.082	0.35080326
900.254	0.35029369
900.426	0.34982057
900.598	0.34937958
900.77	0.34863882
900.942	0.34788604
901.114	0.34712601
901.286	0.34657455
901.458	0.34624481
901.63	0.34579513
901.802	0.34560682
901.974	0.34564456
902.146	0.3455164
902.318	0.34555001
902.49	0.34553911
902.662	0.34539162
902.834	0.34511665
903.005	0.34509466
903.177	0.34500571
903.349	0.34489844
903.521	0.34457518
903.693	0.34441234
903.864	0.34411216
904.036	0.34392019
904.208	0.34296143
904.379	0.3421781
904.551	0.34159232
904.723	0.34112232
904.894	0.34026255
905.066	0.33972492
905.237	0.33944288
905.409	0.33919501
905.58	0.33906829
905.752	0.33882841
905.923	0.3385044
906.095	0.33833697
906.266	0.33810887
906.438	0.33789057
906.609	0.33803716
906.78	0.33775184
906.952	0.33763816
907.123	0.33726494
907.295	0.33718081
907.466	0.33704022
907.637	0.33686903
907.808	0.33629234
907.98	0.33590554
908.151	0.33535742
908.322	0.33514899
908.493	0.33448327
908.665	0.33399031
908.836	0.33322373
909.007	0.33283006
909.178	0.33257136
909.349	0.33231685
909.52	0.33222512
909.691	0.3321438
909.862	0.33208768
910.033	0.33198122
910.204	0.33187958
910.375	0.33171682
910.546	0.33161753
910.717	0.33131379
910.888	0.33135771
911.059	0.33104229
911.23	0.33080934
911.401	0.33029388
911.572	0.3299248
911.742	0.32941655
911.913	0.32890716
912.084	0.32817079
912.255	0.32761888
912.426	0.3270296
912.596	0.32662131
912.767	0.3263389
912.938	0.32599506
913.108	0.32567522
913.279	0.32540703
913.45	0.32522817
913.62	0.32531223
913.791	0.32552449
913.962	0.32544163
914.132	0.3251814
914.303	0.32510592
914.473	0.32498061
914.644	0.32467129
914.814	0.32433262
914.985	0.32394571
915.155	0.3234877
915.326	0.32333289
915.496	0.32288009
915.666	0.32258507
915.837	0.32246773
916.007	0.32197835
916.177	0.32128147
916.348	0.32088848
916.518	0.32063992
916.688	0.32057905
916.858	0.32023126
917.029	0.31992536
917.199	0.31981627
917.369	0.32000544
917.539	0.32015454
917.709	0.3200469
917.88	0.31968889
918.05	0.31960017
918.22	0.31939553
918.39	0.31914362
918.56	0.31889318
918.73	0.31850415
918.9	0.31808764
919.07	0.31769467
919.24	0.31741884
919.41	0.31741836
919.58	0.31705881
919.75	0.31684404
919.92	0.31640323
920.09	0.31626095
920.26	0.31607407
920.429	0.3157638
920.599	0.31524225
920.769	0.31501466
920.939	0.31432002
921.109	0.31392108
921.278	0.3135826
921.448	0.31344442
921.618	0.31325504
921.787	0.31301213
921.957	0.31298743
922.127	0.31294256
922.296	0.31312977
922.466	0.31281327
922.636	0.31272377
922.805	0.3125509
922.975	0.31230727
923.144	0.31207067
923.314	0.31171435
923.483	0.31136449
923.653	0.31111119
923.822	0.3105763
923.992	0.31027545
924.161	0.30986616
924.331	0.30935849
924.5	0.30909572
924.669	0.30832722
924.839	0.30815193
925.008	0.30783252
925.177	0.30727022
925.347	0.30717346
925.516	0.30716927
925.685	0.30691613
925.854	0.3071655
926.023	0.30691682
926.193	0.30710072
926.362	0.30705233
926.531	0.30697156
926.7	0.30665232
926.869	0.30668317
927.038	0.30619917
927.207	0.30606919
927.376	0.30539732
927.545	0.30528433
927.715	0.30476151
927.884	0.3046205
928.052	0.30464348
928.221	0.304043
928.39	0.30345297
928.559	0.30314918
928.728	0.30286914
928.897	0.3028138
929.066	0.30246774
929.235	0.30156668
929.404	0.301752
929.572	0.30145933
929.741	0.30126827
929.91	0.30105984
930.079	0.30054659
930.247	0.30003782
930.416	0.30037023
930.585	0.30017719
930.753	0.30030477
930.922	0.30025726
931.091	0.30001103
931.259	0.29996483
931.428	0.30014963
931.596	0.29972895
931.765	0.29991373
931.934	0.29972974
932.102	0.29894438
932.27	0.29888716
932.439	0.29848996
932.607	0.29798877
932.776	0.29807562
932.944	0.29735078
933.113	0.29707334
933.281	0.2973527
933.449	0.29668466
933.618	0.29623921
933.786	0.29628125
933.954	0.29554619
934.123	0.2951702
934.291	0.29495804
934.459	0.29474775
934.627	0.29489669
934.795	0.29527517
934.964	0.29487672
935.132	0.29442534
935.3	0.29450591
935.468	0.29389673
935.636	0.29395724
935.804	0.29328302
935.972	0.29277884
936.14	0.29208445
936.308	0.29223818
936.476	0.29209782
936.644	0.29233234
936.812	0.29164491
936.98	0.29158537
937.148	0.29133547
937.316	0.29121376
937.484	0.29177691
937.652	0.29079365
937.82	0.2908387
937.987	0.29064908
938.155	0.29010279
938.323	0.29017259
938.491	0.2903125
938.658	0.29055256
938.826	0.29105612
938.994	0.29060083
939.162	0.29106378
939.329	0.29200206
939.497	0.29318713
939.665	0.29338893
939.832	0.29376157
940	0.29404798
940.167	0.29413162
940.335	0.29332833
940.502	0.29302884
940.67	0.29166038
940.837	0.29273624
941.005	0.29104241
941.172	0.29047184
941.34	0.29122167
941.507	0.2945474
941.674	0.29640211
941.842	0.29629207
942.009	0.29653669
942.177	0.29549558
942.344	0.29790923
942.511	0.2979521
942.678	0.29665749
942.846	0.29523481
943.013	0.29635622
943.18	0.29597565
943.347	0.29755177
943.514	0.29543304
943.682	0.29709609
943.849	0.29471407
944.016	0.29405465
944.183	0.29405258
944.35	0.29441473
944.517	0.29520572
944.684	0.2968774
944.851	0.29051963
945.018	0.2919078
945.185	0.29145766
945.352	0.29054578
945.519	0.28941649
945.686	0.28819148
945.853	0.29047308
946.02	0.2923686
946.187	0.29091803
946.353	0.29328305
946.52	0.29375468
946.687	0.29298767
946.854	0.29338696
947.021	0.28992011
947.187	0.29077937
947.354	0.28966992
947.521	0.28852182
947.687	0.28617087
947.854	0.28621202
948.021	0.28445561
948.187	0.28317886
948.354	0.28150937
948.52	0.28028909
948.687	0.27967167
948.854	0.28176011
949.02	0.27998952
949.187	0.28029262
949.353	0.28109156
949.52	0.28025297
949.686	0.28173894
949.852	0.28154079
950.019	0.28080731
950.185	0.28288557
950.352	0.2817799
950.518	0.2810541
950.684	0.28286238
950.851	0.28255445
951.017	0.28137138
951.183	0.28033926
951.349	0.27903439
951.516	0.27790459
951.682	0.2776813
951.848	0.27575573
952.014	0.27438797
952.18	0.27490884
952.346	0.27398233
952.512	0.27322905
952.679	0.27479123
952.845	0.27409151
953.011	0.27396674
953.177	0.27460339
953.343	0.27308543
953.509	0.27403376
953.675	0.27412513
953.841	0.27278914
954.007	0.27405596
954.172	0.27514003
954.338	0.27419899
954.504	0.27385614
954.67	0.2714716
954.836	0.27163825
955.002	0.27150777
955.167	0.27000832
955.333	0.26847857
955.499	0.26878675
955.665	0.26807746
955.83	0.26994988
955.996	0.26931066
956.162	0.26892324
956.327	0.26914757
956.493	0.26897677
956.659	0.26968565
956.824	0.27029455
956.99	0.26856214
957.155	0.26819929
957.321	0.26809026
957.486	0.26748758
957.652	0.26670812
957.817	0.26669178
957.983	0.26632336
958.148	0.2665507
958.314	0.26617687
958.479	0.26475372
958.644	0.26477791
958.81	0.26580297
958.975	0.26472944
959.14	0.2639764
959.306	0.26349177
959.471	0.26338173
959.636	0.26284081
959.801	0.26305659
959.967	0.26215146
960.132	0.26226271
960.297	0.26254482
960.462	0.26332913
960.627	0.26291489
960.792	0.26324012
960.957	0.26259544
961.123	0.26336258
961.288	0.26283382
961.453	0.26267839
961.618	0.2619832
961.783	0.26246632
961.948	0.26161023
962.113	0.26058693
962.277	0.25855402
962.442	0.25848933
962.607	0.25867018
962.772	0.25863672
962.937	0.25725329
963.102	0.2580325
963.267	0.25834348
963.431	0.25878949
963.596	0.258466
963.761	0.25763446
963.926	0.25648873
964.09	0.25677189
964.255	0.25752122
964.42	0.25770997
964.584	0.2581998
964.749	0.25714449
964.914	0.25668248
965.078	0.25660082
965.243	0.2559385
965.407	0.25442999
965.572	0.25356576
965.736	0.25321311
965.901	0.25421016
966.065	0.2558144
966.23	0.25573134
966.394	0.25694154
966.559	0.25713832
966.723	0.25711146
966.887	0.25677321
967.052	0.25549084
967.216	0.25313297
967.38	0.25190686
967.545	0.25128733
967.709	0.25157184
967.873	0.25188284
968.037	0.25140375
968.202	0.2514355
968.366	0.25237527
968.53	0.2534516
968.694	0.25295903
968.858	0.25262227
969.022	0.2518648
969.187	0.25151961
969.351	0.25154073
969.515	0.25151708
969.679	0.25082317
969.843	0.25006373
970.007	0.24960022
970.171	0.24983219
970.335	0.24995459
970.499	0.24991565
970.662	0.24961343
970.826	0.24989867
970.99	0.25070468
971.154	0.25117277
971.318	0.250959
971.482	0.25025989
971.645	0.25040835
971.809	0.25004697
971.973	0.25002135
972.137	0.24895472
972.3	0.24865699
972.464	0.24844709
972.628	0.24972087
972.791	0.25021769
972.955	0.25020837
973.119	0.25010561
973.282	0.2502436
973.446	0.24964486
973.609	0.2495078
973.773	0.24866747
973.936	0.24751458
974.1	0.24698206
974.263	0.24652119
974.427	0.24700531
974.59	0.24657643
974.754	0.2460697
974.917	0.24559684
975.08	0.24568578
975.244	0.24526341
975.407	0.24498626
975.57	0.24444342
975.734	0.24412783
975.897	0.24403567
976.06	0.24437405
976.223	0.24390775
976.387	0.24477918
976.55	0.24439478
976.713	0.24393457
976.876	0.24449956
977.039	0.24426567
977.202	0.2437748
977.365	0.24343498
977.528	0.24317754
977.692	0.24408315
977.855	0.24332091
978.018	0.24252255
978.181	0.24300895
978.344	0.24268503
978.506	0.24247289
978.669	0.24170342
978.832	0.24046699
978.995	0.24133286
979.158	0.24196704
979.321	0.24108322
979.484	0.24111217
979.646	0.24128516
979.809	0.24165184
979.972	0.24134772
980.135	0.24096293
980.297	0.24028733
980.46	0.23984539
980.623	0.23981913
980.786	0.23942648
980.948	0.23838378
981.111	0.23800491
981.273	0.23777621
981.436	0.23696468
981.599	0.23765014
981.761	0.23672074
981.924	0.23764832
982.086	0.23791615
982.249	0.2393387
982.411	0.23891912
982.573	0.23905956
982.736	0.24027802
982.898	0.24051008
983.061	0.23959866
983.223	0.23931752
983.385	0.23789709
983.548	0.2386568
983.71	0.23911998
983.872	0.23745574
984.034	0.23762847
984.197	0.23657727
984.359	0.23665245
984.521	0.23770461
984.683	0.23799703
984.845	0.23839354
985.008	0.23779488
985.17	0.23816459
985.332	0.23882733
985.494	0.23796309
985.656	0.23708614
985.818	0.23588678
985.98	0.23536075
986.142	0.23493884
986.304	0.23429549
986.466	0.23350107
986.628	0.23389557
986.79	0.23363995
986.952	0.23238831
987.113	0.2316937
987.275	0.23159938
987.437	0.23174009
987.599	0.23183671
987.761	0.23181728
987.922	0.23109317
988.084	0.23186183
988.246	0.23187545
988.408	0.23211437
988.569	0.23111029
988.731	0.23211004
988.893	0.23241485
989.054	0.23494856
989.216	0.23497926
989.377	0.23444255
989.539	0.23428876
989.701	0.23421714
989.862	0.23294677
990.024	0.23206376
990.185	0.22997009
990.347	0.23084211
990.508	0.23019534
990.669	0.23059555
990.831	0.23106628
990.992	0.23285727
991.154	0.23247569
991.315	0.23391837
991.476	0.23341973
991.638	0.23387624
991.799	0.23307806
991.96	0.23379191
992.121	0.23207186
992.283	0.23297656
992.444	0.23097947
992.605	0.23008037
992.766	0.23002371
992.927	0.23015303
993.088	0.22978951
993.249	0.2295409
993.41	0.22844325
993.572	0.22945548
993.733	0.22949589
993.894	0.22992532
994.055	0.22874526
994.216	0.22849052
994.376	0.22759078
994.537	0.22926333
994.698	0.22863659
994.859	0.22803555
995.02	0.22726034
995.181	0.22655093
995.342	0.22636725
995.503	0.22809327
995.663	0.22639491
995.824	0.22484867
995.985	0.22810521
996.146	0.2288506
996.306	0.23006437
996.467	0.22992585
996.628	0.23031958
996.788	0.23062055
996.949	0.23340079
997.11	0.22968934
997.27	0.22955006
997.431	0.22989813
997.591	0.22781081
997.752	0.2249262
997.912	0.22493042
998.073	0.22334108
998.233	0.22457399
998.394	0.22397107
998.554	0.22457439
998.714	0.22533497
998.875	0.22493448
999.035	0.22335746
999.196	0.22333557
999.356	0.22318608
999.516	0.22383141
999.676	0.22316215
999.837	0.22408987
999.997	0.22483536
1000.157	0.22557362
1000.317	0.22337019
1000.477	0.22156341
1000.638	0.21955007
1000.798	0.22066901
1000.958	0.22110419
1001.118	0.22211286
1001.278	0.22227873
1001.438	0.2236909
1001.598	0.22454745
1001.758	0.22512948
1001.918	0.22297272
1002.078	0.21892146
1002.238	0.21797438
1002.398	0.21798151
1002.558	0.21712422
1002.718	0.21667586
1002.878	0.21752907
1003.037	0.2145557
1003.197	0.21719423
1003.357	0.21523413
1003.517	0.21642585
1003.677	0.21524264
1003.836	0.2160613
1003.996	0.21586643
1004.156	0.2192563
1004.315	0.21965004
1004.475	0.22371198
1004.635	0.225442
1004.794	0.22933031
1004.954	0.22828925
1005.114	0.22723818
1005.273	0.22881825
1005.433	0.22728774
1005.592	0.22665991
1005.752	0.22463792
1005.911	0.22227716
1006.071	0.22401881
1006.23	0.22282657
1006.389	0.22086503
1006.549	0.22063753
1006.708	0.21882105
1006.868	0.2161839
1007.027	0.21793101
1007.186	0.21868501
1007.345	0.22279397
1007.505	0.22297111
1007.664	0.22543451
1007.823	0.22593069
1007.982	0.226476
1008.142	0.22691776
1008.301	0.22599743
1008.46	0.2229358
1008.619	0.21867379
1008.778	0.21881166
1008.937	0.216866
1009.096	0.21732406
1009.255	0.21610859
1009.414	0.21108126
1009.573	0.21122144
1009.732	0.21797475
1009.891	0.21571474
1010.05	0.21892914
1010.209	0.2180412
1010.368	0.21570225
1010.527	0.2180766
1010.686	0.2199148
1010.845	0.21636562
1011.003	0.2194515
1011.162	0.21727086
1011.321	0.21501558
1011.48	0.21929204
1011.638	0.21955553
1011.797	0.21912999
1011.956	0.22051712
1012.115	0.21702597
1012.273	0.21541631
1012.432	0.21687188
1012.59	0.21140332
1012.749	0.21312145
1012.908	0.21178111
1013.066	0.21259372
1013.225	0.21391143
1013.383	0.21862789
1013.542	0.21751706
1013.7	0.22317671
1013.859	0.22346563
1014.017	0.22645237
1014.175	0.22149318
1014.334	0.22340423
1014.492	0.22507481
1014.65	0.22917462
1014.809	0.23049298
1014.967	0.22913883
1015.125	0.22882617
1015.284	0.23534659
1015.442	0.23453917
1015.6	0.22886136
1015.758	0.22602992
1015.916	0.22138114
1016.075	0.22165208
1016.233	0.21569984
1016.391	0.21706769
1016.549	0.21752861
1016.707	0.22029462
1016.865	0.22150178
1017.023	0.21774411
1017.181	0.21647464
1017.339	0.21888923
1017.497	0.21267403
1017.655	0.20845077
1017.813	0.20851489
1017.971	0.2093889
1018.129	0.21620708
1018.286	0.21673193
1018.444	0.21494217
1018.602	0.21988939
1018.76	0.21903038
1018.918	0.21483075
1019.075	0.21345917
1019.233	0.21034259
1019.391	0.21186848
1019.549	0.2162153
1019.706	0.21454197
1019.864	0.22118174
1020.022	0.22560767
1020.179	0.22957776
1020.337	0.22682115
1020.494	0.22220887
1020.652	0.22062269
1020.809	0.21704573
1020.967	0.21355734
1021.124	0.20963861
1021.282	0.21293949
1021.439	0.21761584
1021.597	0.22302939
1021.754	0.21969706
1021.911	0.22665905
1022.069	0.22732291
1022.226	0.23010717
1022.384	0.22259224
1022.541	0.21614406
1022.698	0.21187275
1022.855	0.21497801
1023.013	0.21311356
1023.17	0.20943078
1023.327	0.21321187
1023.484	0.21761191
1023.641	0.22478436
1023.798	0.23716205
1023.956	0.24450523
1024.113	0.23637138
1024.27	0.23587114
1024.427	0.23080881
1024.584	0.22795657
1024.741	0.2268418
1024.898	0.21811276
1025.055	0.20738614
1025.212	0.20728749
1025.369	0.20882251
1025.525	0.20628184
1025.682	0.21242193
1025.839	0.20931441
1025.996	0.21194705
1026.153	0.21995337
1026.31	0.2294262
1026.466	0.2369596
1026.623	0.2448349
1026.78	0.2391559
1026.937	0.23673463
1027.093	0.24313798
1027.25	0.25488678
1027.407	0.25055532
1027.563	0.24349991
1027.72	0.2406291
1027.876	0.23391452
1028.033	0.24191649
1028.19	0.23394721
1028.346	0.2175703
1028.503	0.22501153
1028.659	0.22925869
1028.816	0.23477763
1028.972	0.24470041
1029.128	0.25153476
1029.285	0.2550584
1029.441	0.25608169
1029.598	0.23928778
1029.754	0.245008
1029.91	0.23706823
1030.067	0.22958637
1030.223	0.22330268
1030.379	0.2190571
1030.535	0.22376362
1030.691	0.22768258
1030.848	0.22902711
1031.004	0.23606101
1031.16	0.24280288
1031.316	0.25467164
1031.472	0.26784295
1031.628	0.26740931
1031.784	0.27754583
1031.94	0.27262688
1032.096	0.27779734
1032.252	0.28000811
1032.408	0.28688241
1032.564	0.27404223
1032.72	0.27364152
1032.876	0.25663023
1033.032	0.25991147
1033.188	0.2518704
1033.344	0.25748493
1033.5	0.24957291
1033.655	0.25057016
1033.811	0.25849023
1033.967	0.2875018
