Data from 0_1_mm_pl_0pc_Absorbance__0__15-22-52-186.txt Node

Date: Fri Feb 24 15:22:52 CET 2023
User: Ange
Spectrometer: FLMT08341
Trigger mode: 0
Integration Time (sec): 1.000000E-2
Scans to average: 400
Electric dark correction enabled: true
Nonlinearity correction enabled: false
Boxcar width: 3
XAxis mode: Wavelengths
Number of Pixels in Spectrum: 3648
>>>>>Begin Spectral Data<<<<<
345.271	-0.04172835
345.487	-0.03353701
345.704	-0.03824681
345.921	-0.02040159
346.137	-0.0232531
346.354	-0.00668099
346.571	-0.00702866
346.787	-0.01098158
347.004	0.11168452
347.22	0.07280696
347.437	0.18372852
347.653	0.16997311
347.87	-0.2515555
348.086	-0.03740286
348.303	-0.48749508
348.519	0.06932954
348.736	0.04752473
348.952	0.04577971
349.169	0.04691428
349.385	0.04664825
349.601	0.04384853
349.818	0.04340321
350.034	0.04299068
350.251	0.04308736
350.467	0.04163065
350.683	0.03967154
350.9	0.0389763
351.116	0.04147893
351.332	0.04053961
351.549	0.04048987
351.765	0.04246176
351.981	0.04211927
352.197	0.04325216
352.414	0.04271508
352.63	0.04150918
352.846	0.0402674
353.062	0.03841983
353.278	0.03668088
353.495	0.03797173
353.711	0.03570443
353.927	0.03563227
354.143	0.03516186
354.359	0.03549067
354.575	0.03606535
354.792	0.03646633
355.008	0.03547472
355.224	0.03520994
355.44	0.03475179
355.656	0.03400894
355.872	0.03302081
356.088	0.03187997
356.304	0.03097938
356.52	0.03054298
356.736	0.03037507
356.952	0.02970065
357.168	0.02863985
357.384	0.02970619
357.6	0.02928415
357.816	0.02863175
358.032	0.02813173
358.248	0.02736655
358.464	0.02683638
358.679	0.0270286
358.895	0.02616778
359.111	0.02682038
359.327	0.02592342
359.543	0.02589098
359.759	0.02680127
359.974	0.02749161
360.19	0.02716929
360.406	0.02593134
360.622	0.02412677
360.838	0.02486553
361.053	0.02392333
361.269	0.02389853
361.485	0.02283693
361.701	0.02186775
361.916	0.02274627
362.132	0.02372202
362.348	0.02267865
362.563	0.02206133
362.779	0.02110291
362.995	0.02119977
363.21	0.02198234
363.426	0.02127772
363.641	0.02050113
363.857	0.02067538
364.073	0.02132596
364.288	0.0212234
364.504	0.02153685
364.719	0.02145333
364.935	0.02103395
365.15	0.02106336
365.366	0.02043669
365.581	0.01964298
365.797	0.02005467
366.012	0.01901282
366.228	0.01794155
366.443	0.01780569
366.658	0.01749673
366.874	0.01722226
367.089	0.01791722
367.305	0.01692291
367.52	0.0166167
367.735	0.0159419
367.951	0.01593292
368.166	0.01563568
368.381	0.01518626
368.597	0.01390602
368.812	0.0137697
369.027	0.01419687
369.243	0.01499187
369.458	0.01444417
369.673	0.01435888
369.888	0.01573848
370.104	0.01629138
370.319	0.01641735
370.534	0.01629499
370.749	0.01583593
370.964	0.01623142
371.179	0.01667622
371.395	0.0152592
371.61	0.01506607
371.825	0.01449531
372.04	0.01433082
372.255	0.01426501
372.47	0.01450725
372.685	0.01340182
372.9	0.01308322
373.115	0.01228996
373.33	0.01227971
373.545	0.0114293
373.76	0.01074242
373.975	0.01019207
374.19	0.01034749
374.405	0.01042411
374.62	0.01138323
374.835	0.01125932
375.05	0.01175378
375.265	0.01192267
375.48	0.01143736
375.695	0.01130569
375.91	0.01112859
376.125	0.01014075
376.339	0.00999252
376.554	0.0095639
376.769	0.01014002
376.984	0.01041323
377.199	0.01029575
377.414	0.00976104
377.628	0.01027102
377.843	0.01032315
378.058	0.01017151
378.273	0.0098754
378.487	0.00941465
378.702	0.00983659
378.917	0.00990057
379.131	0.00956657
379.346	0.00948358
379.561	0.00975314
379.775	0.00945429
379.99	0.0096851
380.205	0.00924544
380.419	0.00957765
380.634	0.0093141
380.848	0.00888533
381.063	0.00838496
381.278	0.00836181
381.492	0.00796375
381.707	0.00801981
381.921	0.00788248
382.136	0.00776833
382.35	0.00753359
382.565	0.00715651
382.779	0.00674922
382.994	0.00719531
383.208	0.00666547
383.422	0.00641442
383.637	0.00601475
383.851	0.00586051
384.066	0.00586138
384.28	0.00600427
384.494	0.00556781
384.709	0.00537445
384.923	0.00532385
385.137	0.00578265
385.352	0.00622786
385.566	0.00622209
385.78	0.00575491
385.995	0.0054956
386.209	0.00525565
386.423	0.0052325
386.637	0.0047272
386.852	0.00485912
387.066	0.00476147
387.28	0.0050165
387.494	0.00526625
387.708	0.00567612
387.923	0.00527973
388.137	0.00547678
388.351	0.00500406
388.565	0.00502116
388.779	0.0050251
388.993	0.00431726
389.207	0.00367473
389.421	0.00389545
389.635	0.00364517
389.85	0.00383539
390.064	0.00414252
390.278	0.00427084
390.492	0.00478703
390.706	0.00515412
390.92	0.00479333
391.134	0.00492084
391.348	0.00463495
391.561	0.00427028
391.775	0.00394486
391.989	0.00352619
392.203	0.00349548
392.417	0.00357639
392.631	0.00355854
392.845	0.00343247
393.059	0.00373936
393.273	0.00361716
393.486	0.0036106
393.7	0.00339641
393.914	0.00350596
394.128	0.00325676
394.342	0.00315835
394.555	0.00306677
394.769	0.00258822
394.983	0.00272358
395.197	0.00295561
395.41	0.00265221
395.624	0.0026785
395.838	0.00284887
396.051	0.00234175
396.265	0.00302564
396.479	0.00288417
396.692	0.00275307
396.906	0.00288586
397.12	0.00285851
397.333	0.00261293
397.547	0.00301762
397.76	0.00288771
397.974	0.00280211
398.187	0.00290706
398.401	0.00311738
398.614	0.00288614
398.828	0.00286264
399.041	0.00301115
399.255	0.00269383
399.468	0.00269239
399.682	0.00249064
399.895	0.00225705
400.109	0.00229054
400.322	0.00254319
400.536	0.0020708
400.749	0.0021207
400.962	0.00183607
401.176	0.00164735
401.389	0.00154151
401.602	0.00150361
401.816	0.00130528
402.029	0.00120446
402.242	0.00116938
402.456	0.00125969
402.669	0.00115117
402.882	0.00104962
403.095	0.00117212
403.309	0.00124654
403.522	0.00134492
403.735	0.00128602
403.948	0.00105776
404.161	0.00120729
404.375	0.00118109
404.588	0.00109813
404.801	0.0008271
405.014	0.00082136
405.227	0.00070216
405.44	0.00086509
405.653	0.00094609
405.866	0.00098025
406.079	0.00095117
406.293	0.00124189
406.506	0.00096718
406.719	0.00090243
406.932	0.00122457
407.145	0.00117114
407.358	0.00128943
407.571	0.00121063
407.784	0.00083711
407.996	0.00125075
408.209	0.00128877
408.422	0.00112262
408.635	0.0009365
408.848	0.0007958
409.061	0.00093989
409.274	0.00113145
409.487	0.00074378
409.7	0.00104015
409.912	0.00090526
410.125	0.00094587
410.338	0.00099444
410.551	0.00058861
410.764	0.00033076
410.976	0.00036233
411.189	0.00016677
411.402	0.00008781
411.615	-0.00011758
411.827	-0.00013977
412.04	0.00004685
412.253	0.00017177
412.465	0.00025258
412.678	0.00033794
412.891	0.00048308
413.103	0.000656
413.316	0.00052131
413.529	0.00046462
413.741	0.00049735
413.954	0.00050068
414.166	0.00034555
414.379	0.00008974
414.591	0.0001294
414.804	0.00022313
415.016	0.00013691
415.229	0.00017867
415.441	0.00012179
415.654	-0.00002139
415.866	0.00012317
416.079	0.00014339
416.291	0.00012908
416.504	0.00018542
416.716	0.00005821
416.928	-0.00016632
417.141	-0.00008985
417.353	-0.00026729
417.566	-0.00055186
417.778	-0.00071261
417.99	-0.00077418
418.203	-0.0006329
418.415	-0.0003926
418.627	-0.00050003
418.839	-0.00043765
419.052	-0.00031656
419.264	-0.00022605
419.476	-0.00021307
419.688	-0.00019978
419.901	-0.0002664
420.113	-0.00020146
420.325	-0.00006441
420.537	0.00002997
420.749	-0.0000502
420.961	0.0000397
421.174	-0.00012419
421.386	-0.00015375
421.598	-0.00010081
421.81	-0.00022097
422.022	-0.00030827
422.234	-0.00019504
422.446	-0.00018958
422.658	-0.00037176
422.87	-0.00032117
423.082	-0.00053403
423.294	-0.00051764
423.506	-0.00042005
423.718	-0.00064732
423.93	-0.00068606
424.142	-0.00045714
424.354	-0.00051051
424.566	-0.00032072
424.778	-0.00020003
424.99	-0.00038239
425.202	-0.0003175
425.414	-0.00032008
425.625	-0.00041701
425.837	-0.00046648
426.049	-0.00064799
426.261	-0.00078885
426.473	-0.00076453
426.684	-0.00059698
426.896	-0.0005393
427.108	-0.00058674
427.32	-0.00076049
427.531	-0.00075755
427.743	-0.00083326
427.955	-0.00081006
428.167	-0.00093887
428.378	-0.00117217
428.59	-0.00120426
428.802	-0.00107483
429.013	-0.00107484
429.225	-0.00089962
429.436	-0.00095221
429.648	-0.00098455
429.86	-0.00077223
430.071	-0.00074961
430.283	-0.00069853
430.494	-0.00068772
430.706	-0.00082468
430.917	-0.0009681
431.129	-0.00105264
431.34	-0.00112557
431.552	-0.00125288
431.763	-0.00134932
431.975	-0.00122239
432.186	-0.00118608
432.398	-0.00098366
432.609	-0.00104147
432.821	-0.00114038
433.032	-0.00093037
433.243	-0.00092213
433.455	-0.00104122
433.666	-0.00103848
433.877	-0.00118644
434.089	-0.00119154
434.3	-0.00112603
434.511	-0.00134005
434.723	-0.0013002
434.934	-0.00130563
435.145	-0.00142177
435.356	-0.00137763
435.568	-0.00129562
435.779	-0.00138141
435.99	-0.00131914
436.201	-0.00148447
436.412	-0.0015095
436.624	-0.0013707
436.835	-0.00135658
437.046	-0.00141085
437.257	-0.00141074
437.468	-0.00137467
437.679	-0.00121533
437.89	-0.00116781
438.101	-0.00133139
438.312	-0.00130751
438.523	-0.00127945
438.734	-0.00130822
438.945	-0.00133557
439.156	-0.00138381
439.367	-0.00137501
439.578	-0.00131462
439.789	-0.00133481
440	-0.00138072
440.211	-0.00130473
440.422	-0.00125157
440.633	-0.00131686
440.844	-0.00130665
441.055	-0.00144779
441.266	-0.00143349
441.477	-0.00140672
441.687	-0.00145577
441.898	-0.00146147
442.109	-0.00152488
442.32	-0.00163732
442.531	-0.00150764
442.741	-0.00156156
442.952	-0.00157913
443.163	-0.00155235
443.374	-0.00159287
443.584	-0.0013261
443.795	-0.00124467
444.006	-0.00142119
444.216	-0.00139978
444.427	-0.00125906
444.638	-0.00120353
444.848	-0.00113121
445.059	-0.00129609
445.27	-0.00127531
445.48	-0.00099191
445.691	-0.0009127
445.901	-0.00086165
446.112	-0.00099815
446.323	-0.00118608
446.533	-0.00117496
446.744	-0.00115668
446.954	-0.00123548
447.165	-0.00139182
447.375	-0.0014756
447.586	-0.00133251
447.796	-0.00116967
448.006	-0.0012273
448.217	-0.00130078
448.427	-0.00134555
448.638	-0.00124033
448.848	-0.00133595
449.058	-0.00146518
449.269	-0.00146517
449.479	-0.00140112
449.689	-0.00143391
449.9	-0.00139331
450.11	-0.00129548
450.32	-0.00139958
450.531	-0.00131692
450.741	-0.00128879
450.951	-0.0012924
451.161	-0.00117001
451.372	-0.00120159
451.582	-0.00141675
451.792	-0.00123092
452.002	-0.00128419
452.212	-0.00130687
452.422	-0.00130214
452.633	-0.00139654
452.843	-0.00137013
453.053	-0.0012462
453.263	-0.00124804
453.473	-0.00113374
453.683	-0.0011503
453.893	-0.00115151
454.103	-0.0012248
454.313	-0.00126453
454.523	-0.00129602
454.733	-0.00137263
454.943	-0.00139052
455.153	-0.00140988
455.363	-0.00128599
455.573	-0.00115288
455.783	-0.00120437
455.993	-0.00118263
456.203	-0.00114478
456.413	-0.00115825
456.623	-0.00112457
456.833	-0.00118306
457.042	-0.00131045
457.252	-0.00115788
457.462	-0.00105852
457.672	-0.00102732
457.882	-0.00109068
458.091	-0.00111043
458.301	-0.00113348
458.511	-0.00109883
458.721	-0.00110036
458.931	-0.00119959
459.14	-0.00119185
459.35	-0.00111478
459.56	-0.00111916
459.769	-0.0011047
459.979	-0.00096655
460.189	-0.00100046
460.398	-0.0009694
460.608	-0.00094803
460.817	-0.00103172
461.027	-0.00095723
461.237	-0.00102189
461.446	-0.00110331
461.656	-0.00115409
461.865	-0.00116177
462.075	-0.00118093
462.284	-0.00105189
462.494	-0.0010195
462.703	-0.00090716
462.913	-0.00088423
463.122	-0.00081353
463.332	-0.00075112
463.541	-0.00077726
463.751	-0.00077326
463.96	-0.00079694
464.169	-0.00077533
464.379	-0.0007294
464.588	-0.00069208
464.797	-0.0007569
465.007	-0.00063595
465.216	-0.00067965
465.425	-0.00072208
465.635	-0.00078456
465.844	-0.00086125
466.053	-0.00085887
466.263	-0.00086232
466.472	-0.00083767
466.681	-0.00073366
466.89	-0.00075718
467.099	-0.00071455
467.309	-0.00062349
467.518	-0.00057549
467.727	-0.00055891
467.936	-0.00053385
468.145	-0.00053431
468.354	-0.00051001
468.563	-0.00051709
468.772	-0.00050571
468.982	-0.0005868
469.191	-0.00054924
469.4	-0.00056919
469.609	-0.00062765
469.818	-0.00059908
470.027	-0.00053263
470.236	-0.00042345
470.445	-0.00037488
470.654	-0.00033036
470.863	-0.00036299
471.072	-0.00033304
471.28	-0.00024548
471.489	-0.00018479
471.698	-0.000279
471.907	-0.00029899
472.116	-0.00029509
472.325	-0.0002144
472.534	-0.00028106
472.743	-0.00034939
472.951	-0.00045794
473.16	-0.00035565
473.369	-0.00031473
473.578	-0.00029177
473.786	-0.00030932
473.995	-0.00027825
474.204	-0.00025989
474.413	-0.00019672
474.621	-0.00028748
474.83	-0.00023575
475.039	-0.00021678
475.247	-0.00025161
475.456	-0.00009233
475.665	-0.00005127
475.873	-0.00001088
476.082	0.00008705
476.291	0.00003806
476.499	0.00009006
476.708	0.00013209
476.916	0.0000503
477.125	0.00008469
477.333	0.0000595
477.542	0.00000801
477.75	0.00008724
477.959	0.00002656
478.167	0.00001875
478.376	0.00002747
478.584	0.00006415
478.793	0.00007577
479.001	0.00012969
479.209	0.00010163
479.418	0.0002061
479.626	0.00029181
479.834	0.00032902
480.043	0.00035705
480.251	0.00035587
480.459	0.00035576
480.668	0.00042045
480.876	0.00040908
481.084	0.00046061
481.293	0.00044961
481.501	0.00046238
481.709	0.00050764
481.917	0.00052865
482.125	0.00048652
482.334	0.00048696
482.542	0.00050754
482.75	0.0005659
482.958	0.00051873
483.166	0.00058329
483.374	0.00063071
483.583	0.00069458
483.791	0.00073636
483.999	0.00076218
484.207	0.0008083
484.415	0.00094625
484.623	0.00101923
484.831	0.00106734
485.039	0.00118645
485.247	0.00120685
485.455	0.00121213
485.663	0.00119606
485.871	0.00113832
486.079	0.00114742
486.287	0.00122249
486.495	0.00117953
486.702	0.00121402
486.91	0.0012239
487.118	0.00128112
487.326	0.00137666
487.534	0.0013911
487.742	0.00138665
487.95	0.00143036
488.157	0.001491
488.365	0.00151552
488.573	0.00157266
488.781	0.00159576
488.988	0.00164012
489.196	0.00162779
489.404	0.00165382
489.612	0.00166559
489.819	0.00173627
490.027	0.00176537
490.235	0.00189343
490.442	0.00190447
490.65	0.00197712
490.857	0.00205647
491.065	0.00220574
491.273	0.00229049
491.48	0.00233162
491.688	0.00226311
491.895	0.00231362
492.103	0.00240038
492.31	0.00240056
492.518	0.00230806
492.725	0.0023164
492.933	0.00237794
493.14	0.0024337
493.348	0.00249004
493.555	0.00246179
493.763	0.00244389
493.97	0.0025155
494.177	0.00255743
494.385	0.00253002
494.592	0.00256427
494.8	0.00255807
495.007	0.00262826
495.214	0.00271542
495.422	0.0027272
495.629	0.0027182
495.836	0.00278254
496.043	0.00280655
496.251	0.00285282
496.458	0.002918
496.665	0.00303172
496.872	0.00316449
497.08	0.00321938
497.287	0.00323562
497.494	0.00330519
497.701	0.00338576
497.908	0.00343575
498.115	0.00342515
498.322	0.00343305
498.53	0.00349251
498.737	0.00356867
498.944	0.00365645
499.151	0.00373414
499.358	0.00377525
499.565	0.00381126
499.772	0.00382456
499.979	0.00384787
500.186	0.00389241
500.393	0.00390038
500.6	0.00389439
500.807	0.00394885
501.014	0.00401256
501.221	0.00408139
501.427	0.00415809
501.634	0.00424186
501.841	0.00429242
502.048	0.00435071
502.255	0.0043751
502.462	0.00439019
502.669	0.00448458
502.875	0.00457206
503.082	0.00462387
503.289	0.00465491
503.496	0.00472044
503.702	0.00479806
503.909	0.00493923
504.116	0.00498823
504.323	0.00500548
504.529	0.00509879
504.736	0.00519241
504.943	0.00526033
505.149	0.00527734
505.356	0.00528916
505.563	0.00533536
505.769	0.00539808
505.976	0.00541746
506.182	0.00549643
506.389	0.00557628
506.595	0.00569765
506.802	0.00575005
507.008	0.00586045
507.215	0.00594397
507.421	0.0060611
507.628	0.00613767
507.834	0.00619319
508.041	0.0062007
508.247	0.00629966
508.454	0.00631415
508.66	0.00644157
508.866	0.0064649
509.073	0.00653387
509.279	0.00662618
509.486	0.00669959
509.692	0.00677081
509.898	0.00683331
510.105	0.0068186
510.311	0.00689315
510.517	0.00691822
510.723	0.00693221
510.93	0.00700215
511.136	0.00706242
511.342	0.00713867
511.548	0.00725086
511.754	0.00732976
511.961	0.0074228
512.167	0.00752443
512.373	0.00764446
512.579	0.0077042
512.785	0.00782055
512.991	0.00782957
513.197	0.00786638
513.404	0.00791843
513.61	0.0080076
513.816	0.00807911
514.022	0.00816514
514.228	0.00821234
514.434	0.00832258
514.64	0.0084628
514.846	0.00856806
515.052	0.00861602
515.258	0.00867439
515.464	0.00881121
515.669	0.00885456
515.875	0.0089325
516.081	0.00899346
516.287	0.00908887
516.493	0.00924242
516.699	0.00929684
516.905	0.00932257
517.111	0.0095099
517.316	0.00964772
517.522	0.00973673
517.728	0.00980892
517.934	0.00984861
518.139	0.00998612
518.345	0.01007179
518.551	0.01010041
518.757	0.01017391
518.962	0.0102613
519.168	0.01034537
519.374	0.01042968
519.579	0.01048554
519.785	0.01058634
519.991	0.01067434
520.196	0.01072004
520.402	0.01079887
520.607	0.01092179
520.813	0.01106272
521.018	0.01118541
521.224	0.01133572
521.429	0.01141452
521.635	0.01155113
521.84	0.01166474
522.046	0.01176775
522.251	0.01185568
522.457	0.01193318
522.662	0.01197801
522.868	0.01211813
523.073	0.01221546
523.279	0.01233711
523.484	0.01241976
523.689	0.01253721
523.895	0.01266701
524.1	0.01276293
524.305	0.01284994
524.511	0.01300391
524.716	0.01310815
524.921	0.01328065
525.126	0.01337517
525.332	0.01349273
525.537	0.01365201
525.742	0.01379904
525.947	0.01389534
526.153	0.01401638
526.358	0.01408395
526.563	0.01419505
526.768	0.01432252
526.973	0.01444036
527.178	0.01458413
527.383	0.0146482
527.588	0.01476607
527.794	0.01489006
527.999	0.01501187
528.204	0.01511115
528.409	0.0152292
528.614	0.01531028
528.819	0.01543595
529.024	0.01554569
529.229	0.01566342
529.434	0.01577122
529.639	0.01591268
529.843	0.01606939
530.048	0.01619222
530.253	0.01636945
530.458	0.0165132
530.663	0.01665702
530.868	0.01679419
531.073	0.01694797
531.278	0.01704917
531.482	0.01717879
531.687	0.01728052
531.892	0.0173537
532.097	0.01746008
532.302	0.01759257
532.506	0.0177336
532.711	0.01786841
532.916	0.01800051
533.12	0.018174
533.325	0.01828652
533.53	0.01841542
533.734	0.01855119
533.939	0.01868254
534.144	0.01880773
534.348	0.01892925
534.553	0.01904157
534.757	0.01927439
534.962	0.01947313
535.167	0.0196712
535.371	0.01980049
535.576	0.01996107
535.78	0.02014237
535.985	0.02034573
536.189	0.02052623
536.394	0.02065834
536.598	0.02081605
536.803	0.02100729
537.007	0.02118134
537.211	0.02135697
537.416	0.02154035
537.62	0.02167424
537.825	0.02185698
538.029	0.02201608
538.233	0.02211599
538.438	0.02231138
538.642	0.02249044
538.846	0.02259857
539.05	0.02278924
539.255	0.02292784
539.459	0.02311404
539.663	0.02335105
539.867	0.02351667
540.072	0.02370087
540.276	0.02392455
540.48	0.02410727
540.684	0.02431328
540.888	0.02448451
541.092	0.02466549
541.297	0.02483853
541.501	0.02501627
541.705	0.02513587
541.909	0.02531763
542.113	0.02551579
542.317	0.02570891
542.521	0.02592244
542.725	0.02609285
542.929	0.02627521
543.133	0.02648883
543.337	0.02662492
543.541	0.02679009
543.745	0.02695372
543.949	0.02713593
544.153	0.02732437
544.357	0.02752807
544.56	0.02773613
544.764	0.02798032
544.968	0.02817806
545.172	0.0283216
545.376	0.02848347
545.58	0.02871954
545.783	0.02891395
545.987	0.02908589
546.191	0.02922962
546.395	0.02945792
546.598	0.02975435
546.802	0.02998926
547.006	0.03017488
547.21	0.03036219
547.413	0.03061582
547.617	0.03087477
547.821	0.03109495
548.024	0.0313071
548.228	0.03147715
548.431	0.03172217
548.635	0.03197213
548.839	0.03216362
549.042	0.03237854
549.246	0.03257978
549.449	0.03281359
549.653	0.0330706
549.856	0.03327756
550.06	0.03353305
550.263	0.03378801
550.467	0.03404616
550.67	0.03425072
550.874	0.03446592
551.077	0.03471667
551.28	0.03493801
551.484	0.03517821
551.687	0.0353868
551.891	0.03560787
552.094	0.03586134
552.297	0.03610259
552.501	0.03636338
552.704	0.03662316
552.907	0.03682814
553.11	0.03708398
553.314	0.03734983
553.517	0.03759971
553.72	0.03786579
553.923	0.0381354
554.127	0.03839717
554.33	0.0386594
554.533	0.03892759
554.736	0.03916395
554.939	0.03942389
555.142	0.03966553
555.345	0.03985661
555.549	0.04008941
555.752	0.04032987
555.955	0.04060339
556.158	0.04090802
556.361	0.0411991
556.564	0.04144428
556.767	0.04176243
556.97	0.04208275
557.173	0.0424027
557.376	0.04267145
557.579	0.04292726
557.782	0.04320684
557.984	0.04351541
558.187	0.04375207
558.39	0.04401046
558.593	0.04428658
558.796	0.04455864
558.999	0.04481196
559.202	0.04508241
559.404	0.04536518
559.607	0.04564404
559.81	0.04592461
560.013	0.0461859
560.216	0.04647676
560.418	0.04675989
560.621	0.04698843
560.824	0.04723027
561.026	0.04757223
561.229	0.04780598
561.432	0.04807334
561.634	0.04835146
561.837	0.04865539
562.04	0.04899005
562.242	0.04933574
562.445	0.04959086
562.647	0.04994351
562.85	0.05025766
563.053	0.05054145
563.255	0.05087079
563.458	0.0512193
563.66	0.05149927
563.863	0.05180513
564.065	0.05209985
564.268	0.05242158
564.47	0.05278497
564.672	0.05308326
564.875	0.05336094
565.077	0.05368295
565.28	0.05399864
565.482	0.05428921
565.684	0.05454081
565.887	0.05482144
566.089	0.05512588
566.291	0.05540676
566.494	0.05574585
566.696	0.05612347
566.898	0.05649467
567.1	0.05686007
567.303	0.05717673
567.505	0.05748647
567.707	0.05779388
567.909	0.05806539
568.111	0.0583354
568.314	0.05864684
568.516	0.05900415
568.718	0.0593438
568.92	0.05971699
569.122	0.06010646
569.324	0.06045357
569.526	0.06075511
569.728	0.06105509
569.93	0.06132552
570.132	0.06168541
570.334	0.06199066
570.536	0.06230032
570.738	0.06263026
570.94	0.06298036
571.142	0.0633723
571.344	0.06372534
571.546	0.06407809
571.748	0.06442146
571.95	0.06471892
572.152	0.06510775
572.354	0.06550508
572.555	0.06585723
572.757	0.06626591
572.959	0.0666148
573.161	0.06700928
573.363	0.06743043
573.564	0.0677981
573.766	0.06813962
573.968	0.06851329
574.17	0.06884332
574.371	0.06916014
574.573	0.06946642
574.775	0.06977961
574.976	0.07007407
575.178	0.07038382
575.38	0.07068915
575.581	0.07103713
575.783	0.07143161
575.985	0.07180917
576.186	0.07221004
576.388	0.07263121
576.589	0.07297451
576.791	0.07339525
576.992	0.07377407
577.194	0.07412205
577.395	0.07448123
577.597	0.0749046
577.798	0.07525534
578	0.07568145
578.201	0.07606532
578.402	0.07638234
578.604	0.07672108
578.805	0.07711125
579.007	0.07741597
579.208	0.07777852
579.409	0.07812343
579.611	0.07846892
579.812	0.07894178
580.013	0.07939159
580.215	0.07968264
580.416	0.08003974
580.617	0.08041266
580.818	0.08080246
581.019	0.0811608
581.221	0.08151515
581.422	0.0818645
581.623	0.08231743
581.824	0.08269313
582.025	0.08305519
582.226	0.0834593
582.428	0.08389243
582.629	0.08422915
582.83	0.08462655
583.031	0.08499416
583.232	0.08538948
583.433	0.08579941
583.634	0.08616025
583.835	0.08649255
584.036	0.08688462
584.237	0.08723532
584.438	0.08762416
584.639	0.08800279
584.84	0.08843682
585.041	0.08881335
585.242	0.08923101
585.442	0.08963963
585.643	0.0900751
585.844	0.09050384
586.045	0.09090688
586.246	0.09119609
586.447	0.09160235
586.647	0.09195866
586.848	0.09230449
587.049	0.09267245
587.25	0.09303507
587.45	0.09345354
587.651	0.09389724
587.852	0.09423833
588.053	0.09470267
588.253	0.09513788
588.454	0.09551139
588.655	0.09587416
588.855	0.09624578
589.056	0.09666317
589.256	0.09714912
589.457	0.09752725
589.658	0.09794681
589.858	0.09840893
590.059	0.09887284
590.259	0.09935058
590.46	0.09971764
590.66	0.10010406
590.861	0.1004982
591.061	0.10085112
591.262	0.10123035
591.462	0.10162448
591.662	0.1019711
591.863	0.10238269
592.063	0.10278047
592.264	0.10323925
592.464	0.10364708
592.664	0.10401754
592.865	0.10447784
593.065	0.10486119
593.265	0.10529665
593.465	0.10566513
593.666	0.10596719
593.866	0.10638447
594.066	0.10683705
594.266	0.10712664
594.467	0.10752794
594.667	0.10789578
594.867	0.10836441
595.067	0.1087603
595.267	0.10911287
595.467	0.10946766
595.668	0.10990383
595.868	0.11033469
596.068	0.11072143
596.268	0.11101881
596.468	0.11144895
596.668	0.11187685
596.868	0.11233032
597.068	0.11268291
597.268	0.11307343
597.468	0.11343729
597.668	0.11385689
597.868	0.11419424
598.068	0.11459276
598.268	0.11488597
598.467	0.11534748
598.667	0.11565779
598.867	0.11606152
599.067	0.1165049
599.267	0.11692899
599.467	0.11727409
599.667	0.11769818
599.866	0.11806989
600.066	0.11847806
600.266	0.11884158
600.466	0.11920678
600.665	0.11955656
600.865	0.1199994
601.065	0.12039033
601.264	0.12071232
601.464	0.12109532
601.664	0.12159612
601.863	0.1219458
602.063	0.12233899
602.263	0.12265738
602.462	0.12304142
602.662	0.12345911
602.861	0.12386761
603.061	0.12416448
603.26	0.1245592
603.46	0.12491306
603.659	0.12532472
603.859	0.12560221
604.058	0.12590833
604.258	0.12630737
604.457	0.12672422
604.657	0.12703182
604.856	0.12734154
605.056	0.12770798
605.255	0.12809309
605.454	0.12849131
605.654	0.12877595
605.853	0.12911296
606.052	0.12952051
606.252	0.1299763
606.451	0.13036232
606.65	0.13079831
606.849	0.13110173
607.049	0.13150601
607.248	0.13182361
607.447	0.1321774
607.646	0.13254841
607.845	0.13291815
608.045	0.1331787
608.244	0.13366932
608.443	0.13406863
608.642	0.13453095
608.841	0.13485725
609.04	0.13511847
609.239	0.13544029
609.438	0.13577845
609.637	0.13613395
609.836	0.13645856
610.035	0.13671
610.234	0.13715769
610.433	0.13756414
610.632	0.13794281
610.831	0.13844294
611.03	0.13871967
611.229	0.13911067
611.428	0.13951151
611.627	0.13978081
611.826	0.14018177
612.025	0.14058443
612.224	0.14083129
612.422	0.14123711
612.621	0.14160993
612.82	0.14196728
613.019	0.14239496
613.218	0.14277487
613.416	0.1430304
613.615	0.14347586
613.814	0.14385174
614.012	0.14413135
614.211	0.14436604
614.41	0.14472745
614.608	0.14502763
614.807	0.1454172
615.006	0.14583876
615.204	0.14615172
615.403	0.14657321
615.602	0.14704136
615.8	0.14746531
615.999	0.14773896
616.197	0.14805778
616.396	0.14839015
616.594	0.14871573
616.793	0.14908601
616.991	0.14937173
617.19	0.14950354
617.388	0.14999029
617.586	0.15036538
617.785	0.15060341
617.983	0.15093407
618.182	0.15114483
618.38	0.15142202
618.578	0.1518299
618.777	0.15212019
618.975	0.15246977
619.173	0.15283605
619.372	0.1531812
619.57	0.15351532
619.768	0.15394528
619.966	0.15432825
620.165	0.15458946
620.363	0.15497962
620.561	0.15524491
620.759	0.15560736
620.957	0.15605728
621.155	0.15644734
621.354	0.15671131
621.552	0.15714855
621.75	0.15741358
621.948	0.15782713
622.146	0.15814546
622.344	0.15841307
622.542	0.15873261
622.74	0.1591312
622.938	0.15935769
623.136	0.1596828
623.334	0.16004115
623.532	0.16022117
623.73	0.1605088
623.928	0.16082636
624.126	0.1611202
624.324	0.16153204
624.522	0.16177557
624.719	0.16202286
624.917	0.16251329
625.115	0.16281212
625.313	0.16313322
625.511	0.16347759
625.708	0.1636508
625.906	0.16400943
626.104	0.16431022
626.302	0.16465799
626.499	0.16499856
626.697	0.16528099
626.895	0.16546774
627.093	0.16583999
627.29	0.16619806
627.488	0.16654986
627.686	0.1668308
627.883	0.16713352
628.081	0.16733279
628.278	0.16793375
628.476	0.16820955
628.673	0.16853584
628.871	0.16883023
629.068	0.16907229
629.266	0.16941377
629.463	0.16967889
629.661	0.16981917
629.858	0.17008068
630.056	0.17028942
630.253	0.17051674
630.451	0.17083398
630.648	0.17111172
630.845	0.1714644
631.043	0.17171252
631.24	0.17211654
631.438	0.17249564
631.635	0.17286305
631.832	0.17305557
632.029	0.17333506
632.227	0.17371244
632.424	0.17408387
632.621	0.17433199
632.818	0.17451727
633.016	0.17478573
633.213	0.1751285
633.41	0.17547808
633.607	0.17567966
633.804	0.17592041
634.001	0.17616953
634.199	0.17651584
634.396	0.17682311
634.593	0.17700323
634.79	0.17723567
634.987	0.17759406
635.184	0.17785371
635.381	0.17820076
635.578	0.17854544
635.775	0.17877234
635.972	0.1791777
636.169	0.17947232
636.366	0.17967845
636.563	0.17993206
636.76	0.18007934
636.957	0.18031483
637.153	0.18055956
637.35	0.18081589
637.547	0.18109018
637.744	0.18138124
637.941	0.18168459
638.138	0.18213432
638.334	0.18234976
638.531	0.18273433
638.728	0.1830494
638.925	0.18342145
639.121	0.18367217
639.318	0.18392445
639.515	0.18405555
639.711	0.18441848
639.908	0.18452497
640.105	0.18476871
640.301	0.18491462
640.498	0.18520024
640.695	0.18551629
640.891	0.18580515
641.088	0.18603486
641.284	0.18639751
641.481	0.18666304
641.677	0.18694565
641.874	0.18719256
642.07	0.18750466
642.267	0.18786603
642.463	0.18806518
642.66	0.18838178
642.856	0.18856985
643.053	0.1886927
643.249	0.18895671
643.445	0.18908583
643.642	0.18928593
643.838	0.18958951
644.034	0.18976636
644.231	0.19005511
644.427	0.19047136
644.623	0.19078075
644.82	0.19113806
645.016	0.19134932
645.212	0.19152305
645.408	0.19180591
645.604	0.19215974
645.801	0.19247535
645.997	0.19273744
646.193	0.19293383
646.389	0.1933172
646.585	0.19369662
646.781	0.19409443
646.977	0.19433486
647.173	0.19455492
647.37	0.19476253
647.566	0.19504067
647.762	0.19521476
647.958	0.19549399
648.154	0.19559412
648.35	0.19584059
648.546	0.19607203
648.742	0.19644653
648.937	0.19657912
649.133	0.19692649
649.329	0.19722324
649.525	0.19752487
649.721	0.19781384
649.917	0.19813806
650.113	0.19826718
650.309	0.19869872
650.504	0.19882022
650.7	0.19896854
650.896	0.19927862
651.092	0.19944443
651.287	0.1996303
651.483	0.19998388
651.679	0.20016688
651.875	0.2005408
652.07	0.20077728
652.266	0.20099966
652.462	0.20131934
652.657	0.20154947
652.853	0.20174152
653.048	0.20204093
653.244	0.20216987
653.44	0.20248003
653.635	0.2026701
653.831	0.20296753
654.026	0.20329688
654.222	0.20354082
654.417	0.20387934
654.613	0.20422039
654.808	0.20447187
655.004	0.20480134
655.199	0.2050089
655.394	0.20525082
655.59	0.20561188
655.785	0.20579167
655.98	0.20610491
656.176	0.20632487
656.371	0.20666158
656.566	0.20698161
656.762	0.20716359
656.957	0.20740299
657.152	0.20761619
657.348	0.20782839
657.543	0.20810227
657.738	0.20834916
657.933	0.20848373
658.128	0.20875498
658.324	0.20889319
658.519	0.20918129
658.714	0.20945492
658.909	0.20968653
659.104	0.20988653
659.299	0.21026545
659.494	0.21054453
659.689	0.21095623
659.884	0.21122176
660.079	0.21144763
660.274	0.21169157
660.469	0.21200302
660.664	0.21231863
660.859	0.21258948
661.054	0.21281121
661.249	0.21312228
661.444	0.21339093
661.639	0.21367075
661.834	0.21385654
662.029	0.21404968
662.224	0.21436459
662.418	0.21463326
662.613	0.21486263
662.808	0.2150992
663.003	0.21538796
663.198	0.21565529
663.392	0.21588907
663.587	0.21619255
663.782	0.21632663
663.977	0.21652631
664.171	0.21689019
664.366	0.21725741
664.561	0.21760748
664.755	0.21795833
664.95	0.21813766
665.144	0.21850076
665.339	0.21887727
665.534	0.21916067
665.728	0.21948514
665.923	0.21980072
666.117	0.22000244
666.312	0.22025541
666.506	0.22061925
666.701	0.22080384
666.895	0.22103104
667.09	0.22116977
667.284	0.22143638
667.479	0.22170037
667.673	0.2220039
667.867	0.22229402
668.062	0.22255954
668.256	0.2228362
668.45	0.22320975
668.645	0.2233935
668.839	0.22370202
669.033	0.22400392
669.228	0.22423388
669.422	0.22464672
669.616	0.22495347
669.81	0.22526075
670.004	0.22553697
670.199	0.22583511
670.393	0.22608417
670.587	0.22636219
670.781	0.22655231
670.975	0.22688615
671.169	0.22704667
671.363	0.22733108
671.558	0.22759389
671.752	0.22794705
671.946	0.22828223
672.14	0.22864304
672.334	0.22884393
672.528	0.22925424
672.722	0.22948272
672.916	0.22975625
673.11	0.22993515
673.304	0.23027519
673.497	0.23048206
673.691	0.23085073
673.885	0.23099881
674.079	0.23141867
674.273	0.23168689
674.467	0.232096
674.661	0.23229925
674.854	0.23264034
675.048	0.23291174
675.242	0.23329139
675.436	0.23356942
675.629	0.23393156
675.823	0.23412903
676.017	0.23446907
676.211	0.23472178
676.404	0.23500986
676.598	0.23528616
676.792	0.23554688
676.985	0.23590952
677.179	0.23628768
677.372	0.23652934
677.566	0.23697702
677.76	0.23731293
677.953	0.23764805
678.147	0.23802194
678.34	0.23833365
678.534	0.23859305
678.727	0.23895373
678.921	0.23923991
679.114	0.23946771
679.307	0.23983409
679.501	0.24016403
679.694	0.24040855
679.888	0.24074294
680.081	0.24109089
680.274	0.24132265
680.468	0.24171947
680.661	0.24205645
680.854	0.24248495
681.048	0.24287279
681.241	0.24325901
681.434	0.24354318
681.627	0.24390826
681.821	0.24421705
682.014	0.24455607
682.207	0.24469984
682.4	0.24498203
682.593	0.24531198
682.786	0.24558994
682.98	0.24591336
683.173	0.2462758
683.366	0.24653957
683.559	0.24690418
683.752	0.24728764
683.945	0.24762379
684.138	0.24802341
684.331	0.24831217
684.524	0.24873462
684.717	0.24903179
684.91	0.24944304
685.103	0.24967612
685.296	0.25000835
685.489	0.25039919
685.682	0.25074687
685.874	0.25103862
686.067	0.25133767
686.26	0.25156852
686.453	0.25190564
686.646	0.25215621
686.839	0.25243065
687.031	0.25276863
687.224	0.25293111
687.417	0.2533433
687.61	0.25368087
687.802	0.25408816
687.995	0.25450779
688.188	0.25490024
688.38	0.25530551
688.573	0.25580499
688.766	0.25614839
688.958	0.25650655
689.151	0.25678687
689.343	0.25713146
689.536	0.25742928
689.729	0.25771383
689.921	0.25802873
690.114	0.25828274
690.306	0.25862656
690.499	0.25900458
690.691	0.2593904
690.884	0.25972531
691.076	0.26015439
691.268	0.26044975
691.461	0.26080413
691.653	0.26120673
691.846	0.26158398
692.038	0.26186901
692.23	0.26213266
692.423	0.26244365
692.615	0.26284452
692.807	0.26323614
692.999	0.2635398
693.192	0.2638059
693.384	0.26421332
693.576	0.26459733
693.768	0.26494793
693.961	0.26523673
694.153	0.26559508
694.345	0.2659497
694.537	0.26637283
694.729	0.26666369
694.921	0.26700165
695.113	0.26738072
695.305	0.26773422
695.498	0.26799612
695.69	0.26839636
695.882	0.2687128
696.074	0.26910985
696.266	0.26948136
696.458	0.2697409
696.65	0.27016438
696.842	0.27062854
697.033	0.27092362
697.225	0.27128617
697.417	0.27163858
697.609	0.27197493
697.801	0.27233026
697.993	0.27267964
698.185	0.27299609
698.376	0.27337779
698.568	0.27366813
698.76	0.27399674
698.952	0.27436923
699.144	0.27474383
699.335	0.27507307
699.527	0.27539888
699.719	0.27577264
699.91	0.27626964
700.102	0.27658912
700.294	0.27696838
700.485	0.2773753
700.677	0.27773899
700.869	0.278207
701.06	0.27865804
701.252	0.2788969
701.443	0.27934272
701.635	0.27976825
701.826	0.28019395
702.018	0.28057435
702.209	0.2809718
702.401	0.28117378
702.592	0.28166664
702.784	0.28197412
702.975	0.28229175
703.166	0.28262596
703.358	0.28297079
703.549	0.28331888
703.741	0.28380307
703.932	0.2841484
704.123	0.28457605
704.315	0.28498772
704.506	0.28539953
704.697	0.2857666
704.888	0.28619459
705.08	0.28653718
705.271	0.28689066
705.462	0.28713945
705.653	0.28756176
705.844	0.28785629
706.035	0.28827941
706.227	0.2885027
706.418	0.2888621
706.609	0.28919635
706.8	0.28971389
706.991	0.28997688
707.182	0.29032546
707.373	0.29061678
707.564	0.29104012
707.755	0.29135736
707.946	0.29170209
708.137	0.2919612
708.328	0.29228695
708.519	0.29263209
708.71	0.29300859
708.901	0.29326868
709.092	0.29363453
709.283	0.29396723
709.473	0.29434291
709.664	0.2947911
709.855	0.29516117
710.046	0.29557049
710.237	0.29599802
710.427	0.29642221
710.618	0.29692684
710.809	0.29733907
711	0.2977456
711.19	0.29807016
711.381	0.29845002
711.572	0.29882613
711.762	0.29919206
711.953	0.29946504
712.144	0.29981835
712.334	0.30008489
712.525	0.30060299
712.715	0.30095696
712.906	0.30132126
713.097	0.30165999
713.287	0.30204525
713.478	0.30246958
713.668	0.30290625
713.859	0.30324674
714.049	0.30359792
714.239	0.30404596
714.43	0.30439546
714.62	0.30471335
714.811	0.30500921
715.001	0.30536012
715.191	0.30566547
715.382	0.30600462
715.572	0.30641389
715.762	0.30677052
715.953	0.30721336
716.143	0.30764104
716.333	0.30798411
716.523	0.3083663
716.714	0.30879905
716.904	0.30906301
717.094	0.30951878
717.284	0.30982474
717.474	0.31012153
717.664	0.31049017
717.855	0.31085081
718.045	0.31112441
718.235	0.31146635
718.425	0.31185414
718.615	0.31230586
718.805	0.31285001
718.995	0.31326604
719.185	0.31369433
719.375	0.31418035
719.565	0.31468094
719.755	0.31496181
719.945	0.31528606
720.135	0.31558902
720.325	0.31599351
720.515	0.31636261
720.704	0.31669274
720.894	0.31695179
721.084	0.31733769
721.274	0.31771959
721.464	0.31799603
721.654	0.31828373
721.843	0.31856154
722.033	0.31893686
722.223	0.31927446
722.413	0.31968939
722.602	0.31999795
722.792	0.32046633
722.982	0.32086077
723.171	0.3212631
723.361	0.32159943
723.55	0.3220527
723.74	0.32238687
723.93	0.32279789
724.119	0.32308111
724.309	0.32344314
724.498	0.32377825
724.688	0.32412623
724.877	0.32444998
725.067	0.32475987
725.256	0.32513889
725.446	0.32553621
725.635	0.32580065
725.825	0.32610174
726.014	0.32643866
726.203	0.32669114
726.393	0.32691211
726.582	0.32717657
726.771	0.32739108
726.961	0.32761971
727.15	0.32789635
727.339	0.32810978
727.529	0.32845263
727.718	0.3288225
727.907	0.32900017
728.096	0.32926389
728.286	0.32961227
728.475	0.33000828
728.664	0.33032491
728.853	0.33061715
729.042	0.33084335
729.231	0.3312628
729.42	0.33152831
729.609	0.33178862
729.799	0.33192047
729.988	0.33217507
730.177	0.33228671
730.366	0.33259692
730.555	0.33276679
730.744	0.33304879
730.933	0.3333617
731.122	0.33374931
731.31	0.33404601
731.499	0.33443493
731.688	0.33473293
731.877	0.33502985
732.066	0.3353251
732.255	0.33560454
732.444	0.33581153
732.632	0.33606633
732.821	0.33631683
733.01	0.336605
733.199	0.33678051
733.388	0.33695177
733.576	0.33715847
733.765	0.33739863
733.954	0.33762862
734.142	0.33782064
734.331	0.33802676
734.52	0.33838047
734.708	0.33874637
734.897	0.33906775
735.086	0.33930262
735.274	0.33954211
735.463	0.33981844
735.651	0.34004028
735.84	0.34021147
736.028	0.34041513
736.217	0.34060546
736.405	0.34084608
736.594	0.34103854
736.782	0.3412967
736.971	0.34150988
737.159	0.34173004
737.347	0.34190415
737.536	0.34205344
737.724	0.34232556
737.912	0.34257906
738.101	0.34271031
738.289	0.34295003
738.477	0.34316574
738.666	0.34338315
738.854	0.34370129
739.042	0.34389611
739.23	0.34410407
739.418	0.34440067
739.607	0.34457392
739.795	0.34482927
739.983	0.3451233
740.171	0.34528346
740.359	0.3454676
740.547	0.34567413
740.735	0.34586088
740.923	0.34615304
741.112	0.34636671
741.3	0.34649541
741.488	0.34672392
741.676	0.34701815
741.864	0.34723119
742.052	0.34748751
742.239	0.34763206
742.427	0.34779019
742.615	0.34798841
742.803	0.34813965
742.991	0.34816533
743.179	0.34839778
743.367	0.34856445
743.555	0.34878685
743.742	0.34912847
743.93	0.34940303
744.118	0.34961633
744.306	0.34993209
744.494	0.3500139
744.681	0.35019437
744.869	0.35033218
745.057	0.35043924
745.244	0.35054867
745.432	0.35074612
745.62	0.35085982
745.807	0.351134
745.995	0.3512682
746.182	0.35147159
746.37	0.35161999
746.558	0.35186495
746.745	0.35201139
746.933	0.35220773
747.12	0.3524116
747.308	0.3526852
747.495	0.35284589
747.683	0.3529552
747.87	0.3529589
748.057	0.3531319
748.245	0.3532664
748.432	0.35333943
748.62	0.35336224
748.807	0.35348807
748.994	0.35365641
749.182	0.35386558
749.369	0.35396077
749.556	0.35419886
749.743	0.35434153
749.931	0.35459935
750.118	0.35481201
750.305	0.35494108
750.492	0.35509919
750.68	0.35528622
750.867	0.3553539
751.054	0.35551342
751.241	0.35555531
751.428	0.35567184
751.615	0.35581992
751.802	0.35601437
751.989	0.35614383
752.176	0.35631545
752.363	0.35649701
752.55	0.35669451
752.737	0.35682537
752.924	0.3569529
753.111	0.35701734
753.298	0.35716392
753.485	0.35716393
753.672	0.35716477
753.859	0.357232
754.046	0.35731107
754.233	0.35740133
754.42	0.35759363
754.606	0.35760922
754.793	0.35772949
754.98	0.35785802
755.167	0.35786802
755.353	0.35794934
755.54	0.35802384
755.727	0.35803687
755.914	0.35818243
756.1	0.35839274
756.287	0.3585196
756.474	0.35864679
756.66	0.35875271
756.847	0.35888452
757.033	0.35887116
757.22	0.35891804
757.407	0.35895666
757.593	0.35910561
757.78	0.3591838
757.966	0.35929597
758.153	0.35935225
758.339	0.35945847
758.526	0.35946385
758.712	0.35936368
758.898	0.35935571
759.085	0.35933147
759.271	0.35922732
759.458	0.35924428
759.644	0.35929624
759.83	0.3593522
760.017	0.35953146
760.203	0.35955669
760.389	0.3597278
760.576	0.35986886
760.762	0.35988005
760.948	0.35984883
761.134	0.35990792
761.32	0.35983112
761.507	0.35980417
761.693	0.3598122
761.879	0.35978943
762.065	0.359837
762.251	0.35987102
762.437	0.35989341
762.623	0.35994228
762.809	0.35997589
762.995	0.35998136
763.181	0.360027
763.367	0.36008262
763.553	0.36019197
763.739	0.36024652
763.925	0.36031467
764.111	0.36037554
764.297	0.36041677
764.483	0.36042324
764.669	0.36041999
764.855	0.36041016
765.041	0.36035491
765.227	0.36027894
765.412	0.36026918
765.598	0.36015702
765.784	0.36010853
765.97	0.36015244
766.156	0.3601353
766.341	0.36013991
766.527	0.36016357
766.713	0.36015074
766.898	0.3601901
767.084	0.36022408
767.27	0.36006129
767.455	0.3599782
767.641	0.36000036
767.827	0.35998935
768.012	0.35991725
768.198	0.3598797
768.383	0.35981771
768.569	0.35989114
768.754	0.35992227
768.94	0.35979298
769.125	0.35974362
769.311	0.35967319
769.496	0.35958286
769.682	0.35952638
769.867	0.35944906
770.052	0.35940152
770.238	0.35933435
770.423	0.35925508
770.608	0.35924306
770.794	0.35923005
770.979	0.3590697
771.164	0.35892572
771.35	0.35880041
771.535	0.35880909
771.72	0.35869799
771.905	0.35868231
772.09	0.35863148
772.276	0.35873911
772.461	0.35873753
772.646	0.35871955
772.831	0.35860763
773.016	0.35858586
773.201	0.35841355
773.386	0.35836028
773.571	0.35815519
773.756	0.35805011
773.941	0.35786253
774.126	0.35779697
774.311	0.35764767
774.496	0.35756252
774.681	0.35742087
774.866	0.35736535
775.051	0.35717553
775.236	0.35711222
775.421	0.35688468
775.606	0.35675273
775.791	0.35656769
775.976	0.3564386
776.16	0.35625678
776.345	0.35619384
776.53	0.35615892
776.715	0.35613987
776.899	0.35603078
777.084	0.35590235
777.269	0.35573969
777.454	0.35554387
777.638	0.35534148
777.823	0.35508777
778.008	0.35488657
778.192	0.35480217
778.377	0.35472677
778.561	0.35468827
778.746	0.35461733
778.931	0.3545942
779.115	0.35459755
779.3	0.35456592
779.484	0.35440645
779.669	0.35419041
779.853	0.35392789
780.037	0.35375
780.222	0.3535159
780.406	0.35317153
780.591	0.35299504
780.775	0.3527463
780.959	0.35261704
781.144	0.35247233
781.328	0.35226916
781.512	0.35204009
781.697	0.35187603
781.881	0.35162268
782.065	0.35156107
782.249	0.35141845
782.434	0.35122626
782.618	0.35115179
782.802	0.35114667
782.986	0.35104648
783.17	0.35082087
783.354	0.35056631
783.539	0.3503262
783.723	0.35007456
783.907	0.34989041
784.091	0.34959575
784.275	0.34941121
784.459	0.34922625
784.643	0.34908791
784.827	0.34881636
785.011	0.34863432
785.195	0.34835949
785.379	0.34816499
785.563	0.34787798
785.747	0.34768491
785.93	0.34753571
786.114	0.34735648
786.298	0.34714057
786.482	0.34682412
786.666	0.34655203
786.85	0.34635694
787.033	0.34616299
787.217	0.34584177
787.401	0.34569431
787.585	0.34552071
787.768	0.34539107
787.952	0.34516413
788.136	0.34495786
788.319	0.34471496
788.503	0.34433374
788.687	0.34403666
788.87	0.34372896
789.054	0.3434
789.237	0.34314009
789.421	0.34283354
789.605	0.34254542
789.788	0.34234037
789.972	0.34204924
790.155	0.34176577
790.338	0.34147472
790.522	0.34119464
790.705	0.34085326
790.889	0.34048295
791.072	0.34028595
791.256	0.34007049
791.439	0.33987773
791.622	0.33969286
791.806	0.33958821
791.989	0.33936784
792.172	0.33928988
792.355	0.33906006
792.539	0.33881885
792.722	0.33849906
792.905	0.33826035
793.088	0.33783544
793.271	0.33763434
793.455	0.33729092
793.638	0.33703419
793.821	0.33678416
794.004	0.33653584
794.187	0.33628402
794.37	0.33604847
794.553	0.3357832
794.736	0.33547662
794.919	0.33509159
795.102	0.33473372
795.285	0.33441196
795.468	0.33403542
795.651	0.33368076
795.834	0.33341113
796.017	0.33317124
796.2	0.33289475
796.383	0.33261989
796.566	0.3323646
796.749	0.33212865
796.931	0.33185006
797.114	0.33149149
797.297	0.33108247
797.48	0.33070232
797.663	0.33029599
797.845	0.32993342
798.028	0.32957776
798.211	0.32923918
798.393	0.32881484
798.576	0.32857707
798.759	0.32824944
798.941	0.32801187
799.124	0.32773495
799.307	0.32740828
799.489	0.32711699
799.672	0.32687197
799.854	0.32647685
800.037	0.32608519
800.219	0.32564081
800.402	0.32520273
800.584	0.32482621
800.767	0.32445104
800.949	0.3240879
801.132	0.32378225
801.314	0.32356231
801.496	0.32332803
801.679	0.32303837
801.861	0.32274409
802.043	0.32241026
802.226	0.32216432
802.408	0.32184792
802.59	0.32152204
802.772	0.3211867
802.955	0.32092597
803.137	0.32058254
803.319	0.32020874
803.501	0.31971468
803.684	0.31930589
803.866	0.31887734
804.048	0.31852439
804.23	0.31807947
804.412	0.31772331
804.594	0.31734767
804.776	0.31706767
804.958	0.31670389
805.14	0.31644019
805.322	0.31608724
805.504	0.31577758
805.686	0.31539774
805.868	0.31506263
806.05	0.31467307
806.232	0.31430311
806.414	0.31388129
806.596	0.31343331
806.778	0.3129771
806.96	0.31269259
807.141	0.31231648
807.323	0.31196294
807.505	0.31155379
807.687	0.3111872
807.869	0.3108587
808.05	0.31051762
808.232	0.31000436
808.414	0.30964028
808.595	0.30920791
808.777	0.30882132
808.959	0.3084834
809.14	0.30813217
809.322	0.3078462
809.504	0.30748738
809.685	0.30715047
809.867	0.30680961
810.048	0.30646639
810.23	0.30598731
810.411	0.3055719
810.593	0.30510303
810.774	0.30470747
810.956	0.30429033
811.137	0.30380461
811.319	0.30338562
811.5	0.30298302
811.681	0.30240357
811.863	0.30190519
812.044	0.30143401
812.225	0.30097737
812.407	0.30053023
812.588	0.30009608
812.769	0.29966282
812.951	0.29934543
813.132	0.29893219
813.313	0.29863495
813.494	0.29822755
813.675	0.29784273
813.857	0.29738202
814.038	0.29699404
814.219	0.29659548
814.4	0.29621794
814.581	0.29583255
814.762	0.29539291
814.943	0.2950099
815.124	0.29453508
815.305	0.29401267
815.486	0.29360843
815.667	0.29315684
815.848	0.29254727
816.029	0.29207209
816.21	0.29160693
816.391	0.29128266
816.572	0.29092607
816.753	0.29049525
816.934	0.29006656
817.115	0.28968477
817.295	0.28934679
817.476	0.28890583
817.657	0.28853341
817.838	0.28817578
818.019	0.28764213
818.199	0.2871658
818.38	0.28671211
818.561	0.286241
818.741	0.2858458
818.922	0.28527774
819.103	0.28481928
819.283	0.28445951
819.464	0.28410886
819.645	0.28370906
819.825	0.2832735
820.006	0.28279784
820.186	0.28234371
820.367	0.28186787
820.547	0.28137809
820.728	0.28082721
820.908	0.28037163
821.089	0.27994271
821.269	0.27944014
821.45	0.27904712
821.63	0.27849544
821.81	0.27804495
821.991	0.27757901
822.171	0.27715402
822.351	0.27662495
822.532	0.27618043
822.712	0.27570781
822.892	0.27535829
823.072	0.27492026
823.253	0.27451851
823.433	0.27403647
823.613	0.27361894
823.793	0.27318439
823.973	0.27282143
824.154	0.27239981
824.334	0.27201811
824.514	0.27154929
824.694	0.27110128
824.874	0.2705005
825.054	0.27000754
825.234	0.26940099
825.414	0.26882215
825.594	0.26821286
825.774	0.26776195
825.954	0.26719389
826.134	0.26680527
826.314	0.26631289
826.494	0.26583797
826.674	0.26524558
826.854	0.2646709
827.033	0.26399637
827.213	0.26357852
827.393	0.26302549
827.573	0.26254167
827.753	0.26204004
827.932	0.26174222
828.112	0.26145401
828.292	0.2611956
828.472	0.26075667
828.651	0.26043868
828.831	0.26000977
829.011	0.25971516
829.19	0.25916658
829.37	0.25866365
829.549	0.25813414
829.729	0.25753463
829.909	0.25700512
830.088	0.25650156
830.268	0.25584461
830.447	0.25538952
830.627	0.2548682
830.806	0.25443292
830.986	0.25406328
831.165	0.25363083
831.344	0.25327087
831.524	0.25281171
831.703	0.25235949
831.883	0.2518468
832.062	0.25132179
832.241	0.25080969
832.421	0.25019393
832.6	0.24956129
832.779	0.24906906
832.958	0.24855002
833.138	0.24802036
833.317	0.24755058
833.496	0.24706873
833.675	0.24664899
833.854	0.24625573
834.034	0.24580809
834.213	0.24532955
834.392	0.24497938
834.571	0.24442141
834.75	0.24400019
834.929	0.24346411
835.108	0.2429086
835.287	0.24251008
835.466	0.24193066
835.645	0.24133427
835.824	0.24081815
836.003	0.24023567
836.182	0.23978168
836.361	0.23932941
836.54	0.23881567
836.719	0.23844697
836.897	0.23796683
837.076	0.23752504
837.255	0.23699282
837.434	0.23648809
837.613	0.23601171
837.791	0.23544884
837.97	0.23496123
838.149	0.23445351
838.328	0.23392777
838.506	0.23349473
838.685	0.23308268
838.864	0.23262221
839.042	0.23210622
839.221	0.23160871
839.4	0.23113673
839.578	0.2306934
839.757	0.23014733
839.935	0.22955242
840.114	0.22897354
840.292	0.22850433
840.471	0.22806788
840.649	0.22764418
840.828	0.22727828
841.006	0.22687569
841.185	0.22636838
841.363	0.22596997
841.541	0.22552784
841.72	0.22499928
841.898	0.22445095
842.076	0.22384233
842.255	0.22337296
842.433	0.22288879
842.611	0.22240999
842.789	0.22190471
842.968	0.22141338
843.146	0.22100485
843.324	0.22054107
843.502	0.21996866
843.68	0.21950479
843.859	0.21902755
844.037	0.21860453
844.215	0.21815167
844.393	0.2176326
844.571	0.21708501
844.749	0.21670004
844.927	0.21620085
845.105	0.21559042
845.283	0.2149682
845.461	0.21445351
845.639	0.21394685
845.817	0.21355752
845.995	0.21306593
846.173	0.2126452
846.351	0.21222687
846.529	0.21191915
846.706	0.21144843
846.884	0.21099662
847.062	0.21045604
847.24	0.2099619
847.418	0.20953459
847.595	0.20909548
847.773	0.20847088
847.951	0.20796906
848.129	0.20745704
848.306	0.20702194
848.484	0.20648856
848.662	0.20597099
848.839	0.20551221
849.017	0.20514167
849.194	0.20462139
849.372	0.20412015
849.549	0.20353927
849.727	0.20300451
849.905	0.20242765
850.082	0.20179353
850.26	0.20127882
850.437	0.20077753
850.614	0.200392
850.792	0.19999225
850.969	0.19963985
851.147	0.19932006
851.324	0.19894227
851.501	0.19846774
851.679	0.19802157
851.856	0.19746502
852.033	0.19711838
852.211	0.19663123
852.388	0.19602734
852.565	0.19552607
852.742	0.19503579
852.92	0.19451575
853.097	0.1940636
853.274	0.19341961
853.451	0.19286278
853.628	0.19240844
853.805	0.19196775
853.982	0.19153233
854.159	0.19110036
854.336	0.19057509
854.514	0.19004566
854.691	0.18960526
854.868	0.18913835
855.045	0.18864359
855.221	0.18814696
855.398	0.18760135
855.575	0.18714286
855.752	0.18678026
855.929	0.18641007
856.106	0.18592951
856.283	0.18550687
856.46	0.18503547
856.637	0.18472422
856.813	0.18436943
856.99	0.18381101
857.167	0.18329168
857.344	0.1828166
857.52	0.18233191
857.697	0.18173249
857.874	0.18111712
858.05	0.18045721
858.227	0.18007775
858.404	0.17960653
858.58	0.17924233
858.757	0.17878501
858.933	0.17839275
859.11	0.17796842
859.287	0.17762277
859.463	0.17702811
859.64	0.17646085
859.816	0.17578635
859.993	0.17520045
860.169	0.17470461
860.345	0.17418322
860.522	0.17369058
860.698	0.17333126
860.875	0.17296887
861.051	0.17257582
861.227	0.17211992
861.404	0.1717042
861.58	0.17138736
861.756	0.17092713
861.932	0.17042633
862.109	0.16985846
862.285	0.16943114
862.461	0.16908095
862.637	0.16861358
862.813	0.16810666
862.99	0.16763008
863.166	0.16718988
863.342	0.16687807
863.518	0.16637972
863.694	0.16589513
863.87	0.16536592
864.046	0.16494074
864.222	0.16460097
864.398	0.16418846
864.574	0.16358852
864.75	0.16310042
864.926	0.16256997
865.102	0.16213865
865.278	0.16153996
865.454	0.16095818
865.63	0.1604282
865.805	0.16006218
865.981	0.15964661
866.157	0.15923828
866.333	0.15874443
866.509	0.15838332
866.684	0.15797414
866.86	0.15756584
867.036	0.15710501
867.212	0.15673459
867.387	0.15645779
867.563	0.15610569
867.739	0.15569908
867.914	0.15531548
868.09	0.1549588
868.265	0.15454381
868.441	0.1541318
868.617	0.15356314
868.792	0.15317041
868.968	0.15269445
869.143	0.15218803
869.319	0.15166925
869.494	0.15122646
869.67	0.15076595
869.845	0.15041491
870.02	0.15009587
870.196	0.14974473
870.371	0.14940283
870.546	0.14900151
870.722	0.14859899
870.897	0.14806877
871.072	0.14760247
871.248	0.14697061
871.423	0.14653403
871.598	0.14612189
871.773	0.14575304
871.949	0.14538644
872.124	0.14508683
872.299	0.14467689
872.474	0.1444185
872.649	0.14398397
872.824	0.14350443
872.999	0.14292443
873.174	0.14233862
873.349	0.14193532
873.524	0.1415236
873.699	0.14096583
873.874	0.14054354
874.049	0.14009734
874.224	0.13973917
874.399	0.1394814
874.574	0.13907192
874.749	0.1386716
874.924	0.13823338
875.099	0.1377414
875.274	0.13722786
875.449	0.13675486
875.623	0.13625498
875.798	0.13579133
875.973	0.1353686
876.148	0.13493694
876.322	0.13463648
876.497	0.13431554
876.672	0.13401756
876.846	0.13360041
877.021	0.13310773
877.196	0.13266072
877.37	0.13238455
877.545	0.13193947
877.72	0.13160967
877.894	0.1311241
878.069	0.130713
878.243	0.13024506
878.418	0.12980141
878.592	0.12930551
878.767	0.12880061
878.941	0.12821986
879.116	0.12780494
879.29	0.12737339
879.464	0.1269756
879.639	0.12640339
879.813	0.12609348
879.987	0.12574253
880.162	0.12546023
880.336	0.12515216
880.51	0.12492138
880.685	0.12470201
880.859	0.12457789
881.033	0.12420011
881.207	0.12388435
881.381	0.12349276
881.556	0.12319212
881.73	0.12273461
881.904	0.12246679
882.078	0.12203378
882.252	0.12160763
882.426	0.12116041
882.6	0.1208262
882.774	0.12034372
882.948	0.11990506
883.122	0.11935007
883.296	0.11901148
883.47	0.11873819
883.644	0.11850672
883.818	0.11806554
883.992	0.11783982
884.166	0.11748968
884.34	0.11723323
884.514	0.11690944
884.687	0.11642664
884.861	0.11593365
885.035	0.11570845
885.209	0.11534001
885.382	0.11509265
885.556	0.1146943
885.73	0.11423428
885.904	0.11394971
886.077	0.11357891
886.251	0.11315669
886.425	0.1127374
886.598	0.11230224
886.772	0.11186134
886.945	0.11151363
887.119	0.1111878
887.292	0.11083195
887.466	0.110416
887.64	0.11005663
887.813	0.10966847
887.986	0.10939567
888.16	0.10913602
888.333	0.1087299
888.507	0.10835415
888.68	0.10802027
888.854	0.10775944
889.027	0.107411
889.2	0.10705945
889.374	0.10661609
889.547	0.10625177
889.72	0.10599468
889.893	0.10569758
890.067	0.10517581
890.24	0.1047292
890.413	0.10439393
890.586	0.10412479
890.759	0.10383849
890.933	0.10351635
891.106	0.10316656
891.279	0.10289169
891.452	0.10267844
891.625	0.10234853
891.798	0.10197308
891.971	0.10169756
892.144	0.10133373
892.317	0.10107931
892.49	0.10076643
892.663	0.10038085
892.836	0.10010157
893.009	0.09980263
893.182	0.09934753
893.355	0.09893714
893.527	0.09851671
893.7	0.09819413
893.873	0.09794007
894.046	0.09750659
894.219	0.09713463
894.391	0.09694878
894.564	0.09688728
894.737	0.09660852
894.91	0.09628627
895.082	0.09590954
895.255	0.09557671
895.428	0.09523892
895.6	0.09469384
895.773	0.09410641
895.945	0.0936352
896.118	0.0931381
896.291	0.09282208
896.463	0.09249615
896.636	0.0922331
896.808	0.09202432
896.981	0.09168002
897.153	0.09138281
897.326	0.09115879
897.498	0.09089599
897.67	0.09063929
897.843	0.09030864
898.015	0.09000801
898.187	0.08972944
898.36	0.08945696
898.532	0.08911913
898.704	0.08873501
898.877	0.08831579
899.049	0.08793196
899.221	0.08758591
899.393	0.08738828
899.566	0.08723826
899.738	0.08715403
899.91	0.08697677
900.082	0.08676173
900.254	0.08650853
900.426	0.08625355
900.598	0.08596044
900.77	0.08548072
900.942	0.08499763
901.114	0.08450105
901.286	0.08419884
901.458	0.08391389
901.63	0.08370851
901.802	0.08344193
901.974	0.08329183
902.146	0.08314769
902.318	0.08306609
902.49	0.08284643
902.662	0.08267564
902.834	0.08228946
903.005	0.08204914
903.177	0.08192804
903.349	0.08160782
903.521	0.08128399
903.693	0.08102964
903.864	0.0807282
904.036	0.08047146
904.208	0.0799911
904.379	0.0794769
904.551	0.0791093
904.723	0.07874131
904.894	0.07833201
905.066	0.07800147
905.237	0.07776571
905.409	0.07765167
905.58	0.07746746
905.752	0.07725177
905.923	0.07703906
906.095	0.07679546
906.266	0.07650587
906.438	0.07620313
906.609	0.07590051
906.78	0.07550003
906.952	0.07518339
907.123	0.07477315
907.295	0.07446616
907.466	0.07410835
907.637	0.0738964
907.808	0.07366778
907.98	0.07346011
908.151	0.07319041
908.322	0.07305018
908.493	0.07273525
908.665	0.07250005
908.836	0.07212727
909.007	0.07182825
909.178	0.07158834
909.349	0.07143115
909.52	0.07128238
909.691	0.07105913
909.862	0.07092122
910.033	0.07068995
910.204	0.0703766
910.375	0.07009901
910.546	0.06985964
910.717	0.06963316
910.888	0.0696406
911.059	0.06942295
911.23	0.06913384
911.401	0.06898599
911.572	0.06882134
911.742	0.06858107
911.913	0.0681979
912.084	0.06771434
912.255	0.06730069
912.426	0.06700178
912.596	0.06659135
912.767	0.06621751
912.938	0.06585812
913.108	0.06551841
913.279	0.06524951
913.45	0.06514244
913.62	0.0651019
913.791	0.0650372
913.962	0.06490734
914.132	0.06467949
914.303	0.06457135
914.473	0.06440979
914.644	0.0641284
914.814	0.06375797
914.985	0.06344588
915.155	0.06312901
915.326	0.06294991
915.496	0.06266855
915.666	0.06244199
915.837	0.06220769
916.007	0.06191344
916.177	0.06156986
916.348	0.06134753
916.518	0.06107713
916.688	0.0610183
916.858	0.06075852
917.029	0.06053554
917.199	0.06039767
917.369	0.06036706
917.539	0.06022206
917.709	0.06013759
917.88	0.05991773
918.05	0.05973963
918.22	0.05956264
918.39	0.05929911
918.56	0.05904273
918.73	0.05883714
918.9	0.05848575
919.07	0.05812926
919.24	0.0578392
919.41	0.05762049
919.58	0.0574971
919.75	0.05733326
919.92	0.05710795
920.09	0.05706103
920.26	0.0568327
920.429	0.05674719
920.599	0.05657165
920.769	0.05640035
920.939	0.05616685
921.109	0.05589206
921.278	0.05557323
921.448	0.05547512
921.618	0.05521191
921.787	0.05484415
921.957	0.05469138
922.127	0.05446042
922.296	0.05420179
922.466	0.05394275
922.636	0.05371479
922.805	0.05352474
922.975	0.05339015
923.144	0.05315443
923.314	0.05296068
923.483	0.05291107
923.653	0.05272662
923.822	0.05249909
923.992	0.05235597
924.161	0.05211353
924.331	0.05175656
924.5	0.05137316
924.669	0.05110393
924.839	0.05098991
925.008	0.05070929
925.177	0.05051161
925.347	0.050457
925.516	0.05035998
925.685	0.05032053
925.854	0.05013035
926.023	0.04977277
926.193	0.04979009
926.362	0.04956494
926.531	0.04947311
926.7	0.04930484
926.869	0.049167
927.038	0.04895673
927.207	0.04890398
927.376	0.04846109
927.545	0.04843938
927.715	0.04806056
927.884	0.04787036
928.052	0.04775945
928.221	0.04756286
928.39	0.04738675
928.559	0.04728923
928.728	0.04691759
928.897	0.04677298
929.066	0.0465466
929.235	0.04617164
929.404	0.04610334
929.572	0.04583989
929.741	0.0455303
929.91	0.04541058
930.079	0.04517037
930.247	0.04500463
930.416	0.04487321
930.585	0.04451726
930.753	0.04450876
930.922	0.04459832
931.091	0.04436383
931.259	0.04420817
931.428	0.04402863
931.596	0.04400782
931.765	0.04424128
931.934	0.04404956
932.102	0.04383813
932.27	0.04393815
932.439	0.04410291
932.607	0.04407069
932.776	0.04393197
932.944	0.04357785
933.113	0.0433932
933.281	0.04328084
933.449	0.04293848
933.618	0.04254618
933.786	0.04245902
933.954	0.04219014
934.123	0.0419682
934.291	0.04193652
934.459	0.0418302
934.627	0.0417768
934.795	0.04170235
934.964	0.04146881
935.132	0.04146194
935.3	0.04147261
935.468	0.04122716
935.636	0.04128068
935.804	0.04106692
935.972	0.04111363
936.14	0.04089372
936.308	0.04086418
936.476	0.04083029
936.644	0.04087568
936.812	0.04065785
936.98	0.04067188
937.148	0.04048157
937.316	0.04067525
937.484	0.04080373
937.652	0.04047433
937.82	0.0402671
937.987	0.04016769
938.155	0.0403053
938.323	0.04038414
938.491	0.0404221
938.658	0.04040238
938.826	0.04083454
938.994	0.0412189
939.162	0.04150947
939.329	0.04171892
939.497	0.04210309
939.665	0.04211006
939.832	0.04256793
940	0.04249257
940.167	0.04251688
940.335	0.04251823
940.502	0.04252634
940.67	0.04218824
940.837	0.04247205
941.005	0.04196291
941.172	0.04211179
941.34	0.04209383
941.507	0.04252245
941.674	0.04262585
941.842	0.04302403
942.009	0.04320208
942.177	0.04323548
942.344	0.04423068
942.511	0.044868
942.678	0.04411111
942.846	0.04372875
943.013	0.04379258
943.18	0.04404904
943.347	0.04360452
943.514	0.04272502
943.682	0.04208821
943.849	0.04240558
944.016	0.04213696
944.183	0.04244196
944.35	0.04221355
944.517	0.04200027
944.684	0.04231301
944.851	0.04187959
945.018	0.04241525
945.185	0.04286348
945.352	0.04215482
945.519	0.04197308
945.686	0.04256157
945.853	0.04239554
946.02	0.04238453
946.187	0.0415868
946.353	0.04085921
946.52	0.04081207
946.687	0.04060247
946.854	0.04048176
947.021	0.03977371
947.187	0.03998804
947.354	0.04016819
947.521	0.040428
947.687	0.04013798
947.854	0.04018422
948.021	0.03949842
948.187	0.03970352
948.354	0.03953755
948.52	0.03854281
948.687	0.0386223
948.854	0.03861919
949.02	0.0377365
949.187	0.03797319
949.353	0.0379364
949.52	0.03707172
949.686	0.03704145
949.852	0.03661169
950.019	0.03636338
950.185	0.03686188
950.352	0.0365593
950.518	0.03645315
950.684	0.03701477
950.851	0.03650419
951.017	0.03631602
951.183	0.03622525
951.349	0.03545848
951.516	0.0343075
951.682	0.03377756
951.848	0.03300485
952.014	0.03321771
952.18	0.0329099
952.346	0.03214935
952.512	0.03155775
952.679	0.03202348
952.845	0.03193398
953.011	0.03157313
953.177	0.03134105
953.343	0.03075165
953.509	0.03059071
953.675	0.03105342
953.841	0.03083626
954.007	0.03068569
954.172	0.03108836
954.338	0.03081678
954.504	0.03114751
954.67	0.03091349
954.836	0.03025646
955.002	0.02985967
955.167	0.02920083
955.333	0.02899019
955.499	0.02903317
955.665	0.02862137
955.83	0.02866349
955.996	0.02858205
956.162	0.02823247
956.327	0.02800807
956.493	0.02741749
956.659	0.02719651
956.824	0.02727519
956.99	0.02694315
957.155	0.02670016
957.321	0.02655906
957.486	0.02673021
957.652	0.02675373
957.817	0.02701772
957.983	0.02677618
958.148	0.02696919
958.314	0.02720321
958.479	0.02702517
958.644	0.02692248
958.81	0.02712909
958.975	0.02645678
959.14	0.02626555
959.306	0.0256597
959.471	0.0254195
959.636	0.02505578
959.801	0.02471362
959.967	0.02429087
960.132	0.02425679
960.297	0.02410076
960.462	0.02400356
960.627	0.02369769
960.792	0.02381017
960.957	0.02387789
961.123	0.02404061
961.288	0.0240507
961.453	0.02385889
961.618	0.02385055
961.783	0.02406022
961.948	0.02429559
962.113	0.02424448
962.277	0.02353909
962.442	0.02344213
962.607	0.0234675
962.772	0.02353705
962.937	0.02314262
963.102	0.02264794
963.267	0.02245592
963.431	0.02280796
963.596	0.02233968
963.761	0.02223826
963.926	0.02192596
964.09	0.02195027
964.255	0.02232838
964.42	0.02217351
964.584	0.02165222
964.749	0.02178203
964.914	0.02126685
965.078	0.02130997
965.243	0.02114659
965.407	0.02069368
965.572	0.02068339
965.736	0.02079336
965.901	0.02051229
966.065	0.02082182
966.23	0.02080078
966.394	0.02094038
966.559	0.02072967
966.723	0.0204601
966.887	0.02029272
967.052	0.02059942
967.216	0.02032664
967.38	0.02002509
967.545	0.02004064
967.709	0.02016057
967.873	0.02033414
968.037	0.01996785
968.202	0.019764
968.366	0.01993222
968.53	0.01969841
968.694	0.01934599
968.858	0.01921553
969.022	0.01897001
969.187	0.01940886
969.351	0.01918743
969.515	0.01879509
969.679	0.01905192
969.843	0.01891594
970.007	0.01915219
970.171	0.01901543
970.335	0.01884738
970.499	0.01873175
970.662	0.01892269
970.826	0.01917128
970.99	0.01953433
971.154	0.01931723
971.318	0.01952455
971.482	0.01953127
971.645	0.01988772
971.809	0.01973247
971.973	0.01942609
972.137	0.01871732
972.3	0.01867943
972.464	0.0180666
972.628	0.01760916
972.791	0.01711871
972.955	0.01720396
973.119	0.01702736
973.282	0.01714245
973.446	0.01727373
973.609	0.01781171
973.773	0.01793646
973.936	0.01806966
974.1	0.01793065
974.263	0.01753982
974.427	0.01773954
974.59	0.01730645
974.754	0.01656953
974.917	0.01682478
975.08	0.01641487
975.244	0.01654501
975.407	0.01690664
975.57	0.01683231
975.734	0.01657583
975.897	0.01680801
976.06	0.01631601
976.223	0.01635397
976.387	0.01604726
976.55	0.01590199
976.713	0.01589054
976.876	0.01581349
977.039	0.01604571
977.202	0.01620325
977.365	0.01653157
977.528	0.01671236
977.692	0.01673336
977.855	0.01670237
978.018	0.01721932
978.181	0.01711041
978.344	0.0170101
978.506	0.01639826
978.669	0.01643564
978.832	0.01594923
978.995	0.01574792
979.158	0.0153745
979.321	0.01523129
979.484	0.01531829
979.646	0.01539104
979.809	0.01506742
979.972	0.01573155
980.135	0.01570734
980.297	0.01586984
980.46	0.0158855
980.623	0.01530297
980.786	0.01536035
980.948	0.01527422
981.111	0.0147713
981.273	0.01461084
981.436	0.01432899
981.599	0.01446252
981.761	0.01477592
981.924	0.01504225
982.086	0.01515457
982.249	0.01538561
982.411	0.0153135
982.573	0.01570226
982.736	0.01545474
982.898	0.0154142
983.061	0.01548579
983.223	0.01504092
983.385	0.01496307
983.548	0.01490305
983.71	0.01415552
983.872	0.01407432
984.034	0.01410881
984.197	0.01384374
984.359	0.01419809
984.521	0.01365214
984.683	0.01426392
984.845	0.01453668
985.008	0.01474201
985.17	0.01466909
985.332	0.01442364
985.494	0.01441442
985.656	0.01489135
985.818	0.01415427
985.98	0.0140836
986.142	0.01402239
986.304	0.01427501
986.466	0.01427077
986.628	0.01376694
986.79	0.0136287
986.952	0.01339981
987.113	0.0136206
987.275	0.01364097
987.437	0.01353392
987.599	0.01351121
987.761	0.01367011
987.922	0.01351775
988.084	0.01375853
988.246	0.01415699
988.408	0.01386358
988.569	0.01346985
988.731	0.01383639
988.893	0.01420993
989.054	0.01484577
989.216	0.01488706
989.377	0.01431958
989.539	0.01450027
989.701	0.01498997
989.862	0.01455519
990.024	0.01434473
990.185	0.01367828
990.347	0.01379602
990.508	0.01381988
990.669	0.013624
990.831	0.01343771
990.992	0.01379349
991.154	0.0137456
991.315	0.01421569
991.476	0.01421947
991.638	0.01354638
991.799	0.01399952
991.96	0.01405595
992.121	0.01353467
992.283	0.01401173
992.444	0.01395015
992.605	0.01459342
992.766	0.01466899
992.927	0.01465577
993.088	0.01482869
993.249	0.01487981
993.41	0.01477481
993.572	0.01413605
993.733	0.01346315
993.894	0.0141219
994.055	0.01364535
994.216	0.01340626
994.376	0.01402937
994.537	0.01381092
994.698	0.0136095
994.859	0.01373011
995.02	0.01353813
995.181	0.01388895
995.342	0.01369792
995.503	0.01368795
995.663	0.01391551
995.824	0.01427418
995.985	0.01480815
996.146	0.01448099
996.306	0.01433595
996.467	0.01436727
996.628	0.01428482
996.788	0.01371338
996.949	0.01445676
997.11	0.01367446
997.27	0.01450894
997.431	0.01401977
997.591	0.0143452
997.752	0.01457317
997.912	0.01465618
998.073	0.01379616
998.233	0.01447408
998.394	0.0141182
998.554	0.01447684
998.714	0.0141247
998.875	0.01339043
999.035	0.01343411
999.196	0.01354443
999.356	0.01371714
999.516	0.01342205
999.676	0.01333355
999.837	0.01364454
999.997	0.01420613
1000.157	0.01471993
1000.317	0.01449838
1000.477	0.01329437
1000.638	0.0136051
1000.798	0.01300598
1000.958	0.01322436
1001.118	0.01255859
1001.278	0.01241003
1001.438	0.01264747
1001.598	0.01210368
1001.758	0.0111753
1001.918	0.0122624
1002.078	0.01134392
1002.238	0.01169088
1002.398	0.010984
1002.558	0.01119644
1002.718	0.01093132
1002.878	0.01226829
1003.037	0.01180552
1003.197	0.01203036
1003.357	0.01229335
1003.517	0.01165013
1003.677	0.01196169
1003.836	0.01275473
1003.996	0.0122684
1004.156	0.01281066
1004.315	0.01357867
1004.475	0.01390581
1004.635	0.01504055
1004.794	0.01572673
1004.954	0.01644903
1005.114	0.01671804
1005.273	0.01708145
1005.433	0.01708127
1005.592	0.01634229
1005.752	0.01618281
1005.911	0.01565633
1006.071	0.01489889
1006.23	0.01447412
1006.389	0.01459625
1006.549	0.01471745
1006.708	0.01477665
1006.868	0.01423107
1007.027	0.01398604
1007.186	0.01485802
1007.345	0.01571046
1007.505	0.01465177
1007.664	0.01463608
1007.823	0.0150474
1007.982	0.01484126
1008.142	0.01523885
1008.301	0.015731
1008.46	0.01505509
1008.619	0.01539871
1008.778	0.01592623
1008.937	0.0162598
1009.096	0.01780114
1009.255	0.01763466
1009.414	0.01785646
1009.573	0.01761666
1009.732	0.01819846
1009.891	0.01737368
1010.05	0.01684205
1010.209	0.01604363
1010.368	0.01491089
1010.527	0.01377648
1010.686	0.01501769
1010.845	0.01524812
1011.003	0.01541481
1011.162	0.01550238
1011.321	0.0157179
1011.48	0.01806697
1011.638	0.01729447
1011.797	0.01727013
1011.956	0.01750627
1012.115	0.01727461
1012.273	0.01788885
1012.432	0.01971829
1012.59	0.01843192
1012.749	0.02007453
1012.908	0.0203911
1013.066	0.01996114
1013.225	0.02153199
1013.383	0.02139038
1013.542	0.01938486
1013.7	0.02047061
1013.859	0.01972705
1014.017	0.01862104
1014.175	0.01900701
1014.334	0.01810284
1014.492	0.01848448
1014.65	0.01988604
1014.809	0.02121461
1014.967	0.02144053
1015.125	0.02313332
1015.284	0.02281046
1015.442	0.02338745
1015.6	0.02385151
1015.758	0.02301528
1015.916	0.02070633
1016.075	0.02115302
1016.233	0.01891968
1016.391	0.01753211
1016.549	0.01833602
1016.707	0.01843121
1016.865	0.01822337
1017.023	0.01835436
1017.181	0.0183575
1017.339	0.01969162
1017.497	0.02187996
1017.655	0.01894731
1017.813	0.0179872
1017.971	0.01804173
1018.129	0.01807802
1018.286	0.02013045
1018.444	0.0205072
1018.602	0.02050142
1018.76	0.02211502
1018.918	0.02143255
1019.075	0.02134041
1019.233	0.02252198
1019.391	0.02211238
1019.549	0.02099938
1019.706	0.02081081
1019.864	0.02227705
1020.022	0.02378629
1020.179	0.02461547
1020.337	0.02587744
1020.494	0.02291108
1020.652	0.0235786
1020.809	0.02493426
1020.967	0.0247068
1021.124	0.02415043
1021.282	0.02546982
1021.439	0.02470044
1021.597	0.02715907
1021.754	0.02734068
1021.911	0.02567183
1022.069	0.0249539
1022.226	0.02664884
1022.384	0.02685336
1022.541	0.02465341
1022.698	0.0239093
1022.855	0.02463135
1023.013	0.02454457
1023.17	0.02480905
1023.327	0.02597429
1023.484	0.02579781
1023.641	0.02816651
1023.798	0.02942321
1023.956	0.02935886
1024.113	0.03000456
1024.27	0.0310028
1024.427	0.0289811
1024.584	0.02943355
1024.741	0.02921035
1024.898	0.03052435
1025.055	0.0296689
1025.212	0.02774196
1025.369	0.02600819
1025.525	0.02452958
1025.682	0.02526264
1025.839	0.02180425
1025.996	0.0217083
1026.153	0.02227774
1026.31	0.02403334
1026.466	0.02618582
1026.623	0.02997986
1026.78	0.03055243
1026.937	0.03315319
1027.093	0.03452859
1027.25	0.03888651
1027.407	0.03975322
1027.563	0.03854826
1027.72	0.03553599
1027.876	0.03347252
1028.033	0.03473501
1028.19	0.03207925
1028.346	0.03016907
1028.503	0.03123077
1028.659	0.03320881
1028.816	0.03427562
1028.972	0.03603753
1029.128	0.03928901
1029.285	0.04314704
1029.441	0.040458
1029.598	0.03962991
1029.754	0.04119732
1029.91	0.03983466
1030.067	0.03864327
1030.223	0.03599238
1030.379	0.03479376
1030.535	0.03820351
1030.691	0.03981854
1030.848	0.04092915
1031.004	0.04623217
1031.16	0.04787522
1031.316	0.05281543
1031.472	0.05305031
1031.628	0.05403434
1031.784	0.05791039
1031.94	0.05610929
1032.096	0.05304465
1032.252	0.05523085
1032.408	0.05432631
1032.564	0.05035817
1032.72	0.04865166
1032.876	0.0424541
1033.032	0.04289783
1033.188	0.04228798
1033.344	0.04306185
1033.5	0.04424255
1033.655	0.04687985
1033.811	0.04986299
1033.967	0.05539526
