Data from 0_1_mm_pl_90pc_Absorbance__0__15-33-20-757.txt Node

Date: Fri Feb 24 15:33:20 CET 2023
User: Ange
Spectrometer: FLMT08341
Trigger mode: 0
Integration Time (sec): 1.000000E-2
Scans to average: 400
Electric dark correction enabled: true
Nonlinearity correction enabled: false
Boxcar width: 3
XAxis mode: Wavelengths
Number of Pixels in Spectrum: 3648
>>>>>Begin Spectral Data<<<<<
345.271	0.03319051
345.487	0.01731787
345.704	0.02032699
345.921	0.00411876
346.137	-0.00541922
346.354	-0.00399232
346.571	-0.03403707
346.787	-0.08409503
347.004	-0.11432623
347.22	0.01992945
347.437	-0.17936326
347.653	-0.30321499
347.87	0.14927886
348.086	-0.08137092
348.303	1.2294397
348.519	0.33823499
348.736	0.40093091
348.952	0.41542294
349.169	0.42897067
349.385	0.45412945
349.601	0.4586597
349.818	0.46153537
350.034	0.46223089
350.251	0.46220441
350.467	0.46760699
350.683	0.45395749
350.9	0.45209475
351.116	0.44642895
351.332	0.43953278
351.549	0.451257
351.765	0.46515173
351.981	0.46930088
352.197	0.49172082
352.414	0.5118331
352.63	0.52502899
352.846	0.54418486
353.062	0.53404918
353.278	0.52110479
353.495	0.53725543
353.711	0.54205072
353.927	0.54318583
354.143	0.54570904
354.359	0.53778416
354.575	0.5393232
354.792	0.55559479
355.008	0.54471717
355.224	0.54160598
355.44	0.53493849
355.656	0.53421422
355.872	0.54465274
356.088	0.57192323
356.304	0.57385596
356.52	0.58056412
356.736	0.58365153
356.952	0.5948258
357.168	0.59742744
357.384	0.6087107
357.6	0.59407302
357.816	0.6053935
358.032	0.61991931
358.248	0.64194515
358.464	0.64257696
358.679	0.65240163
358.895	0.64926681
359.111	0.65956278
359.327	0.64511398
359.543	0.64389397
359.759	0.6468823
359.974	0.64668875
360.19	0.63853613
360.406	0.64265603
360.622	0.63924585
360.838	0.63979196
361.053	0.64525018
361.269	0.64738769
361.485	0.65226862
361.701	0.66706735
361.916	0.65906143
362.132	0.66153674
362.348	0.67035543
362.563	0.6760091
362.779	0.67097956
362.995	0.67879689
363.21	0.68657052
363.426	0.69379075
363.641	0.69948775
363.857	0.71181326
364.073	0.70303167
364.288	0.69699614
364.504	0.71127845
364.719	0.71049717
364.935	0.70995567
365.15	0.7136698
365.366	0.71367646
365.581	0.73084658
365.797	0.7383042
366.012	0.72713296
366.228	0.72084621
366.443	0.74010334
366.658	0.74581299
366.874	0.7370287
367.089	0.7386639
367.305	0.74580008
367.52	0.74967266
367.735	0.75326656
367.951	0.74145257
368.166	0.74395934
368.381	0.76401028
368.597	0.76273122
368.812	0.76917067
369.027	0.77774338
369.243	0.78619913
369.458	0.81451046
369.673	0.81945019
369.888	0.81503957
370.104	0.80874413
370.319	0.81562429
370.534	0.8111619
370.749	0.81361372
370.964	0.80738175
371.179	0.80562529
371.395	0.80415979
371.61	0.81682173
371.825	0.80825705
372.04	0.81498557
372.255	0.81535608
372.47	0.8082675
372.685	0.80419215
372.9	0.80534862
373.115	0.80073194
373.33	0.80501226
373.545	0.80598604
373.76	0.80931036
373.975	0.80885702
374.19	0.80839198
374.405	0.81371525
374.62	0.82607193
374.835	0.83861186
375.05	0.84170368
375.265	0.84669591
375.48	0.85520403
375.695	0.88129912
375.91	0.87853633
376.125	0.86407987
376.339	0.85201068
376.554	0.85391561
376.769	0.85552858
376.984	0.85168202
377.199	0.8539752
377.414	0.85262451
377.628	0.86900538
377.843	0.88057456
378.058	0.88504002
378.273	0.89130501
378.487	0.89932247
378.702	0.89687376
378.917	0.90430143
379.131	0.89758475
379.346	0.88867183
379.561	0.88570078
379.775	0.88042504
379.99	0.876033
380.205	0.86751941
380.419	0.86293365
380.634	0.85509881
380.848	0.86966101
381.063	0.87216231
381.278	0.88531401
381.492	0.88415752
381.707	0.89612849
381.921	0.89626448
382.136	0.91532188
382.35	0.90609433
382.565	0.90086959
382.779	0.90047243
382.994	0.90643346
383.208	0.89869393
383.422	0.91474335
383.637	0.91136664
383.851	0.92403502
384.066	0.93746147
384.28	0.94286334
384.494	0.9469432
384.709	0.95675176
384.923	0.95576921
385.137	0.94884514
385.352	0.94609174
385.566	0.94990465
385.78	0.94733821
385.995	0.94168223
386.209	0.93749819
386.423	0.94361762
386.637	0.9536776
386.852	0.94770032
387.066	0.94569186
387.28	0.94072383
387.494	0.95481262
387.708	0.95937843
387.923	0.95648716
388.137	0.96474634
388.351	0.97399123
388.565	0.98304348
388.779	0.99135794
388.993	1.00385971
389.207	1.00762628
389.421	1.01211492
389.635	1.00465635
389.85	1.00202758
390.064	1.0000147
390.278	1.0031381
390.492	0.99900482
390.706	0.99979654
390.92	0.99931758
391.134	1.0128564
391.348	1.03110225
391.561	1.0260254
391.775	1.02075193
391.989	1.01060218
392.203	1.01811813
392.417	1.02568799
392.631	1.0297065
392.845	1.01983943
393.059	1.03391122
393.273	1.03090705
393.486	1.02689718
393.7	1.01544049
393.914	1.01918351
394.128	1.01396448
394.342	1.00867302
394.555	0.99293106
394.769	0.99784347
394.983	1.00621822
395.197	1.01614888
395.41	1.01387009
395.624	1.01916913
395.838	1.0203915
396.051	1.0439824
396.265	1.03903195
396.479	1.04041946
396.692	1.04102333
396.906	1.03520845
397.12	1.03017988
397.333	1.03943175
397.547	1.02872071
397.76	1.0396847
397.974	1.041823
398.187	1.04370037
398.401	1.05256255
398.614	1.05424457
398.828	1.05307066
399.041	1.0521478
399.255	1.04776064
399.468	1.04842324
399.682	1.04591976
399.895	1.04773899
400.109	1.04425373
400.322	1.0408952
400.536	1.03278356
400.749	1.03973477
400.962	1.03884791
401.176	1.03375462
401.389	1.02736642
401.602	1.01662425
401.816	1.01964087
402.029	1.02988052
402.242	1.02326111
402.456	1.02173566
402.669	1.01906
402.882	1.00964144
403.095	1.02172153
403.309	1.01986002
403.522	1.01857846
403.735	1.0150153
403.948	1.01322939
404.161	1.02752214
404.375	1.03186511
404.588	1.02972573
404.801	1.02951634
405.014	1.02224369
405.227	1.0303473
405.44	1.03324643
405.653	1.03005966
405.866	1.02476505
406.079	1.02275501
406.293	1.01909174
406.506	1.01971178
406.719	1.01466086
406.932	1.00977718
407.145	1.00011303
407.358	1.01000831
407.571	1.0026745
407.784	1.00335554
407.996	1.00394278
408.209	0.99625087
408.422	0.99309105
408.635	0.9951153
408.848	0.98988684
409.061	0.98379226
409.274	0.9788893
409.487	0.97368477
409.7	0.97427395
409.912	0.97449258
410.125	0.97247599
410.338	0.96969011
410.551	0.97128404
410.764	0.9698464
410.976	0.96899108
411.189	0.96674772
411.402	0.96086831
411.615	0.96090602
411.827	0.95917997
412.04	0.95906367
412.253	0.95636535
412.465	0.95239036
412.678	0.94827788
412.891	0.95055242
413.103	0.93912784
413.316	0.93524247
413.529	0.93610426
413.741	0.9369947
413.954	0.93730647
414.166	0.93765793
414.379	0.93265235
414.591	0.93643585
414.804	0.9318767
415.016	0.92756393
415.229	0.92211913
415.441	0.9161636
415.654	0.91545792
415.866	0.91433358
416.079	0.91275824
416.291	0.9107462
416.504	0.91123139
416.716	0.9092668
416.928	0.9086281
417.141	0.90305993
417.353	0.9006932
417.566	0.89350871
417.778	0.89244405
417.99	0.88334526
418.203	0.87796606
418.415	0.87483824
418.627	0.87359502
418.839	0.87067451
419.052	0.87406018
419.264	0.87107705
419.476	0.8707675
419.688	0.87072766
419.901	0.86829494
420.113	0.86463182
420.325	0.86029553
420.537	0.85365638
420.749	0.85210534
420.961	0.8508998
421.174	0.847359
421.386	0.84349388
421.598	0.84086458
421.81	0.83933464
422.022	0.83611535
422.234	0.83316298
422.446	0.8288715
422.658	0.82577438
422.87	0.82471407
423.082	0.82189115
423.294	0.81858849
423.506	0.81727774
423.718	0.81366161
423.93	0.80966055
424.142	0.80558541
424.354	0.80145899
424.566	0.79802127
424.778	0.79576506
424.99	0.79194081
425.202	0.78846341
425.414	0.78682714
425.625	0.78687692
425.837	0.78281187
426.049	0.78120095
426.261	0.77774967
426.473	0.77410951
426.684	0.77184968
426.896	0.76998139
427.108	0.76538208
427.32	0.76491346
427.531	0.76117088
427.743	0.75858513
427.955	0.75918352
428.167	0.75582065
428.378	0.75258354
428.59	0.75075072
428.802	0.74771812
429.013	0.74436094
429.225	0.74106212
429.436	0.73659645
429.648	0.73512528
429.86	0.73350226
430.071	0.73082539
430.283	0.72854872
430.494	0.72633958
430.706	0.72480985
430.917	0.72153825
431.129	0.71869928
431.34	0.71537652
431.552	0.71357506
431.763	0.70993213
431.975	0.70877403
432.186	0.70509746
432.398	0.70253536
432.609	0.69792113
432.821	0.69559807
433.032	0.69241443
433.243	0.68977591
433.455	0.6867596
433.666	0.68469849
433.877	0.68390022
434.089	0.68176942
434.3	0.6784184
434.511	0.67448943
434.723	0.67194016
434.934	0.66806483
435.145	0.66437972
435.356	0.66032176
435.568	0.65828225
435.779	0.65540926
435.99	0.65260183
436.201	0.65012936
436.412	0.64792609
436.624	0.64677034
436.835	0.64528162
437.046	0.64374719
437.257	0.64174507
437.468	0.6414111
437.679	0.63958434
437.89	0.63747201
438.101	0.63521548
438.312	0.63225272
438.523	0.62928886
438.734	0.62707751
438.945	0.62402725
439.156	0.62081841
439.367	0.61890096
439.578	0.61661402
439.789	0.61352896
440	0.61164998
440.211	0.60882618
440.422	0.60664977
440.633	0.60521884
440.844	0.60202848
441.055	0.59959622
441.266	0.59844118
441.477	0.59517871
441.687	0.59350067
441.898	0.59104206
442.109	0.58798846
442.32	0.5861907
442.531	0.58302128
442.741	0.57920806
442.952	0.57750766
443.163	0.57498066
443.374	0.57228278
443.584	0.5699328
443.795	0.56774805
444.006	0.56612381
444.216	0.56447993
444.427	0.56151132
444.638	0.55899271
444.848	0.55694317
445.059	0.55478639
445.27	0.55224553
445.48	0.54957898
445.691	0.54767
445.901	0.54595424
446.112	0.5438989
446.323	0.54110833
446.533	0.53880455
446.744	0.53652077
446.954	0.5341478
447.165	0.53185472
447.375	0.52989698
447.586	0.5282076
447.796	0.52654421
448.006	0.52431613
448.217	0.5226359
448.427	0.52067545
448.638	0.51798885
448.848	0.51503484
449.058	0.51256151
449.269	0.51041788
449.479	0.50850535
449.689	0.50605352
449.9	0.50396139
450.11	0.50208886
450.32	0.50092457
450.531	0.4984671
450.741	0.49644221
450.951	0.4943764
451.161	0.492055
451.372	0.49009683
451.582	0.48929659
451.792	0.48659943
452.002	0.48475899
452.212	0.48225797
452.422	0.48033187
452.633	0.47826075
452.843	0.47658898
453.053	0.47303467
453.263	0.47154012
453.473	0.4693397
453.683	0.46796103
453.893	0.46533829
454.103	0.46404257
454.313	0.46172861
454.523	0.46000413
454.733	0.45783795
454.943	0.45647807
455.153	0.4545033
455.363	0.45287505
455.573	0.4507396
455.783	0.44902424
455.993	0.44698419
456.203	0.44557149
456.413	0.44317348
456.623	0.44103346
456.833	0.43986074
457.042	0.43767239
457.252	0.43569692
457.462	0.43400308
457.672	0.431916
457.882	0.43029355
458.091	0.42839341
458.301	0.42603159
458.511	0.4244249
458.721	0.42250174
458.931	0.42075455
459.14	0.41902677
459.35	0.41762672
459.56	0.41632226
459.769	0.414939
459.979	0.41300508
460.189	0.41146663
460.398	0.40969653
460.608	0.40811095
460.817	0.40612858
461.027	0.40419197
461.237	0.40210494
461.446	0.40046979
461.656	0.39906196
461.865	0.39740485
462.075	0.39566617
462.284	0.39412538
462.494	0.39251541
462.703	0.39097582
462.913	0.38955991
463.122	0.38771323
463.332	0.3861563
463.541	0.38464176
463.751	0.38291752
463.96	0.3813575
464.169	0.37977917
464.379	0.37848463
464.588	0.37689881
464.797	0.37531729
465.007	0.37364471
465.216	0.37221917
465.425	0.37068444
465.635	0.36932542
465.844	0.36757157
466.053	0.36606257
466.263	0.36457475
466.472	0.3629941
466.681	0.36140081
466.89	0.35983543
467.099	0.3581253
467.309	0.35656416
467.518	0.35513292
467.727	0.35369977
467.936	0.35233171
468.145	0.35096422
468.354	0.34976446
468.563	0.34835305
468.772	0.34692486
468.982	0.34541066
469.191	0.34400378
469.4	0.3424792
469.609	0.34126422
469.818	0.33998113
470.027	0.33872887
470.236	0.33741421
470.445	0.33617638
470.654	0.33475015
470.863	0.33332152
471.072	0.33186886
471.28	0.33020461
471.489	0.32891577
471.698	0.32755968
471.907	0.3263305
472.116	0.32533664
472.325	0.32424254
472.534	0.32305931
472.743	0.32177331
472.951	0.32080759
473.16	0.3195733
473.369	0.31835959
473.578	0.31714839
473.786	0.31601302
473.995	0.31482213
474.204	0.3138275
474.413	0.31243846
474.621	0.31139664
474.83	0.31036602
475.039	0.30911749
475.247	0.30812882
475.456	0.30693853
475.665	0.30581139
475.873	0.30461688
476.082	0.30338169
476.291	0.30225889
476.499	0.30120438
476.708	0.29983314
476.916	0.29885042
477.125	0.29784422
477.333	0.29690998
477.542	0.29593092
477.75	0.2948569
477.959	0.2938388
478.167	0.29291782
478.376	0.29183041
478.584	0.29075929
478.793	0.28971083
479.001	0.28860148
479.209	0.28755025
479.418	0.28655734
479.626	0.28559585
479.834	0.28461494
480.043	0.28360101
480.251	0.28252151
480.459	0.28163394
480.668	0.28072448
480.876	0.27976117
481.084	0.2787935
481.293	0.27793686
481.501	0.27695489
481.709	0.27613766
481.917	0.27524893
482.125	0.27421923
482.334	0.27337796
482.542	0.27243021
482.75	0.27149215
482.958	0.27074563
483.166	0.26984043
483.374	0.26896082
483.583	0.26820609
483.791	0.26730603
483.999	0.26641888
484.207	0.26560386
484.415	0.26472981
484.623	0.2639112
484.831	0.26311534
485.039	0.26234138
485.247	0.26147658
485.455	0.26073927
485.663	0.25992696
485.871	0.25919552
486.079	0.25829637
486.287	0.25747957
486.495	0.25674142
486.702	0.25598229
486.91	0.25528142
487.118	0.25449564
487.326	0.25370786
487.534	0.25302925
487.742	0.25239931
487.95	0.25173698
488.157	0.25114416
488.365	0.25050466
488.573	0.24996688
488.781	0.24935555
488.988	0.24874081
489.196	0.248078
489.404	0.24737793
489.612	0.24670609
489.819	0.24606524
490.027	0.24532244
490.235	0.24465368
490.442	0.24403516
490.65	0.24336639
490.857	0.24282475
491.065	0.24220758
491.273	0.24158479
491.48	0.24100234
491.688	0.24036874
491.895	0.23978996
492.103	0.23924844
492.31	0.23861724
492.518	0.23803065
492.725	0.23746459
492.933	0.23693843
493.14	0.23633494
493.348	0.23575919
493.555	0.23512524
493.763	0.23458908
493.97	0.23398408
494.177	0.23348561
494.385	0.23295562
494.592	0.23247272
494.8	0.23189182
495.007	0.23145563
495.214	0.23098195
495.422	0.23057924
495.629	0.23002168
495.836	0.22951686
496.043	0.22907881
496.251	0.22877019
496.458	0.22826265
496.665	0.22783241
496.872	0.22738851
497.08	0.22697127
497.287	0.22653167
497.494	0.22606791
497.701	0.22557884
497.908	0.22514337
498.115	0.22474888
498.322	0.22429342
498.53	0.22386477
498.737	0.2234593
498.944	0.2230651
499.151	0.22271921
499.358	0.22237318
499.565	0.22191574
499.772	0.22152668
499.979	0.22120895
500.186	0.22085924
500.393	0.22051874
500.6	0.2201642
500.807	0.21985348
501.014	0.21951585
501.221	0.21912855
501.427	0.21867152
501.634	0.21825376
501.841	0.21792938
502.048	0.21755033
502.255	0.21716209
502.462	0.21688781
502.669	0.21665206
502.875	0.21645601
503.082	0.21618522
503.289	0.21582616
503.496	0.21554929
503.702	0.21525716
503.909	0.21490167
504.116	0.21458612
504.323	0.21422236
504.529	0.21396775
504.736	0.21370204
504.943	0.21338928
505.149	0.21322557
505.356	0.21303646
505.563	0.21281208
505.769	0.21268057
505.976	0.21245099
506.182	0.2123271
506.389	0.21214179
506.595	0.21186355
506.802	0.21166957
507.008	0.21143563
507.215	0.21119741
507.421	0.21103361
507.628	0.21077038
507.834	0.21059137
508.041	0.21041935
508.247	0.21024559
508.454	0.2100855
508.66	0.20985404
508.866	0.20964197
509.073	0.20954473
509.279	0.20940679
509.486	0.20925472
509.692	0.20905327
509.898	0.20889703
510.105	0.20881073
510.311	0.20868973
510.517	0.20852132
510.723	0.20831048
510.93	0.20810489
511.136	0.20800056
511.342	0.20783508
511.548	0.20769468
511.754	0.20758888
511.961	0.20744246
512.167	0.20731174
512.373	0.20723752
512.579	0.20702694
512.785	0.20696774
512.991	0.20692729
513.197	0.20682193
513.404	0.2067591
513.61	0.20674987
513.816	0.20671076
514.022	0.20675426
514.228	0.2066313
514.434	0.20645733
514.64	0.20637378
514.846	0.20631181
515.052	0.20622986
515.258	0.20612071
515.464	0.20596234
515.669	0.20587896
515.875	0.20586992
516.081	0.20581428
516.287	0.20577775
516.493	0.20582945
516.699	0.20578973
516.905	0.20579785
517.111	0.20581273
517.316	0.20576
517.522	0.20577926
517.728	0.20568623
517.934	0.20559041
518.139	0.20561769
518.345	0.20555398
518.551	0.2055955
518.757	0.20566684
518.962	0.20566637
519.168	0.20572848
519.374	0.20569273
519.579	0.20565846
519.785	0.20571549
519.991	0.20569974
520.196	0.2056806
520.402	0.20569855
520.607	0.20569075
520.813	0.20573765
521.018	0.20579568
521.224	0.20578421
521.429	0.20583241
521.635	0.20588567
521.84	0.20591719
522.046	0.20595533
522.251	0.20595875
522.457	0.20594919
522.662	0.20606484
522.868	0.20607182
523.073	0.20609944
523.279	0.2061024
523.484	0.20614716
523.689	0.20626452
523.895	0.20635626
524.1	0.20643371
524.305	0.20652488
524.511	0.20657769
524.716	0.2066557
524.921	0.20661823
525.126	0.20663524
525.332	0.20674861
525.537	0.20681207
525.742	0.20691593
525.947	0.20698112
526.153	0.20703665
526.358	0.20725436
526.563	0.20736702
526.768	0.20739084
526.973	0.20746382
527.178	0.20748391
527.383	0.20759375
527.588	0.20776677
527.794	0.20785584
527.999	0.20795052
528.204	0.20812009
528.409	0.20824141
528.614	0.20841927
528.819	0.20854712
529.024	0.20862368
529.229	0.20872909
529.434	0.20886381
529.639	0.20894506
529.843	0.2090417
530.048	0.20908362
530.253	0.20919801
530.458	0.20936613
530.663	0.20948824
530.868	0.20962187
531.073	0.20971116
531.278	0.20981952
531.482	0.20999881
531.687	0.21011823
531.892	0.21019114
532.097	0.21031101
532.302	0.21039903
532.506	0.21057711
532.711	0.21068724
532.916	0.21083143
533.12	0.21097729
533.325	0.21114048
533.53	0.21131103
533.734	0.21145258
533.939	0.21152453
534.144	0.21169578
534.348	0.21182
534.553	0.21191633
534.757	0.21198556
534.962	0.21212176
535.167	0.21231162
535.371	0.21254061
535.576	0.21272036
535.78	0.21297557
535.985	0.21318154
536.189	0.21341129
536.394	0.21356322
536.598	0.21369822
536.803	0.21388296
537.007	0.21408589
537.211	0.21418639
537.416	0.2143237
537.62	0.21448524
537.825	0.21468707
538.029	0.21486647
538.233	0.21497975
538.438	0.21511925
538.642	0.21528703
538.846	0.21549277
539.05	0.21568199
539.255	0.21586731
539.459	0.21600658
539.663	0.21620471
539.867	0.21633433
540.072	0.21649614
540.276	0.21666638
540.48	0.21686058
540.684	0.21696039
540.888	0.21719755
541.092	0.21738082
541.297	0.2175886
541.501	0.21777705
541.705	0.21792895
541.909	0.21806071
542.113	0.2182765
542.317	0.21849004
542.521	0.21872157
542.725	0.21894223
542.929	0.21912584
543.133	0.21934457
543.337	0.21952771
543.541	0.21971035
543.745	0.21982966
543.949	0.21999128
544.153	0.22011223
544.357	0.22033193
544.56	0.22050812
544.764	0.22068343
544.968	0.2208306
545.172	0.22094099
545.376	0.22110269
545.58	0.2212757
545.783	0.22145072
545.987	0.2216064
546.191	0.2217835
546.395	0.22202958
546.598	0.22227678
546.802	0.22246654
547.006	0.2226779
547.21	0.22281939
547.413	0.22303927
547.617	0.22326945
547.821	0.22344377
548.024	0.22366777
548.228	0.22379837
548.431	0.22397041
548.635	0.22412345
548.839	0.22425026
549.042	0.22444639
549.246	0.224533
549.449	0.22468896
549.653	0.22488096
549.856	0.22504567
550.06	0.2252048
550.263	0.22541136
550.467	0.22559478
550.67	0.22581063
550.874	0.22591245
551.077	0.22607573
551.28	0.22627313
551.484	0.22650077
551.687	0.22665532
551.891	0.22678137
552.094	0.22690228
552.297	0.22707316
552.501	0.22723166
552.704	0.22736555
552.907	0.22746683
553.11	0.22764862
553.314	0.22780425
553.517	0.22799159
553.72	0.22815876
553.923	0.22832977
554.127	0.22850653
554.33	0.22865093
554.533	0.22881673
554.736	0.22894282
554.939	0.22911262
555.142	0.22934811
555.345	0.22954079
555.549	0.22970971
555.752	0.22993089
555.955	0.23005025
556.158	0.23028377
556.361	0.23046793
556.564	0.23057004
556.767	0.23068269
556.97	0.23083848
557.173	0.23092906
557.376	0.23105956
557.579	0.23111885
557.782	0.23127386
557.984	0.23145494
558.187	0.23168565
558.39	0.23176477
558.593	0.23198735
558.796	0.23215404
558.999	0.2322778
559.202	0.23239071
559.404	0.23247135
559.607	0.23250152
559.81	0.23266915
560.013	0.23275691
560.216	0.232846
560.418	0.23300789
560.621	0.23310248
560.824	0.23320171
561.026	0.23338517
561.229	0.23346659
561.432	0.2336053
561.634	0.23372864
561.837	0.23382458
562.04	0.23401149
562.242	0.23420723
562.445	0.23421106
562.647	0.23431887
562.85	0.23434267
563.053	0.23447319
563.255	0.23453659
563.458	0.23461362
563.66	0.23466528
563.863	0.23482785
564.065	0.23487595
564.268	0.23496273
564.47	0.23506317
564.672	0.23516676
564.875	0.2352685
565.077	0.23532112
565.28	0.23542944
565.482	0.23555299
565.684	0.23564791
565.887	0.23564158
566.089	0.23576662
566.291	0.23580607
566.494	0.23589454
566.696	0.23589716
566.898	0.23591964
567.1	0.23594896
567.303	0.23606534
567.505	0.23610538
567.707	0.23612604
567.909	0.2361262
568.111	0.23620318
568.314	0.23631012
568.516	0.23644943
568.718	0.23652067
568.92	0.23658237
569.122	0.23660613
569.324	0.23675828
569.526	0.23680992
569.728	0.23686783
569.93	0.23686279
570.132	0.23687772
570.334	0.23690091
570.536	0.23698103
570.738	0.23696338
570.94	0.236954
571.142	0.23701706
571.344	0.23704567
571.546	0.237006
571.748	0.23701218
571.95	0.23702304
572.152	0.23702911
572.354	0.23705099
572.555	0.23702771
572.757	0.2370554
572.959	0.23706527
573.161	0.23708978
573.363	0.23704502
573.564	0.23713455
573.766	0.23717737
573.968	0.23720292
574.17	0.23719959
574.371	0.23723395
574.573	0.23720407
574.775	0.23721857
574.976	0.23712932
575.178	0.23714015
575.38	0.23704425
575.581	0.23698954
575.783	0.23698636
575.985	0.23697667
576.186	0.23701567
576.388	0.23699632
576.589	0.23693794
576.791	0.23702948
576.992	0.2370666
577.194	0.23703808
577.395	0.23702307
577.597	0.23700594
577.798	0.23698004
578	0.2369737
578.201	0.23692492
578.402	0.23688129
578.604	0.23684271
578.805	0.23684675
579.007	0.23680191
579.208	0.23686207
579.409	0.23675185
579.611	0.23669075
579.812	0.23667877
580.013	0.23677753
580.215	0.23663896
580.416	0.23658736
580.617	0.23644847
580.818	0.2364592
581.019	0.23640927
581.221	0.2363243
581.422	0.23617653
581.623	0.23622222
581.824	0.23604504
582.025	0.23599957
582.226	0.23591662
582.428	0.23590075
582.629	0.23577572
582.83	0.23575091
583.031	0.23565278
583.232	0.23572299
583.433	0.23568705
583.634	0.23562996
583.835	0.23553818
584.036	0.23551474
584.237	0.23534443
584.438	0.23524791
584.639	0.23509246
584.84	0.23503185
585.041	0.23495812
585.242	0.23486022
585.442	0.23479424
585.643	0.23476787
585.844	0.23467331
586.045	0.23461665
586.246	0.23442326
586.447	0.23429212
586.647	0.23421299
586.848	0.23410444
587.049	0.23393986
587.25	0.2338597
587.45	0.23371335
587.651	0.23368642
587.852	0.23358935
588.053	0.23352255
588.253	0.23343439
588.454	0.23339461
588.655	0.23323225
588.855	0.23317799
589.056	0.23305893
589.256	0.2330199
589.457	0.23287871
589.658	0.23274912
589.858	0.23262356
590.059	0.23256771
590.259	0.23249522
590.46	0.23243012
590.66	0.2322477
590.861	0.23216246
591.061	0.23207387
591.262	0.23201051
591.462	0.2320058
591.662	0.23189986
591.863	0.23175451
592.063	0.2317151
592.264	0.231623
592.464	0.23152938
592.664	0.23141043
592.865	0.23133248
593.065	0.2311747
593.265	0.23110812
593.465	0.23098689
593.666	0.23090436
593.866	0.23077288
594.066	0.23073111
594.266	0.23052302
594.467	0.23043709
594.667	0.23027767
594.867	0.23017538
595.067	0.22996018
595.267	0.22985635
595.467	0.22966151
595.668	0.22950627
595.868	0.22936339
596.068	0.22924516
596.268	0.22909189
596.468	0.22908584
596.668	0.22896307
596.868	0.22886038
597.068	0.22875272
597.268	0.22863944
597.468	0.22851177
597.668	0.2284169
597.868	0.22827821
598.068	0.22824179
598.268	0.22815527
598.467	0.22814128
598.667	0.22796778
598.867	0.22782503
599.067	0.22770143
599.267	0.22759772
599.467	0.2273407
599.667	0.22713325
599.866	0.22696828
600.066	0.22688172
600.266	0.22672904
600.466	0.2266038
600.665	0.226386
600.865	0.22629857
601.065	0.22619017
601.264	0.2260133
601.464	0.22589698
601.664	0.22589922
601.863	0.22577403
602.063	0.22571432
602.263	0.22555541
602.462	0.22549179
602.662	0.22538542
602.861	0.2253452
603.061	0.22520199
603.26	0.22511494
603.46	0.22493296
603.659	0.22492837
603.859	0.22474009
604.058	0.22461621
604.258	0.22451952
604.457	0.22445725
604.657	0.22421233
604.856	0.22402793
605.056	0.22395022
605.255	0.22386264
605.454	0.22378981
605.654	0.22352572
605.853	0.22335823
606.052	0.22333284
606.252	0.22333374
606.451	0.2231337
606.65	0.22298357
606.849	0.22279665
607.049	0.22277696
607.248	0.22261619
607.447	0.22248243
607.646	0.22234426
607.845	0.22224059
608.045	0.22209489
608.244	0.22214446
608.443	0.22204918
608.642	0.22209799
608.841	0.22204066
609.04	0.22197292
609.239	0.22190231
609.438	0.22179611
609.637	0.22169562
609.836	0.22161025
610.035	0.22141091
610.234	0.22130162
610.433	0.221189
610.632	0.22105287
610.831	0.22111599
611.03	0.22089612
611.229	0.22083183
611.428	0.22075301
611.627	0.22073356
611.826	0.22071477
612.025	0.22080829
612.224	0.22071908
612.422	0.22070793
612.621	0.22059269
612.82	0.22055303
613.019	0.22041875
613.218	0.22037954
613.416	0.22014307
613.615	0.22015187
613.814	0.22015181
614.012	0.22016494
614.211	0.22007909
614.41	0.22016754
614.608	0.22009081
614.807	0.22007241
615.006	0.22002709
615.204	0.21998018
615.403	0.21999237
615.602	0.22003142
615.8	0.22001845
615.999	0.21991556
616.197	0.21987728
616.396	0.21984544
616.594	0.21972144
616.793	0.21968701
616.991	0.21962705
617.19	0.2194661
617.388	0.21959506
617.586	0.21966182
617.785	0.21959773
617.983	0.21964241
618.182	0.21951314
618.38	0.21939939
618.578	0.21936989
618.777	0.21928157
618.975	0.21921018
619.173	0.21921759
619.372	0.21916249
619.57	0.21914803
619.768	0.21923477
619.966	0.21927884
620.165	0.21923351
620.363	0.21928251
620.561	0.21910601
620.759	0.21916924
620.957	0.21925486
621.155	0.21931376
621.354	0.21924501
621.552	0.21937289
621.75	0.21932811
621.948	0.21950021
622.146	0.2195127
622.344	0.21948916
622.542	0.21940283
622.74	0.21945545
622.938	0.2193594
623.136	0.21943869
623.334	0.21951523
623.532	0.21937389
623.73	0.2193197
623.928	0.21941994
624.126	0.2194649
624.324	0.21952825
624.522	0.21941082
624.719	0.21929702
624.917	0.21945219
625.115	0.21945816
625.313	0.21945669
625.511	0.2195358
625.708	0.2194056
625.906	0.21946335
626.104	0.21946351
626.302	0.21957078
626.499	0.21969925
626.697	0.21975978
626.895	0.21970803
627.093	0.21987608
627.29	0.22002066
627.488	0.22010878
627.686	0.22015051
627.883	0.22008837
628.081	0.21996119
628.278	0.22016999
628.476	0.22020377
628.673	0.22016309
628.871	0.22020606
629.068	0.22015688
629.266	0.220314
629.463	0.22034811
629.661	0.22031043
629.858	0.22032357
630.056	0.22038242
630.253	0.22040534
630.451	0.22054496
630.648	0.22054953
630.845	0.22067785
631.043	0.22070873
631.24	0.22083052
631.438	0.22090386
631.635	0.22097404
631.832	0.22086124
632.029	0.22096425
632.227	0.2210587
632.424	0.22114936
632.621	0.22118028
632.818	0.22119256
633.016	0.22129705
633.213	0.2213983
633.41	0.22153557
633.607	0.22157907
633.804	0.22164087
634.001	0.22162876
634.199	0.22181524
634.396	0.22192581
634.593	0.22199968
634.79	0.22202449
634.987	0.22211865
635.184	0.22220689
635.381	0.22243436
635.578	0.22254691
635.775	0.22260165
635.972	0.22267712
636.169	0.22274746
636.366	0.22281293
636.563	0.22288056
636.76	0.22282708
636.957	0.22284881
637.153	0.22277546
637.35	0.22295492
637.547	0.22302371
637.744	0.2231403
637.941	0.2232278
638.138	0.22336217
638.334	0.22335755
638.531	0.22359319
638.728	0.22366217
638.925	0.22387357
639.121	0.22395393
639.318	0.2239845
639.515	0.22401879
639.711	0.22423101
639.908	0.2242147
640.105	0.22426686
640.301	0.22423991
640.498	0.22428219
640.695	0.22440673
640.891	0.22452268
641.088	0.22456385
641.284	0.22475727
641.481	0.22484991
641.677	0.22492076
641.874	0.22501774
642.07	0.22517056
642.267	0.22538473
642.463	0.22546758
642.66	0.22561299
642.856	0.22568087
643.053	0.22571029
643.249	0.22585858
643.445	0.22590879
643.642	0.2259675
643.838	0.22608707
644.034	0.22613552
644.231	0.22624464
644.427	0.22639806
644.623	0.22646603
644.82	0.22657084
645.016	0.22654491
645.212	0.22650695
645.408	0.22657977
645.604	0.22681507
645.801	0.22695714
645.997	0.22707956
646.193	0.22713081
646.389	0.2273707
646.585	0.22752755
646.781	0.22759997
646.977	0.22758662
647.173	0.22767028
647.37	0.22768705
647.566	0.22781373
647.762	0.22782805
647.958	0.22806927
648.154	0.22819754
648.35	0.22832353
648.546	0.22839387
648.742	0.22864233
648.937	0.2285664
649.133	0.22873309
649.329	0.22884097
649.525	0.22893152
649.721	0.22903965
649.917	0.22926175
650.113	0.22923719
650.309	0.22953307
650.504	0.22954468
650.7	0.22952131
650.896	0.22965831
651.092	0.22969796
651.287	0.22963643
651.483	0.22985559
651.679	0.22987427
651.875	0.23007031
652.07	0.23017492
652.266	0.23026271
652.462	0.23036444
652.657	0.23052906
652.853	0.23053455
653.048	0.23068907
653.244	0.23063663
653.44	0.23072835
653.635	0.23068159
653.831	0.23081826
654.026	0.23091928
654.222	0.23095155
654.417	0.23106235
654.613	0.23116923
654.808	0.23114658
655.004	0.23133042
655.199	0.23129471
655.394	0.23131752
655.59	0.23154036
655.785	0.23155828
655.98	0.2317449
656.176	0.23194376
656.371	0.23215072
656.566	0.23234228
656.762	0.23240516
656.957	0.23245437
657.152	0.23253352
657.348	0.23260506
657.543	0.23274628
657.738	0.2327824
657.933	0.23283112
658.128	0.23293651
658.324	0.2329529
658.519	0.23307211
658.714	0.23315776
658.909	0.23316882
659.104	0.23323637
659.299	0.23334157
659.494	0.23340093
659.689	0.23352368
659.884	0.23355908
660.079	0.23356853
660.274	0.23361689
660.469	0.23364788
660.664	0.23375797
660.859	0.23384526
661.054	0.23390107
661.249	0.23399479
661.444	0.23405511
661.639	0.23409413
661.834	0.23409353
662.029	0.23413033
662.224	0.23422438
662.418	0.23430295
662.613	0.23434545
662.808	0.23438086
663.003	0.23445506
663.198	0.23455984
663.392	0.2345244
663.587	0.23463713
663.782	0.23460024
663.977	0.23460899
664.171	0.23470959
664.366	0.23482017
664.561	0.23488293
664.755	0.23500056
664.95	0.23494715
665.144	0.23502862
665.339	0.23513307
665.534	0.23519543
665.728	0.23524959
665.923	0.23538345
666.117	0.23547328
666.312	0.23560668
666.506	0.2357926
666.701	0.23582509
666.895	0.23587669
667.09	0.23592962
667.284	0.23595855
667.479	0.23602511
667.673	0.23605164
667.867	0.23615525
668.062	0.23624092
668.256	0.23631901
668.45	0.23642559
668.645	0.23647847
668.839	0.23654151
669.033	0.23658947
669.228	0.23654034
669.422	0.23664345
669.616	0.23664152
669.81	0.23675831
670.004	0.23676967
670.199	0.23684511
670.393	0.23687922
670.587	0.2369002
670.781	0.2369015
670.975	0.23699123
671.169	0.23687327
671.363	0.23688802
671.558	0.23683612
671.752	0.23691382
671.946	0.23699903
672.14	0.23704733
672.334	0.23704609
672.528	0.23722853
672.722	0.23722578
672.916	0.23731892
673.11	0.23723925
673.304	0.23732532
673.497	0.2372665
673.691	0.23733898
673.885	0.2371982
674.079	0.2372977
674.273	0.23720334
674.467	0.23734241
674.661	0.23730053
674.854	0.23739905
675.048	0.23746475
675.242	0.23756653
675.436	0.23757707
675.629	0.23767584
675.823	0.23760984
676.017	0.23765643
676.211	0.23762841
676.404	0.23759317
676.598	0.23759096
676.792	0.2376217
676.985	0.23768385
677.179	0.23779635
677.372	0.23777321
677.566	0.23790156
677.76	0.23791888
677.953	0.23794427
678.147	0.23800855
678.34	0.23810461
678.534	0.23809476
678.727	0.23818712
678.921	0.23827948
679.114	0.23832185
679.307	0.23838929
679.501	0.23843392
679.694	0.23837095
679.888	0.23836863
680.081	0.23834285
680.274	0.23820537
680.468	0.23822667
680.661	0.2381811
680.854	0.23822243
681.048	0.23825449
681.241	0.23827403
681.434	0.23824895
681.627	0.23832315
681.821	0.23834835
682.014	0.23844794
682.207	0.2383302
682.4	0.23826446
682.593	0.23825104
682.786	0.23818292
682.98	0.23811699
683.173	0.2381306
683.366	0.23806695
683.559	0.2380991
683.752	0.23819645
683.945	0.23820119
684.138	0.23833659
684.331	0.23829839
684.524	0.23833379
684.717	0.23831832
684.91	0.23838969
685.103	0.2383798
685.296	0.23846637
685.489	0.23845971
685.682	0.23850387
685.874	0.23849657
686.067	0.23849146
686.26	0.23845202
686.453	0.23838141
686.646	0.23822452
686.839	0.23813043
687.031	0.23811621
687.224	0.23796386
687.417	0.23801402
687.61	0.23793654
687.802	0.23791736
687.995	0.23800695
688.188	0.23807004
688.38	0.23807622
688.573	0.23815654
688.766	0.2380768
688.958	0.23801157
689.151	0.23793068
689.343	0.23789545
689.536	0.23780348
689.729	0.23770709
689.921	0.23763528
690.114	0.2375548
690.306	0.23757104
690.499	0.23759119
690.691	0.23755333
690.884	0.237523
691.076	0.23756943
691.268	0.23753226
691.461	0.23748001
691.653	0.23749852
691.846	0.2375484
692.038	0.23749812
692.23	0.23742134
692.423	0.23736996
692.615	0.2373409
692.807	0.23739099
692.999	0.2373967
693.192	0.23724473
693.384	0.23724342
693.576	0.23724079
693.768	0.23722325
693.961	0.23717367
694.153	0.23716661
694.345	0.23701165
694.537	0.23700764
694.729	0.23697243
694.921	0.23700379
695.113	0.23708707
695.305	0.23706466
695.498	0.23696029
695.69	0.23705252
695.882	0.23702382
696.074	0.23697557
696.266	0.23689825
696.458	0.23671068
696.65	0.23671489
696.842	0.23672526
697.033	0.23662214
697.225	0.23658993
697.417	0.23666599
697.609	0.23664618
697.801	0.236663
697.993	0.2366765
698.185	0.23662121
698.376	0.23666258
698.568	0.2366472
698.76	0.23654609
698.952	0.2365475
699.144	0.2365377
699.335	0.23646268
699.527	0.23644022
699.719	0.23630101
699.91	0.23632114
700.102	0.23620533
700.294	0.23614077
700.485	0.23603689
700.677	0.23600914
700.869	0.2360073
701.06	0.23606569
701.252	0.23596018
701.443	0.23602388
701.635	0.23598422
701.826	0.23603814
702.018	0.23599802
702.209	0.23598726
702.401	0.23589929
702.592	0.23591595
702.784	0.23580527
702.975	0.23575665
703.166	0.23563343
703.358	0.23550064
703.549	0.23544376
703.741	0.23541146
703.932	0.2353313
704.123	0.2353215
704.315	0.23533248
704.506	0.2354241
704.697	0.23548289
704.888	0.23549438
705.08	0.23544614
705.271	0.23545483
705.462	0.23536786
705.653	0.23529635
705.844	0.23516556
706.035	0.2350935
706.227	0.23497755
706.418	0.23498885
706.609	0.23499158
706.8	0.23507471
706.991	0.23501345
707.182	0.2350144
707.373	0.2349597
707.564	0.23492019
707.755	0.23480186
707.946	0.23468561
708.137	0.2345379
708.328	0.23451855
708.519	0.23451233
708.71	0.23454458
708.901	0.23451726
709.092	0.23456709
709.283	0.23456201
709.473	0.23453106
709.664	0.23450006
709.855	0.23436123
710.046	0.23427445
710.237	0.23422156
710.427	0.2341224
710.618	0.23405245
710.809	0.2340615
711	0.23410273
711.19	0.23412663
711.381	0.23423728
711.572	0.23424848
711.762	0.23430481
711.953	0.23427643
712.144	0.23421333
712.334	0.2341008
712.525	0.23406669
712.715	0.23392112
712.906	0.23387227
713.097	0.23376268
713.287	0.23370358
713.478	0.23371787
713.668	0.2337565
713.859	0.23371443
714.049	0.23369876
714.239	0.23366709
714.43	0.23366836
714.62	0.23362518
714.811	0.23359513
715.001	0.23353914
715.191	0.23350542
715.382	0.2334212
715.572	0.23345218
715.762	0.23345289
715.953	0.23350581
716.143	0.23351623
716.333	0.23343564
716.523	0.23342274
716.714	0.23350764
716.904	0.23341885
717.094	0.23338835
717.284	0.23331814
717.474	0.23321111
717.664	0.23328172
717.855	0.23329677
718.045	0.23326676
718.235	0.2332843
718.425	0.23327807
718.615	0.23339335
718.805	0.23351858
718.995	0.23355234
719.185	0.23359968
719.375	0.23362735
719.565	0.23362996
719.755	0.23364009
719.945	0.23354298
720.135	0.23350664
720.325	0.23347073
720.515	0.23345845
720.704	0.23342831
720.894	0.2335156
721.084	0.2334695
721.274	0.23353935
721.464	0.2335849
721.654	0.23362229
721.843	0.23360819
722.033	0.23358117
722.223	0.23350427
722.413	0.23358925
722.602	0.2335971
722.792	0.23355532
722.982	0.23357616
723.171	0.2336308
723.361	0.23373771
723.55	0.23384134
723.74	0.23385358
723.93	0.23384859
724.119	0.23392012
724.309	0.23393841
724.498	0.23384535
724.688	0.23381385
724.877	0.23378474
725.067	0.23372259
725.256	0.23366062
725.446	0.23357402
725.635	0.23343919
725.825	0.23343467
726.014	0.2334116
726.203	0.23335748
726.393	0.23332329
726.582	0.23335628
726.771	0.233351
726.961	0.23336776
727.15	0.23330532
727.339	0.23323296
727.529	0.23321211
727.718	0.23321063
727.907	0.2331414
728.096	0.23304341
728.286	0.23297883
728.475	0.23300496
728.664	0.23298296
728.853	0.23285466
729.042	0.2327533
729.231	0.23270078
729.42	0.23264405
729.609	0.23261383
729.799	0.23250672
729.988	0.23239769
730.177	0.23233623
730.366	0.23236471
730.555	0.23235071
730.744	0.23238228
730.933	0.23239113
731.122	0.23246969
731.31	0.23256568
731.499	0.23263816
731.688	0.23259736
731.877	0.23249901
732.066	0.23240718
732.255	0.23224493
732.444	0.23208524
732.632	0.23194164
732.821	0.23186818
733.01	0.23183565
733.199	0.23179368
733.388	0.23177985
733.576	0.23185518
733.765	0.2318816
733.954	0.23189639
734.142	0.23187836
734.331	0.23182016
734.52	0.23180097
734.708	0.23172725
734.897	0.23165266
735.086	0.23157226
735.274	0.23150164
735.463	0.2315155
735.651	0.23156226
735.84	0.23165105
736.028	0.23174165
736.217	0.23182943
736.405	0.23193501
736.594	0.23205663
736.782	0.23208665
736.971	0.23207005
737.159	0.2320841
737.347	0.23205546
737.536	0.23198026
737.724	0.23196131
737.912	0.23188307
738.101	0.23183499
738.289	0.2318051
738.477	0.23176946
738.666	0.23181094
738.854	0.23182497
739.042	0.23179984
739.23	0.23170409
739.418	0.23163152
739.607	0.23153111
739.795	0.2314941
739.983	0.23146688
740.171	0.23144698
740.359	0.2314389
740.547	0.23150586
740.735	0.23159719
740.923	0.23174062
741.112	0.23175041
741.3	0.23173255
741.488	0.23171949
741.676	0.23169511
741.864	0.23161438
742.052	0.23159503
742.239	0.23147333
742.427	0.23145765
742.615	0.23141641
742.803	0.23140678
742.991	0.23139588
743.179	0.23149504
743.367	0.23148472
743.555	0.23163122
743.742	0.2316495
743.93	0.23178019
744.118	0.23187337
744.306	0.23197317
744.494	0.23200964
744.681	0.23202443
744.869	0.23197634
745.057	0.23199559
745.244	0.23191083
745.432	0.23195484
745.62	0.2319775
745.807	0.23197963
745.995	0.23196219
746.182	0.23205438
746.37	0.23212649
746.558	0.23219362
746.745	0.23208972
746.933	0.23200519
747.12	0.23202309
747.308	0.23208563
747.495	0.23197438
747.683	0.23189043
747.87	0.23182511
748.057	0.23190799
748.245	0.23195167
748.432	0.23199825
748.62	0.23197331
748.807	0.2320468
748.994	0.23213214
749.182	0.23229126
749.369	0.23233254
749.556	0.23247307
749.743	0.23252041
749.931	0.23263629
750.118	0.23270364
750.305	0.23277316
750.492	0.23270206
750.68	0.2327445
750.867	0.23265846
751.054	0.23267574
751.241	0.23269448
751.428	0.23270992
751.615	0.23272637
751.802	0.23281371
751.989	0.23281338
752.176	0.23290039
752.363	0.23289208
752.55	0.23285519
752.737	0.23283229
752.924	0.2327512
753.111	0.2327148
753.298	0.23263689
753.485	0.23258639
753.672	0.23259648
753.859	0.2326417
754.046	0.23273373
754.233	0.23280812
754.42	0.23294197
754.606	0.23304705
754.793	0.23311916
754.98	0.23318792
755.167	0.2331562
755.353	0.23316884
755.54	0.23321741
755.727	0.23321154
755.914	0.2332722
756.1	0.23325874
756.287	0.23324778
756.474	0.23329798
756.66	0.23330797
756.847	0.23335535
757.033	0.23331325
757.22	0.23327992
757.407	0.23342982
757.593	0.2335422
757.78	0.23366116
757.966	0.2337245
758.153	0.23380822
758.339	0.23385666
758.526	0.23392083
758.712	0.2338844
758.898	0.23392314
759.085	0.23381501
759.271	0.23382253
759.458	0.23378025
759.644	0.23380863
759.83	0.23386286
760.017	0.23394746
760.203	0.23397262
760.389	0.23416994
760.576	0.23421923
760.762	0.23429746
760.948	0.23434846
761.134	0.23440842
761.32	0.23433406
761.507	0.23424185
761.693	0.23429529
761.879	0.23436953
762.065	0.23446167
762.251	0.23455081
762.437	0.23458848
762.623	0.23471607
762.809	0.23483889
762.995	0.23480897
763.181	0.23481015
763.367	0.23480786
763.553	0.23483309
763.739	0.2348972
763.925	0.23496102
764.111	0.23502757
764.297	0.23515586
764.483	0.23521664
764.669	0.2352065
764.855	0.23525414
765.041	0.23530667
765.227	0.23537748
765.412	0.23547947
765.598	0.23544349
765.784	0.23549625
765.97	0.23557683
766.156	0.23566423
766.341	0.23573306
766.527	0.23574514
766.713	0.235707
766.898	0.23577661
767.084	0.23579589
767.27	0.23578148
767.455	0.23571759
767.641	0.23563596
767.827	0.23565415
768.012	0.23571777
768.198	0.23582661
768.383	0.2358716
768.569	0.23596261
768.754	0.23610242
768.94	0.23621045
769.125	0.2362349
769.311	0.23620395
769.496	0.23611658
769.682	0.23613984
769.867	0.23619762
770.052	0.23619369
770.238	0.23623007
770.423	0.23630042
770.608	0.2364146
770.794	0.23654128
770.979	0.23656349
771.164	0.23660193
771.35	0.23659203
771.535	0.23664337
771.72	0.23668864
771.905	0.23678095
772.09	0.23675344
772.276	0.23690804
772.461	0.23692853
772.646	0.2370499
772.831	0.23714464
773.016	0.23731496
773.201	0.23736967
773.386	0.23756493
773.571	0.23759426
773.756	0.23764022
773.941	0.23770313
774.126	0.23778027
774.311	0.23766376
774.496	0.23766364
774.681	0.23755819
774.866	0.23755571
775.051	0.23760515
775.236	0.2375661
775.421	0.23748746
775.606	0.23751487
775.791	0.2374844
775.976	0.23755519
776.16	0.23758482
776.345	0.23770502
776.53	0.23784486
776.715	0.23802664
776.899	0.2381223
777.084	0.23824899
777.269	0.23827708
777.454	0.23833838
777.638	0.23830372
777.823	0.23828638
778.008	0.23820115
778.192	0.23825257
778.377	0.23827717
778.561	0.23837922
778.746	0.23845133
778.931	0.23853315
779.115	0.23871403
779.3	0.23886462
779.484	0.23894126
779.669	0.23898729
779.853	0.2389846
780.037	0.23899045
780.222	0.23899364
780.406	0.23893798
780.591	0.23893822
780.775	0.23896033
780.959	0.23900034
781.144	0.23909567
781.328	0.23912408
781.512	0.23914268
781.697	0.23912363
781.881	0.23908839
782.065	0.23908647
782.249	0.23914609
782.434	0.23916667
782.618	0.23924688
782.802	0.23938377
782.986	0.23950396
783.17	0.23966104
783.354	0.23977569
783.539	0.23982078
783.723	0.23978475
783.907	0.23981778
784.091	0.23980138
784.275	0.23983727
784.459	0.23984676
784.643	0.23993129
784.827	0.23997549
785.011	0.24010575
785.195	0.24016656
785.379	0.24028743
785.563	0.24037255
785.747	0.24043538
785.93	0.24042872
786.114	0.2403703
786.298	0.24028735
786.482	0.24024719
786.666	0.24019407
786.85	0.24010007
787.033	0.24014543
787.217	0.24017679
787.401	0.24023504
787.585	0.24034014
787.768	0.24045885
787.952	0.24048827
788.136	0.24053067
788.319	0.24049655
788.503	0.24045887
788.687	0.24046798
788.87	0.24053073
789.054	0.24057042
789.237	0.24062946
789.421	0.24067284
789.605	0.24060635
789.788	0.24062174
789.972	0.24069509
790.155	0.24061458
790.338	0.24055238
790.522	0.24057871
790.705	0.24062871
790.889	0.24073035
791.072	0.24074721
791.256	0.24082762
791.439	0.24092256
791.622	0.24096444
791.806	0.24109724
791.989	0.24111977
792.172	0.2410965
792.355	0.24106167
792.539	0.240957
792.722	0.2409227
792.905	0.24090499
793.088	0.24074868
793.271	0.24069078
793.455	0.24080567
793.638	0.24093636
793.821	0.24100222
794.004	0.24112827
794.187	0.24123713
794.37	0.24137589
794.553	0.2415475
794.736	0.24149606
794.919	0.24150785
795.102	0.24154306
795.285	0.24148386
795.468	0.2414134
795.651	0.24138721
795.834	0.24136978
796.017	0.24142979
796.2	0.24139645
796.383	0.24142935
796.566	0.24154812
796.749	0.24171299
796.931	0.24180717
797.114	0.24180091
797.297	0.24192464
797.48	0.24205336
797.663	0.24214641
797.845	0.24220603
798.028	0.2423029
798.211	0.24230539
798.393	0.24229915
798.576	0.24220616
798.759	0.24212391
798.941	0.24203754
799.124	0.242042
799.307	0.24199185
799.489	0.24200299
799.672	0.24212538
799.854	0.24227953
800.037	0.24240753
800.219	0.24259747
800.402	0.24263859
800.584	0.24264105
800.767	0.24269034
800.949	0.24266889
801.132	0.24265224
801.314	0.24260678
801.496	0.24253547
801.679	0.2424521
801.861	0.24238208
802.043	0.24224915
802.226	0.24223725
802.408	0.24216468
802.59	0.24220666
802.772	0.24220909
802.955	0.24225127
803.137	0.2422875
803.319	0.24244973
803.501	0.24254149
803.684	0.24261281
803.866	0.24259895
804.048	0.24259941
804.23	0.24257211
804.412	0.24254998
804.594	0.24240157
804.776	0.24237535
804.958	0.24234662
805.14	0.24238305
805.322	0.24242147
805.504	0.24249326
805.686	0.24251945
805.868	0.24261886
806.05	0.24255602
806.232	0.24253963
806.414	0.24256206
806.596	0.24252811
806.778	0.24247232
806.96	0.24250905
807.141	0.24254079
807.323	0.24259418
807.505	0.24262545
807.687	0.24263355
807.869	0.24265053
808.05	0.24266513
808.232	0.24256141
808.414	0.24247108
808.595	0.24238384
808.777	0.24235075
808.959	0.2423108
809.14	0.24229084
809.322	0.24232943
809.504	0.24244141
809.685	0.2426148
809.867	0.24270906
810.048	0.24278927
810.23	0.24284682
810.411	0.24289205
810.593	0.24289743
810.774	0.24292655
810.956	0.24281592
811.137	0.24278527
811.319	0.24275259
811.5	0.24278373
811.681	0.24281232
811.863	0.24286039
812.044	0.24290823
812.225	0.24303082
812.407	0.24309612
812.588	0.24314364
812.769	0.24313835
812.951	0.24317032
813.132	0.24318333
813.313	0.24323708
813.494	0.24318641
813.675	0.24321939
813.857	0.24321614
814.038	0.24317815
814.219	0.24306114
814.4	0.24296175
814.581	0.24287993
814.762	0.24282182
814.943	0.24275239
815.124	0.24266257
815.305	0.24274323
815.486	0.2429004
815.667	0.24295559
815.848	0.24289472
816.029	0.24296464
816.21	0.24301434
816.391	0.24308847
816.572	0.24303975
816.753	0.24295719
816.934	0.24289511
817.115	0.24288752
817.295	0.24280554
817.476	0.24263035
817.657	0.24259325
817.838	0.24259833
818.019	0.24257478
818.199	0.2426077
818.38	0.24263785
818.561	0.24265709
818.741	0.24269929
818.922	0.24272965
819.103	0.24269558
819.283	0.24276735
819.464	0.24281894
819.645	0.24287413
819.825	0.24298904
820.006	0.24307941
820.186	0.24308515
820.367	0.24298151
820.547	0.24279989
820.728	0.2427032
820.908	0.24255937
821.089	0.2424422
821.269	0.24241282
821.45	0.24239418
821.63	0.24251905
821.81	0.2426955
821.991	0.24277056
822.171	0.24289083
822.351	0.24296702
822.532	0.24298537
822.712	0.24294383
822.892	0.24279419
823.072	0.24266145
823.253	0.24252324
823.433	0.24237251
823.613	0.24215382
823.793	0.24199724
823.973	0.24193927
824.154	0.2419639
824.334	0.24194599
824.514	0.24192468
824.694	0.24193731
824.874	0.24190612
825.054	0.24192799
825.234	0.24193288
825.414	0.2418767
825.594	0.24187284
825.774	0.24188989
825.954	0.24184958
826.134	0.24196326
826.314	0.24191004
826.494	0.24193235
826.674	0.24188679
826.854	0.24175297
827.033	0.24171026
827.213	0.2417394
827.393	0.24161549
827.573	0.24169989
827.753	0.24160162
827.932	0.24163705
828.112	0.24173201
828.292	0.24177501
828.472	0.24173766
828.651	0.24181671
828.831	0.24180447
829.011	0.24183123
829.19	0.24180352
829.37	0.24177749
829.549	0.24171625
829.729	0.24167649
829.909	0.2416212
830.088	0.24145523
830.268	0.24125648
830.447	0.2411814
830.627	0.24117601
830.806	0.24122561
830.986	0.24121608
831.165	0.24127528
831.344	0.24134783
831.524	0.24146314
831.703	0.24145202
831.883	0.24130121
832.062	0.2410732
832.241	0.24096187
832.421	0.24081846
832.6	0.24075916
832.779	0.24072694
832.958	0.24064821
833.138	0.24061338
833.317	0.24071347
833.496	0.24074186
833.675	0.24068872
833.854	0.2407335
834.034	0.24067394
834.213	0.24068649
834.392	0.24061888
834.571	0.24044558
834.75	0.24030686
834.929	0.24018936
835.108	0.24001113
835.287	0.23994413
835.466	0.23986952
835.645	0.23993046
835.824	0.23999452
836.003	0.24000537
836.182	0.24004477
836.361	0.24003199
836.54	0.23993544
836.719	0.23989439
836.897	0.23975825
837.076	0.23962418
837.255	0.23953067
837.434	0.23949135
837.613	0.23940675
837.791	0.23944566
837.97	0.23942346
838.149	0.2394497
838.328	0.23948648
838.506	0.23942068
838.685	0.23928403
838.864	0.23936456
839.042	0.239287
839.221	0.23927143
839.4	0.23925065
839.578	0.23916054
839.757	0.2391051
839.935	0.23898525
840.114	0.23882269
840.292	0.23874152
840.471	0.23868611
840.649	0.23863181
840.828	0.23867747
841.006	0.23864113
841.185	0.23863463
841.363	0.23854855
841.541	0.23850232
841.72	0.23849858
841.898	0.23841284
842.076	0.23829745
842.255	0.23831799
842.433	0.23830424
842.611	0.23823069
842.789	0.23802436
842.968	0.23788134
843.146	0.23771131
843.324	0.23759044
843.502	0.2374932
843.68	0.23748631
843.859	0.23749796
844.037	0.23759235
844.215	0.2374425
844.393	0.23748326
844.571	0.2374155
844.749	0.23731261
844.927	0.23721398
845.105	0.23711539
845.283	0.23694712
845.461	0.23699235
845.639	0.23689606
845.817	0.23673561
845.995	0.23664641
846.173	0.23652091
846.351	0.23632821
846.529	0.23628968
846.706	0.23612761
846.884	0.23604212
847.062	0.23599124
847.24	0.2359574
847.418	0.23583829
847.595	0.23582212
847.773	0.23575561
847.951	0.23576394
848.129	0.23580819
848.306	0.23596622
848.484	0.23605005
848.662	0.23615534
848.839	0.23627992
849.017	0.23632232
849.194	0.23619539
849.372	0.23597749
849.549	0.23574207
849.727	0.23552162
849.905	0.23534444
850.082	0.23509296
850.26	0.23486558
850.437	0.2348191
850.614	0.23484258
850.792	0.23483475
850.969	0.23493933
851.147	0.23504477
851.324	0.23518273
851.501	0.23529992
851.679	0.23536565
851.856	0.23531224
852.033	0.23531089
852.211	0.23518098
852.388	0.23506801
852.565	0.23496175
852.742	0.2348066
852.92	0.23462467
853.097	0.23451927
853.274	0.23438575
853.451	0.23413635
853.628	0.23392034
853.805	0.23364819
853.982	0.23350039
854.159	0.23341108
854.336	0.23334835
854.514	0.23331698
854.691	0.23337974
854.868	0.23340124
855.045	0.23339849
855.221	0.2333821
855.398	0.23322771
855.575	0.2330802
855.752	0.23291641
855.929	0.23288047
856.106	0.23265078
856.283	0.23263265
856.46	0.2327083
856.637	0.23270756
856.813	0.23262118
856.99	0.23246639
857.167	0.23218877
857.344	0.23210699
857.52	0.23194057
857.697	0.23159664
857.874	0.23149348
858.05	0.23134569
858.227	0.23127346
858.404	0.23136802
858.58	0.23142663
858.757	0.23142282
858.933	0.23149326
859.11	0.23148122
859.287	0.23150736
859.463	0.23150794
859.64	0.23138629
859.816	0.23131132
859.993	0.23118486
860.169	0.23109165
860.345	0.23092614
860.522	0.23083627
860.698	0.23065688
860.875	0.23055651
861.051	0.230405
861.227	0.23031074
861.404	0.23019034
861.58	0.23010448
861.756	0.23009597
861.932	0.23010379
862.109	0.22991838
862.285	0.22982266
862.461	0.2298522
862.637	0.22978219
862.813	0.22963456
862.99	0.22928441
863.166	0.22908118
863.342	0.22909375
863.518	0.22895346
863.694	0.22886618
863.87	0.22876907
864.046	0.22876043
864.222	0.2288273
864.398	0.22882467
864.574	0.22865133
864.75	0.22856858
864.926	0.22837761
865.102	0.22831167
865.278	0.22820403
865.454	0.22824378
865.63	0.22826388
865.805	0.22821668
865.981	0.22827993
866.157	0.22824121
866.333	0.22813106
866.509	0.2280814
866.684	0.2278778
866.86	0.22772715
867.036	0.22768736
867.212	0.22739962
867.387	0.22716707
867.563	0.2270199
867.739	0.22686492
867.914	0.22671703
868.09	0.22651306
868.265	0.22644602
868.441	0.22637919
868.617	0.22638977
868.792	0.22641655
868.968	0.22636204
869.143	0.22650863
869.319	0.22661687
869.494	0.22662182
869.67	0.22671763
869.845	0.22677147
870.02	0.2267458
870.196	0.22667484
870.371	0.22647131
870.546	0.22620873
870.722	0.22593943
870.897	0.22574937
871.072	0.22553883
871.248	0.22535065
871.423	0.22526742
871.598	0.22510202
871.773	0.22504722
871.949	0.22492228
872.124	0.22493695
872.299	0.22479931
872.474	0.22479889
872.649	0.22471138
872.824	0.22468428
872.999	0.22463048
873.174	0.22473314
873.349	0.22457009
873.524	0.22456876
873.699	0.22446743
873.874	0.22441453
874.049	0.22428262
874.224	0.22419422
874.399	0.22399325
874.574	0.22401789
874.749	0.22400287
874.924	0.22391663
875.099	0.22367247
875.274	0.2236649
875.449	0.2236021
875.623	0.22346444
875.798	0.22315106
875.973	0.22289684
876.148	0.22272418
876.322	0.22272569
876.497	0.22249647
876.672	0.22236752
876.846	0.2223915
877.021	0.22238505
877.196	0.22217271
877.37	0.22216458
877.545	0.22221027
877.72	0.22226842
877.894	0.22217573
878.069	0.22179297
878.243	0.22159396
878.418	0.22158895
878.592	0.22123963
878.767	0.22106304
878.941	0.22088011
879.116	0.220755
879.29	0.2208277
879.464	0.22073142
879.639	0.22067888
879.813	0.22086109
879.987	0.22070771
880.162	0.22061485
880.336	0.22045694
880.51	0.22044249
880.685	0.22045554
880.859	0.22035514
881.033	0.22007996
881.207	0.21979363
881.381	0.21958421
881.556	0.21941865
881.73	0.21912926
881.904	0.21903908
882.078	0.2188986
882.252	0.21883409
882.426	0.21892612
882.6	0.21892874
882.774	0.21905931
882.948	0.21912481
883.122	0.21901323
883.296	0.2189642
883.47	0.21893818
883.644	0.21892972
883.818	0.21875625
883.992	0.21857335
884.166	0.21847406
884.34	0.21842408
884.514	0.21838889
884.687	0.21826924
884.861	0.21807335
885.035	0.21811581
885.209	0.21791143
885.382	0.21772978
885.556	0.21745914
885.73	0.21733707
885.904	0.21716608
886.077	0.2171079
886.251	0.21701224
886.425	0.21701073
886.598	0.21691888
886.772	0.21683526
886.945	0.21656898
887.119	0.21641404
887.292	0.21618959
887.466	0.21603941
887.64	0.21589489
887.813	0.21588116
887.986	0.21590034
888.16	0.2160328
888.333	0.21604535
888.507	0.21592947
888.68	0.21571087
888.854	0.21563498
889.027	0.21552284
889.2	0.21540564
889.374	0.21516028
889.547	0.21491034
889.72	0.21487913
889.893	0.2147656
890.067	0.21452244
890.24	0.21434085
890.413	0.21414046
890.586	0.21393363
890.759	0.21394205
890.933	0.21384498
891.106	0.21384818
891.279	0.21402869
891.452	0.21401125
891.625	0.21394016
891.798	0.21396032
891.971	0.21379201
892.144	0.21363747
892.317	0.21346699
892.49	0.21307509
892.663	0.21307403
892.836	0.21310987
893.009	0.2130911
893.182	0.21296942
893.355	0.21309815
893.527	0.21315924
893.7	0.2133236
893.873	0.21321442
894.046	0.21304696
894.219	0.2129995
894.391	0.21300628
894.564	0.21281865
894.737	0.21254366
894.91	0.21231729
895.082	0.21218557
895.255	0.21216356
895.428	0.21192016
895.6	0.2117164
895.773	0.21147751
895.945	0.21134696
896.118	0.21123175
896.291	0.21103548
896.463	0.21078462
896.636	0.21062969
896.808	0.21059035
896.981	0.21055205
897.153	0.21057024
897.326	0.21055734
897.498	0.21035429
897.67	0.21024493
897.843	0.21010423
898.015	0.21005919
898.187	0.20995063
898.36	0.20971493
898.532	0.20953069
898.704	0.20965619
898.877	0.20972779
899.049	0.20984113
899.221	0.20993812
899.393	0.21002922
899.566	0.21018192
899.738	0.21029156
899.91	0.2102433
900.082	0.21004173
900.254	0.20991702
900.426	0.2096576
900.598	0.20944075
900.77	0.20908377
900.942	0.20877257
901.114	0.20842456
901.286	0.20828195
901.458	0.20810835
901.63	0.20799511
901.802	0.2079222
901.974	0.20815385
902.146	0.20809659
902.318	0.20815263
902.49	0.20811634
902.662	0.20792594
902.834	0.20777563
903.005	0.20777059
903.177	0.20753436
903.349	0.20751711
903.521	0.20745412
903.693	0.20726742
903.864	0.20729398
904.036	0.20719505
904.208	0.20691597
904.379	0.20680452
904.551	0.20665053
904.723	0.20649182
904.894	0.20652884
905.066	0.20646023
905.237	0.20650078
905.409	0.20646249
905.58	0.20644979
905.752	0.20634589
905.923	0.20626138
906.095	0.20605585
906.266	0.20595774
906.438	0.20587511
906.609	0.20582398
906.78	0.20561331
906.952	0.20557478
907.123	0.20538159
907.295	0.20541008
907.466	0.20529364
907.637	0.20506053
907.808	0.204849
907.98	0.20460464
908.151	0.20439237
908.322	0.20433905
908.493	0.20409346
908.665	0.2038962
908.836	0.20377144
909.007	0.20372381
909.178	0.2035784
909.349	0.20343296
909.52	0.20342386
909.691	0.20331273
909.862	0.2033543
910.033	0.20336173
910.204	0.20339857
910.375	0.20356569
910.546	0.2036487
910.717	0.20343403
910.888	0.20354924
911.059	0.20341064
911.23	0.20325099
911.401	0.20290078
911.572	0.20261385
911.742	0.20231365
911.913	0.20219666
912.084	0.20175132
912.255	0.20161024
912.426	0.20132241
912.596	0.20132486
912.767	0.20136863
912.938	0.20142671
913.108	0.20146099
913.279	0.20153219
913.45	0.20154346
913.62	0.20152377
913.791	0.20149048
913.962	0.20135635
914.132	0.20119131
914.303	0.20112337
914.473	0.20107602
914.644	0.20086117
914.814	0.20086029
914.985	0.20069122
915.155	0.20055042
915.326	0.20038011
915.496	0.20008117
915.666	0.19961769
915.837	0.19956058
916.007	0.19923122
916.177	0.19903819
916.348	0.1990428
916.518	0.19915104
916.688	0.19914124
916.858	0.19942097
917.029	0.19928171
917.199	0.19936199
917.369	0.19958315
917.539	0.19957602
917.709	0.19949316
917.88	0.19938548
918.05	0.1990891
918.22	0.19891831
918.39	0.19876015
918.56	0.19844573
918.73	0.19820531
918.9	0.19796835
919.07	0.19777565
919.24	0.19780672
919.41	0.19777783
919.58	0.19752093
919.75	0.19733723
919.92	0.19707404
920.09	0.19694477
920.26	0.1967449
920.429	0.19660257
920.599	0.19646007
920.769	0.1963272
920.939	0.19607044
921.109	0.19594786
921.278	0.19557295
921.448	0.19562111
921.618	0.19566493
921.787	0.19568081
921.957	0.19572374
922.127	0.19564122
922.296	0.19567635
922.466	0.19592102
922.636	0.19600699
922.805	0.19600225
922.975	0.19584889
923.144	0.1960217
923.314	0.19604892
923.483	0.19593773
923.653	0.19575775
923.822	0.19552728
923.992	0.19538479
924.161	0.19515407
924.331	0.1949373
924.5	0.1949509
924.669	0.1948405
924.839	0.19489081
925.008	0.19487988
925.177	0.19462461
925.347	0.19485809
925.516	0.19497632
925.685	0.19485425
925.854	0.19492126
926.023	0.19486523
926.193	0.19488101
926.362	0.19490798
926.531	0.19469698
926.7	0.19438901
926.869	0.1945918
927.038	0.19440075
927.207	0.1942281
927.376	0.19396413
927.545	0.19386111
927.715	0.1937294
927.884	0.19359118
928.052	0.19335849
928.221	0.19310479
928.39	0.19285596
928.559	0.19280306
928.728	0.19278931
928.897	0.1928701
929.066	0.19298354
929.235	0.19260774
929.404	0.19271803
929.572	0.19283352
929.741	0.19300705
929.91	0.19289346
930.079	0.19268356
930.247	0.19238942
930.416	0.19254065
930.585	0.19256391
930.753	0.19234627
930.922	0.19193787
931.091	0.19187847
931.259	0.19171203
931.428	0.19177745
931.596	0.19177
931.765	0.19180176
931.934	0.19189523
932.102	0.19166017
932.27	0.19128845
932.439	0.19115699
932.607	0.19090796
932.776	0.190659
932.944	0.19034777
933.113	0.19038038
933.281	0.19019861
933.449	0.18997514
933.618	0.18982676
933.786	0.18975551
933.954	0.18946811
934.123	0.18932441
934.291	0.18917292
934.459	0.18919177
934.627	0.18943474
934.795	0.18947919
934.964	0.18960806
935.132	0.18944981
935.3	0.18923313
935.468	0.18872458
935.636	0.18884093
935.804	0.18856862
935.972	0.18825069
936.14	0.18788175
936.308	0.18791075
936.476	0.18794206
936.644	0.18824
936.812	0.18808685
936.98	0.18784226
937.148	0.18759976
937.316	0.18694495
937.484	0.18762207
937.652	0.18721305
937.82	0.18725028
937.987	0.18710414
938.155	0.18708951
938.323	0.18729143
938.491	0.18739131
938.658	0.18693507
938.826	0.18678889
938.994	0.18619067
939.162	0.18580751
939.329	0.18611258
939.497	0.18665631
939.665	0.18674869
939.832	0.1864799
940	0.18695282
940.167	0.18725625
940.335	0.18715503
940.502	0.18660494
940.67	0.18564299
940.837	0.18622608
941.005	0.18599901
941.172	0.1858361
941.34	0.18598931
941.507	0.18764477
941.674	0.18885888
941.842	0.18959822
942.009	0.19102424
942.177	0.18952878
942.344	0.19018358
942.511	0.1894357
942.678	0.18858154
942.846	0.18792291
943.013	0.18794058
943.18	0.18646506
943.347	0.1883308
943.514	0.18742551
943.682	0.18893326
943.849	0.18859034
944.016	0.18749785
944.183	0.18652462
944.35	0.18715596
944.517	0.18752627
944.684	0.18831218
944.851	0.18460289
945.018	0.18376292
945.185	0.18454237
945.352	0.18449621
945.519	0.18390646
945.686	0.18257997
945.853	0.18338088
946.02	0.18483895
946.187	0.18359431
946.353	0.18470196
946.52	0.18559625
946.687	0.18531086
946.854	0.1853958
947.021	0.18455577
947.187	0.18382303
947.354	0.1848411
947.521	0.18352205
947.687	0.18228339
947.854	0.1817818
948.021	0.18130372
948.187	0.18098032
948.354	0.18146419
948.52	0.18194562
948.687	0.18189829
948.854	0.18245699
949.02	0.18170839
949.187	0.18187534
949.353	0.18217921
949.52	0.18125491
949.686	0.18085605
949.852	0.18102408
950.019	0.18147501
950.185	0.18319525
950.352	0.18243515
950.518	0.18112877
950.684	0.1817209
950.851	0.18148832
951.017	0.18026141
951.183	0.17944521
951.349	0.17792179
951.516	0.1776163
951.682	0.17812495
951.848	0.17796578
952.014	0.17762442
952.18	0.17878666
952.346	0.17818081
952.512	0.17845429
952.679	0.17941227
952.845	0.17913658
953.011	0.17899616
953.177	0.17900309
953.343	0.17762008
953.509	0.17853544
953.675	0.17837428
953.841	0.17754778
954.007	0.17841417
954.172	0.17879567
954.338	0.17827994
954.504	0.17792649
954.67	0.1765908
954.836	0.17712343
955.002	0.17729407
955.167	0.17628405
955.333	0.17490036
955.499	0.17501938
955.665	0.17499209
955.83	0.17552414
955.996	0.17504013
956.162	0.17521629
956.327	0.17538343
956.493	0.17577754
956.659	0.17647139
956.824	0.17699836
956.99	0.1768415
957.155	0.17673082
957.321	0.17687804
957.486	0.17640371
957.652	0.17649033
957.817	0.17600395
957.983	0.17565114
958.148	0.17530638
958.314	0.17484227
958.479	0.17361467
958.644	0.17328592
958.81	0.17309601
958.975	0.17272596
959.14	0.17265694
959.306	0.17275071
959.471	0.17273593
959.636	0.17319518
959.801	0.17385174
959.967	0.17368101
960.132	0.17395207
960.297	0.17416735
960.462	0.1744858
960.627	0.1748165
960.792	0.174535
960.957	0.17412638
961.123	0.17492862
961.288	0.17511615
961.453	0.17514796
961.618	0.17492695
961.783	0.17505273
961.948	0.17436202
962.113	0.17412364
962.277	0.17310861
962.442	0.17280451
962.607	0.1727314
962.772	0.17287069
962.937	0.17200129
963.102	0.17291546
963.267	0.17321654
963.431	0.17343547
963.596	0.17309375
963.761	0.17263703
963.926	0.17203085
964.09	0.17200112
964.255	0.17195424
964.42	0.17206513
964.584	0.17261143
964.749	0.17227824
964.914	0.17173947
965.078	0.17126384
965.243	0.17102101
965.407	0.17030068
965.572	0.16946565
965.736	0.16888964
965.901	0.16931551
966.065	0.17033814
966.23	0.17107976
966.394	0.17189845
966.559	0.17222218
966.723	0.17274205
966.887	0.17235437
967.052	0.17163814
967.216	0.17058456
967.38	0.1693015
967.545	0.16833367
967.709	0.16853418
967.873	0.16840019
968.037	0.16793312
968.202	0.1680677
968.366	0.16844997
968.53	0.1692064
968.694	0.16894008
968.858	0.16790732
969.022	0.1670316
969.187	0.16704831
969.351	0.16708907
969.515	0.16705377
969.679	0.16669102
969.843	0.16659052
970.007	0.1670081
970.171	0.16705352
970.335	0.16708053
970.499	0.16696112
970.662	0.16676454
970.826	0.16723765
970.99	0.16754945
971.154	0.16769774
971.318	0.16768091
971.482	0.16763542
971.645	0.16778579
971.809	0.16798501
971.973	0.16754946
972.137	0.16736308
972.3	0.16715192
972.464	0.16783841
972.628	0.16881993
972.791	0.1689835
972.955	0.16865786
973.119	0.16875036
973.282	0.16873393
973.446	0.16862684
973.609	0.16829754
973.773	0.16784029
973.936	0.1672079
974.1	0.16723281
974.263	0.16675128
974.427	0.16692138
974.59	0.16649905
974.754	0.1662325
974.917	0.16524094
975.08	0.16551385
975.244	0.16501765
975.407	0.16535496
975.57	0.1651705
975.734	0.1651522
975.897	0.16540316
976.06	0.16601822
976.223	0.16605349
976.387	0.16689407
976.55	0.16630796
976.713	0.16629092
976.876	0.16683244
977.039	0.16606353
977.202	0.16567782
977.365	0.16474483
977.528	0.16417995
977.692	0.16491324
977.855	0.16419975
978.018	0.16374293
978.181	0.16389022
978.344	0.16382747
978.506	0.16440762
978.669	0.1638385
978.832	0.16295539
978.995	0.16321084
979.158	0.16355095
979.321	0.16286013
979.484	0.16219827
979.646	0.16196042
979.809	0.1624568
979.972	0.1623485
980.135	0.16268415
980.297	0.16187678
980.46	0.16172519
980.623	0.16242872
980.786	0.16244249
980.948	0.16201581
981.111	0.16175184
981.273	0.16140187
981.436	0.16150904
981.599	0.16221407
981.761	0.16165137
981.924	0.1618891
982.086	0.16170915
982.249	0.16252596
982.411	0.16222415
982.573	0.16233765
982.736	0.16342154
982.898	0.16325202
983.061	0.16260264
983.223	0.16296107
983.385	0.16260862
983.548	0.16355672
983.71	0.16327664
983.872	0.16207822
984.034	0.162528
984.197	0.16166603
984.359	0.16152398
984.521	0.16176144
984.683	0.16164341
984.845	0.16191693
985.008	0.16169644
985.17	0.16231338
985.332	0.16360233
985.494	0.16273383
985.656	0.16260134
985.818	0.16150929
985.98	0.16136447
986.142	0.16066345
986.304	0.15968296
986.466	0.15887021
986.628	0.15919882
986.79	0.15894808
986.952	0.15896535
987.113	0.15871041
987.275	0.15937577
987.437	0.16006488
987.599	0.16129911
987.761	0.16145522
987.922	0.1614765
988.084	0.16233089
988.246	0.16293459
988.408	0.1626659
988.569	0.16208004
988.731	0.16111767
988.893	0.16090547
989.054	0.16092251
989.216	0.16027774
989.377	0.15896717
989.539	0.15919514
989.701	0.15797934
989.862	0.15764692
990.024	0.15745891
990.185	0.15618131
990.347	0.15594016
990.508	0.15608731
990.669	0.15601516
990.831	0.15707763
990.992	0.15848568
991.154	0.15802639
991.315	0.15986475
991.476	0.16025625
991.638	0.16057917
991.799	0.16058868
991.96	0.16022297
992.121	0.15884572
992.283	0.16010388
992.444	0.15883263
992.605	0.1587739
992.766	0.15859657
992.927	0.15788016
993.088	0.15825914
993.249	0.1586279
993.41	0.15719047
993.572	0.15707817
993.733	0.15664018
993.894	0.15678016
994.055	0.15613639
994.216	0.1555393
994.376	0.15424143
994.537	0.15492467
994.698	0.15513719
994.859	0.15457367
995.02	0.15381758
995.181	0.15326037
995.342	0.1539754
995.503	0.15348469
995.663	0.15309293
995.824	0.15255269
995.985	0.15407267
996.146	0.15520115
996.306	0.15568747
996.467	0.15575038
996.628	0.15746744
996.788	0.15747717
996.949	0.15815974
997.11	0.15637123
997.27	0.15497813
997.431	0.15517679
997.591	0.15280321
997.752	0.15103847
997.912	0.1508879
998.073	0.15001572
998.233	0.1514194
998.394	0.15161116
998.554	0.15254586
998.714	0.15327751
998.875	0.15270669
999.035	0.15161345
999.196	0.15228826
999.356	0.15091514
999.516	0.1520728
999.676	0.15202337
999.837	0.15341558
999.997	0.15407746
1000.157	0.15520836
1000.317	0.15410103
1000.477	0.15382432
1000.638	0.15240895
1000.798	0.15325171
1000.958	0.15267603
1001.118	0.15295699
1001.278	0.15191694
1001.438	0.15244213
1001.598	0.15270473
1001.758	0.15374346
1001.918	0.15172335
1002.078	0.14951144
1002.238	0.15029877
1002.398	0.15148268
1002.558	0.15037563
1002.718	0.15028249
1002.878	0.14898109
1003.037	0.14710921
1003.197	0.14930097
1003.357	0.14766636
1003.517	0.14883025
1003.677	0.14807588
1003.836	0.14780846
1003.996	0.14796513
1004.156	0.14985813
1004.315	0.14927077
1004.475	0.15208905
1004.635	0.15224502
1004.794	0.15474571
1004.954	0.15535606
1005.114	0.15494447
1005.273	0.15614171
1005.433	0.15531791
1005.592	0.15435614
1005.752	0.15385596
1005.911	0.15284323
1006.071	0.15352675
1006.23	0.15276956
1006.389	0.15019756
1006.549	0.15016912
1006.708	0.14908203
1006.868	0.14704478
1007.027	0.14733967
1007.186	0.14602867
1007.345	0.14874069
1007.505	0.14987631
1007.664	0.1518939
1007.823	0.15046561
1007.982	0.1523111
1008.142	0.15203812
1008.301	0.15305564
1008.46	0.15091458
1008.619	0.14962492
1008.778	0.14880235
1008.937	0.14868465
1009.096	0.14835638
1009.255	0.14914825
1009.414	0.14569855
1009.573	0.14691726
1009.732	0.14866156
1009.891	0.14702096
1010.05	0.14856146
1010.209	0.14641739
1010.368	0.14578452
1010.527	0.14776017
1010.686	0.14750206
1010.845	0.14537144
1011.003	0.14521014
1011.162	0.1446668
1011.321	0.14348932
1011.48	0.14411345
1011.638	0.14476827
1011.797	0.14434051
1011.956	0.14679418
1012.115	0.1492411
1012.273	0.14892899
1012.432	0.15040055
1012.59	0.14853806
1012.749	0.14707463
1012.908	0.14618592
1013.066	0.14543904
1013.225	0.14255149
1013.383	0.14357329
1013.542	0.14351156
1013.7	0.14488627
1013.859	0.1474838
1014.017	0.14959026
1014.175	0.14684816
1014.334	0.14920782
1014.492	0.14971108
1014.65	0.14912409
1014.809	0.14831213
1014.967	0.14606927
1015.125	0.14519076
1015.284	0.14992936
1015.442	0.15006942
1015.6	0.14802032
1015.758	0.14797585
1015.916	0.14681245
1016.075	0.14587133
1016.233	0.14312243
1016.391	0.14362002
1016.549	0.14292747
1016.707	0.14427663
1016.865	0.14506671
1017.023	0.14257974
1017.181	0.14407855
1017.339	0.14651058
1017.497	0.14435009
1017.655	0.14355495
1017.813	0.14167628
1017.971	0.14361351
1018.129	0.14769671
1018.286	0.14936496
1018.444	0.14519374
1018.602	0.14435234
1018.76	0.14309479
1018.918	0.14615377
1019.075	0.14431923
1019.233	0.14272187
1019.391	0.14013502
1019.549	0.14555018
1019.706	0.14717058
1019.864	0.14923662
1020.022	0.15083891
1020.179	0.15358846
1020.337	0.15408577
1020.494	0.15165606
1020.652	0.14708411
1020.809	0.14491252
1020.967	0.14075147
1021.124	0.1381074
1021.282	0.1356244
1021.439	0.13415171
1021.597	0.13805696
1021.754	0.14153034
1021.911	0.1469342
1022.069	0.14917879
1022.226	0.15000544
1022.384	0.148422
1022.541	0.14697248
1022.698	0.14478533
1022.855	0.14396248
1023.013	0.1397541
1023.17	0.13912747
1023.327	0.13927438
1023.484	0.13944716
1023.641	0.14315245
1023.798	0.14610395
1023.956	0.15274417
1024.113	0.15048675
1024.27	0.14970156
1024.427	0.15053984
1024.584	0.14980362
1024.741	0.14605961
1024.898	0.14260385
1025.055	0.1324641
1025.212	0.13041152
1025.369	0.12901381
1025.525	0.12548913
1025.682	0.12884337
1025.839	0.13456825
1025.996	0.13501749
1026.153	0.14153048
1026.31	0.14681636
1026.466	0.15205767
1026.623	0.15514253
1026.78	0.15250994
1026.937	0.15158747
1027.093	0.15540888
1027.25	0.15842381
1027.407	0.15881501
1027.563	0.15753361
1027.72	0.15462137
1027.876	0.14668629
1028.033	0.14938829
1028.19	0.14528815
1028.346	0.13837349
1028.503	0.13529378
1028.659	0.13734484
1028.816	0.14112503
1028.972	0.15557653
1029.128	0.15400699
1029.285	0.15525771
1029.441	0.15439632
1029.598	0.15266723
1029.754	0.15732716
1029.91	0.15511856
1030.067	0.14705255
1030.223	0.14429093
1030.379	0.15046112
1030.535	0.15579886
1030.691	0.15321604
1030.848	0.15370826
1031.004	0.15102258
1031.16	0.16092723
1031.316	0.16711306
1031.472	0.17030287
1031.628	0.16743488
1031.784	0.17587536
1031.94	0.17402358
1032.096	0.18048427
1032.252	0.17316033
1032.408	0.17536837
1032.564	0.16474718
1032.72	0.16621975
1032.876	0.16038707
1033.032	0.14856626
1033.188	0.14358124
1033.344	0.14341022
1033.5	0.13681381
1033.655	0.13577715
1033.811	0.1332132
1033.967	0.13673858
