Data from 0_1_mm_pl_100pc_Absorbance__0__15-34-37-214.txt Node

Date: Fri Feb 24 15:34:37 CET 2023
User: Ange
Spectrometer: FLMT08341
Trigger mode: 0
Integration Time (sec): 1.000000E-2
Scans to average: 400
Electric dark correction enabled: true
Nonlinearity correction enabled: false
Boxcar width: 3
XAxis mode: Wavelengths
Number of Pixels in Spectrum: 3648
>>>>>Begin Spectral Data<<<<<
345.271	0.0015885
345.487	0.00976179
345.704	-0.00116021
345.921	-0.00710718
346.137	-0.01056761
346.354	0.01468659
346.571	0.05215037
346.787	0.05489229
347.004	0.03481988
347.22	0.06582854
347.437	-0.16807276
347.653	-0.36407903
347.87	0.01789911
348.086	-0.13765498
348.303	-0.15371964
348.519	0.29190277
348.736	0.27836406
348.952	0.26417236
349.169	0.27244193
349.385	0.2833713
349.601	0.28200185
349.818	0.2813532
350.034	0.2804164
350.251	0.28168059
350.467	0.28669451
350.683	0.282322
350.9	0.28570043
351.116	0.28477597
351.332	0.28531324
351.549	0.29574093
351.765	0.30483188
351.981	0.31248534
352.197	0.32434553
352.414	0.33840093
352.63	0.35084548
352.846	0.36048602
353.062	0.36044499
353.278	0.35788745
353.495	0.36624003
353.711	0.37100134
353.927	0.37037676
354.143	0.36956305
354.359	0.36790346
354.575	0.36671366
354.792	0.37732686
355.008	0.36974301
355.224	0.36546926
355.44	0.36559715
355.656	0.36908963
355.872	0.37508269
356.088	0.39258414
356.304	0.39541424
356.52	0.40215785
356.736	0.40983841
356.952	0.41575076
357.168	0.4177567
357.384	0.4255577
357.6	0.41659045
357.816	0.42513983
358.032	0.4338832
358.248	0.44678037
358.464	0.45137723
358.679	0.45978739
358.895	0.46336057
359.111	0.47424344
359.327	0.46628656
359.543	0.47053442
359.759	0.47550336
359.974	0.4785891
360.19	0.47745844
360.406	0.47848465
360.622	0.47824307
360.838	0.48225399
361.053	0.48803639
361.269	0.49097989
361.485	0.49326519
361.701	0.50149936
361.916	0.49979878
362.132	0.50195784
362.348	0.50689364
362.563	0.50862211
362.779	0.50487063
362.995	0.51155698
363.21	0.51670672
363.426	0.52185013
363.641	0.52697387
363.857	0.5335949
364.073	0.53452048
364.288	0.53585314
364.504	0.54550766
364.719	0.54833874
364.935	0.55130056
365.15	0.55444014
365.366	0.55855529
365.581	0.5674131
365.797	0.57212826
366.012	0.56507848
366.228	0.56173388
366.443	0.5726652
366.658	0.57673829
366.874	0.57403196
367.089	0.58035324
367.305	0.58506523
367.52	0.59057545
367.735	0.59205047
367.951	0.58629211
368.166	0.58805646
368.381	0.59806171
368.597	0.59360491
368.812	0.59881651
369.027	0.60356082
369.243	0.61051601
369.458	0.62640516
369.673	0.63089947
369.888	0.63284305
370.104	0.63018057
370.319	0.63603482
370.534	0.63639842
370.749	0.64064097
370.964	0.64015312
371.179	0.64071687
371.395	0.63873264
371.61	0.64906081
371.825	0.64381576
372.04	0.64775882
372.255	0.64539973
372.47	0.64493189
372.685	0.64303056
372.9	0.64645501
373.115	0.64306648
373.33	0.64904522
373.545	0.65132514
373.76	0.6592472
373.975	0.65998776
374.19	0.6628452
374.405	0.66725393
374.62	0.68082385
374.835	0.69092351
375.05	0.69433
375.265	0.69460479
375.48	0.69861442
375.695	0.71330564
375.91	0.71024871
376.125	0.69852295
376.339	0.68768264
376.554	0.69222281
376.769	0.69549698
376.984	0.69783209
377.199	0.70016926
377.414	0.70429743
377.628	0.71782694
377.843	0.73038635
378.058	0.73327976
378.273	0.74190436
378.487	0.74688445
378.702	0.75138477
378.917	0.75500808
379.131	0.75269192
379.346	0.7458239
379.561	0.74439236
379.775	0.74122588
379.99	0.73516952
380.205	0.72924562
380.419	0.72606488
380.634	0.72196248
380.848	0.73300691
381.063	0.73590961
381.278	0.74672071
381.492	0.74821005
381.707	0.76059819
381.921	0.76541235
382.136	0.78004846
382.35	0.7745879
382.565	0.77322926
382.779	0.7725328
382.994	0.77970352
383.208	0.77157839
383.422	0.7827074
383.637	0.78185334
383.851	0.79356354
384.066	0.80349872
384.28	0.80833313
384.494	0.81249459
384.709	0.82207266
384.923	0.82370833
385.137	0.81998229
385.352	0.8202664
385.566	0.82590285
385.78	0.82797756
385.995	0.82695903
386.209	0.82559369
386.423	0.83206773
386.637	0.84168696
386.852	0.83807707
387.066	0.83660191
387.28	0.8326321
387.494	0.84276405
387.708	0.8471676
387.923	0.84617248
388.137	0.85311597
388.351	0.86211812
388.565	0.86978538
388.779	0.8770384
388.993	0.88868002
389.207	0.89305021
389.421	0.90050696
389.635	0.89633776
389.85	0.896446
390.064	0.89586319
390.278	0.90060593
390.492	0.89943364
390.706	0.90246454
390.92	0.90194714
391.134	0.9125011
391.348	0.9279794
391.561	0.93033505
391.775	0.9294744
391.989	0.92398923
392.203	0.92902675
392.417	0.93392633
392.631	0.94144759
392.845	0.93671845
393.059	0.94533088
393.273	0.94581863
393.486	0.94229848
393.7	0.93645051
393.914	0.94250921
394.128	0.93724873
394.342	0.93629298
394.555	0.92899046
394.769	0.93237641
394.983	0.94027233
395.197	0.95025477
395.41	0.95183063
395.624	0.95912759
395.838	0.96074733
396.051	0.97723299
396.265	0.97535436
396.479	0.98150803
396.692	0.98188948
396.906	0.97530671
397.12	0.97225811
397.333	0.97967251
397.547	0.97456561
397.76	0.98580012
397.974	0.98822445
398.187	0.99349757
398.401	1.00574861
398.614	1.01093863
398.828	1.01304919
399.041	1.0169413
399.255	1.01501567
399.468	1.01442213
399.682	1.01488187
399.895	1.01677368
400.109	1.01481451
400.322	1.01417653
400.536	1.00558316
400.749	1.01569879
400.962	1.02148503
401.176	1.02069493
401.389	1.01942181
401.602	1.01174337
401.816	1.01597724
402.029	1.02890867
402.242	1.02278185
402.456	1.02334246
402.669	1.02079135
402.882	1.0120011
403.095	1.02751577
403.309	1.02699375
403.522	1.02788129
403.735	1.02678701
403.948	1.02604157
404.161	1.04276102
404.375	1.0503652
404.588	1.05011611
404.801	1.05146673
405.014	1.04742196
405.227	1.05776548
405.44	1.06178028
405.653	1.06024699
405.866	1.05560776
406.079	1.05444557
406.293	1.05452349
406.506	1.05852479
406.719	1.05620727
406.932	1.05370815
407.145	1.04674557
407.358	1.05976687
407.571	1.05522036
407.784	1.05848792
407.996	1.05981667
408.209	1.05366302
408.422	1.05296665
408.635	1.05846689
408.848	1.05848719
409.061	1.05476146
409.274	1.05175444
409.487	1.04984765
409.7	1.05321189
409.912	1.0553932
410.125	1.05462096
410.338	1.05160682
410.551	1.05404749
410.764	1.05621825
410.976	1.05562884
411.189	1.05614054
411.402	1.05128262
411.615	1.052549
411.827	1.05277003
412.04	1.05490909
412.253	1.05169464
412.465	1.05049602
412.678	1.04779152
412.891	1.05408257
413.103	1.041897
413.316	1.03891089
413.529	1.04289893
413.741	1.04676033
413.954	1.04919752
414.166	1.05085983
414.379	1.04660576
414.591	1.05429597
414.804	1.0509283
415.016	1.04696246
415.229	1.04226673
415.441	1.03705092
415.654	1.03758621
415.866	1.03651278
416.079	1.03716548
416.291	1.03561027
416.504	1.03939069
416.716	1.03955894
416.928	1.04125572
417.141	1.03671789
417.353	1.03833142
417.566	1.02963721
417.778	1.03046197
417.99	1.01925845
418.203	1.01343534
418.415	1.01018549
418.627	1.01157748
418.839	1.0080889
419.052	1.01572332
419.264	1.01490288
419.476	1.01787793
419.688	1.02015141
419.901	1.01871923
420.113	1.01418956
420.325	1.01058176
420.537	1.00211008
420.749	1.00054506
420.961	0.99879741
421.174	0.99563141
421.386	0.99216607
421.598	0.99001951
421.81	0.98754953
422.022	0.98457488
422.234	0.98247589
422.446	0.97749804
422.658	0.97376641
422.87	0.9732945
423.082	0.97012035
423.294	0.96738637
423.506	0.96759977
423.718	0.96489376
423.93	0.96194017
424.142	0.95829968
424.354	0.95350693
424.566	0.95177232
424.778	0.95122526
424.99	0.94774983
425.202	0.94321512
425.414	0.94176793
425.625	0.94234769
425.837	0.93779868
426.049	0.93714915
426.261	0.93261877
426.473	0.92705942
426.684	0.92498175
426.896	0.92458455
427.108	0.92010218
427.32	0.92074462
427.531	0.91459917
427.743	0.91259038
427.955	0.91484161
428.167	0.91127408
428.378	0.90668605
428.59	0.90362124
428.802	0.90007762
429.013	0.89716637
429.225	0.89319964
429.436	0.88781623
429.648	0.88718048
429.86	0.88599662
430.071	0.8841597
430.283	0.88113472
430.494	0.87836827
430.706	0.87688737
430.917	0.87400712
431.129	0.87052386
431.34	0.86632872
431.552	0.86425647
431.763	0.86085567
431.975	0.86060749
432.186	0.8555734
432.398	0.85254457
432.609	0.84639947
432.821	0.84332308
433.032	0.83984668
433.243	0.83623976
433.455	0.83218262
433.666	0.83076114
433.877	0.82930137
434.089	0.82644267
434.3	0.82269787
434.511	0.81762594
434.723	0.81482067
434.934	0.80984054
435.145	0.80499478
435.356	0.79970501
435.568	0.7979427
435.779	0.7947614
435.99	0.79152275
436.201	0.7880118
436.412	0.78563452
436.624	0.78413097
436.835	0.78317874
437.046	0.78131353
437.257	0.77829106
437.468	0.77744923
437.679	0.7758097
437.89	0.7731525
438.101	0.77051249
438.312	0.76664951
438.523	0.76271815
438.734	0.76032909
438.945	0.75682525
439.156	0.75240391
439.367	0.74946183
439.578	0.74731936
439.789	0.7432155
440	0.74044619
440.211	0.73624225
440.422	0.73313326
440.633	0.73152922
440.844	0.72778896
441.055	0.72323919
441.266	0.72147346
441.477	0.71756332
441.687	0.71538776
441.898	0.71236542
442.109	0.7078891
442.32	0.70531083
442.531	0.70158856
442.741	0.69643903
442.952	0.69349543
443.163	0.69038712
443.374	0.68643241
443.584	0.68319259
443.795	0.68034737
444.006	0.67766042
444.216	0.67533112
444.427	0.67122149
444.638	0.66736753
444.848	0.6643931
445.059	0.66144088
445.27	0.6577511
445.48	0.65441649
445.691	0.65181387
445.901	0.64972352
446.112	0.6467919
446.323	0.6430812
446.533	0.63991812
446.744	0.63638131
446.954	0.63295289
447.165	0.62958836
447.375	0.62693147
447.586	0.62447357
447.796	0.62219654
448.006	0.6192169
448.217	0.61716633
448.427	0.61431881
448.638	0.6107428
448.848	0.60651769
449.058	0.60307024
449.269	0.5997547
449.479	0.59664878
449.689	0.59305121
449.9	0.590242
450.11	0.58733047
450.32	0.58561274
450.531	0.58231192
450.741	0.57898771
450.951	0.57604684
451.161	0.57283189
451.372	0.57006723
451.582	0.56887415
451.792	0.56512962
452.002	0.56204956
452.212	0.55888596
452.422	0.55615215
452.633	0.55312297
452.843	0.55022929
453.053	0.54521357
453.263	0.54261865
453.473	0.5395535
453.683	0.53730019
453.893	0.53373189
454.103	0.53137022
454.313	0.52826732
454.523	0.52556098
454.733	0.52260735
454.943	0.5206536
455.153	0.51804221
455.363	0.51554678
455.573	0.51268227
455.783	0.51019521
455.993	0.50754831
456.203	0.50518874
456.413	0.50184788
456.623	0.49844375
456.833	0.4963718
457.042	0.49332903
457.252	0.49028381
457.462	0.48772872
457.672	0.4847941
457.882	0.48222066
458.091	0.47938129
458.301	0.47582895
458.511	0.47302959
458.721	0.47020238
458.931	0.46728269
459.14	0.4644601
459.35	0.46216554
459.56	0.46016975
459.769	0.45818178
459.979	0.45539794
460.189	0.45304201
460.398	0.45057264
460.608	0.44826778
460.817	0.44542818
461.027	0.44253533
461.237	0.43957542
461.446	0.43696638
461.656	0.4345109
461.865	0.43185082
462.075	0.4291729
462.284	0.42673432
462.494	0.42420763
462.703	0.42152253
462.913	0.41941778
463.122	0.41671678
463.332	0.41413002
463.541	0.41177842
463.751	0.40918052
463.96	0.40689842
464.169	0.40455644
464.379	0.40234892
464.588	0.40001088
464.797	0.39778305
465.007	0.39541584
465.216	0.3931965
465.425	0.3908037
465.635	0.3886615
465.844	0.38621016
466.053	0.38385157
466.263	0.38153262
466.472	0.3791109
466.681	0.37677313
466.89	0.37421133
467.099	0.37177471
467.309	0.36925707
467.518	0.36703071
467.727	0.3645234
467.936	0.36209851
468.145	0.35991731
468.354	0.35794702
468.563	0.35547552
468.772	0.35316883
468.982	0.35093653
469.191	0.34889185
469.4	0.34672553
469.609	0.34451085
469.818	0.34252674
470.027	0.34046148
470.236	0.33831296
470.445	0.33613278
470.654	0.33387605
470.863	0.33167392
471.072	0.32950778
471.28	0.3269523
471.489	0.32489837
471.698	0.32297155
471.907	0.32093611
472.116	0.31905335
472.325	0.3170385
472.534	0.315075
472.743	0.31306026
472.951	0.311184
473.16	0.30909799
473.369	0.30709738
473.578	0.30515852
473.786	0.30319094
473.995	0.30108492
474.204	0.29920895
474.413	0.29724525
474.621	0.2953188
474.83	0.29353047
475.039	0.29156362
475.247	0.28989987
475.456	0.28819378
475.665	0.28635662
475.873	0.28447135
476.082	0.28242232
476.291	0.28060794
476.499	0.27884364
476.708	0.27669928
476.916	0.27486957
477.125	0.27298699
477.333	0.2711256
477.542	0.2694166
477.75	0.26754175
477.959	0.26578799
478.167	0.2641139
478.376	0.2622897
478.584	0.2606334
478.793	0.25882904
479.001	0.25704972
479.209	0.25538338
479.418	0.25367689
479.626	0.25194792
479.834	0.25025608
480.043	0.24846995
480.251	0.24678001
480.459	0.24506933
480.668	0.24339313
480.876	0.24164548
481.084	0.24003115
481.293	0.2384124
481.501	0.23675999
481.709	0.23517281
481.917	0.23367824
482.125	0.23201105
482.334	0.23052315
482.542	0.22893895
482.75	0.22724499
482.958	0.22576865
483.166	0.2242232
483.374	0.22262932
483.583	0.22108775
483.791	0.21955409
483.999	0.21794655
484.207	0.21651367
484.415	0.21500208
484.623	0.21345989
484.831	0.21197922
485.039	0.21058527
485.247	0.20898015
485.455	0.20749469
485.663	0.20603143
485.871	0.20452082
486.079	0.20298815
486.287	0.20144659
486.495	0.2000001
486.702	0.19855234
486.91	0.19715803
487.118	0.19570475
487.326	0.19430921
487.534	0.19300285
487.742	0.19170063
487.95	0.19034474
488.157	0.18904381
488.365	0.18770003
488.573	0.18637635
488.781	0.18507856
488.988	0.18374443
489.196	0.18243568
489.404	0.18109509
489.612	0.17983594
489.819	0.17854922
490.027	0.17724885
490.235	0.17599378
490.442	0.17473003
490.65	0.17343926
490.857	0.17233322
491.065	0.17100838
491.273	0.16980256
491.48	0.16856181
491.688	0.16728721
491.895	0.16607467
492.103	0.16488419
492.31	0.16359206
492.518	0.16239888
492.725	0.16124962
492.933	0.16008766
493.14	0.15885513
493.348	0.15761795
493.555	0.15642953
493.763	0.15524174
493.97	0.15404741
494.177	0.15284307
494.385	0.15171966
494.592	0.1506117
494.8	0.14950408
495.007	0.14841262
495.214	0.1473514
495.422	0.14631334
495.629	0.14523803
495.836	0.14412422
496.043	0.14308317
496.251	0.14209125
496.458	0.14095881
496.665	0.1399484
496.872	0.13888164
497.08	0.13788199
497.287	0.13687114
497.494	0.13580071
497.701	0.13475785
497.908	0.13377649
498.115	0.13272645
498.322	0.131727
498.53	0.13065567
498.737	0.12959665
498.944	0.12864312
499.151	0.12765775
499.358	0.12671443
499.565	0.12578066
499.772	0.12477534
499.979	0.12390357
500.186	0.12295811
500.393	0.12200513
500.6	0.121133
500.807	0.12020748
501.014	0.119204
501.221	0.11830689
501.427	0.11725189
501.634	0.11633754
501.841	0.11540412
502.048	0.11444515
502.255	0.11356509
502.462	0.11276579
502.669	0.11191338
502.875	0.11109564
503.082	0.11024535
503.289	0.10935549
503.496	0.10849064
503.702	0.10761168
503.909	0.10670856
504.116	0.10577884
504.323	0.10497836
504.529	0.10416671
504.736	0.10339772
504.943	0.1025723
505.149	0.10183434
505.356	0.10110129
505.563	0.10038991
505.769	0.09960558
505.976	0.0988458
506.182	0.09810032
506.389	0.09735283
506.595	0.09659869
506.802	0.09582479
507.008	0.09505571
507.215	0.09436507
507.421	0.09359291
507.628	0.09282379
507.834	0.09205989
508.041	0.09129161
508.247	0.09056857
508.454	0.08982714
508.66	0.0890485
508.866	0.08834965
509.073	0.08764715
509.279	0.08700466
509.486	0.08630634
509.692	0.08557575
509.898	0.08493278
510.105	0.08435009
510.311	0.08371682
510.517	0.0830837
510.723	0.08235466
510.93	0.08171679
511.136	0.08109144
511.342	0.08037723
511.548	0.07966327
511.754	0.07901851
511.961	0.07831188
512.167	0.07768866
512.373	0.07704219
512.579	0.07641192
512.785	0.0758499
512.991	0.07528767
513.197	0.07462243
513.404	0.07407053
513.61	0.073491
513.816	0.07291255
514.022	0.07234562
514.228	0.07172578
514.434	0.07105723
514.64	0.07048967
514.846	0.06988853
515.052	0.06932622
515.258	0.06877654
515.464	0.06819033
515.669	0.06761997
515.875	0.0671084
516.081	0.0665807
516.287	0.06605818
516.493	0.0655668
516.699	0.06501939
516.905	0.06450703
517.111	0.0639874
517.316	0.06343967
517.522	0.06297279
517.728	0.06240491
517.934	0.06183158
518.139	0.06133882
518.345	0.0608254
518.551	0.06038919
518.757	0.05996201
518.962	0.0594187
519.168	0.05896569
519.374	0.05847114
519.579	0.05794133
519.785	0.05744116
519.991	0.05695562
520.196	0.05646902
520.402	0.05601789
520.607	0.05553625
520.813	0.05511324
521.018	0.05469189
521.224	0.05423085
521.429	0.05375375
521.635	0.05330212
521.84	0.05286562
522.046	0.05239989
522.251	0.05193165
522.457	0.05150881
522.662	0.05115176
522.868	0.05071571
523.073	0.05028615
523.279	0.04982299
523.484	0.04946001
523.689	0.04905755
523.895	0.0486141
524.1	0.04813977
524.305	0.04774873
524.511	0.04728869
524.716	0.0468944
524.921	0.04642933
525.126	0.04599272
525.332	0.04560208
525.537	0.04524072
525.742	0.04484993
525.947	0.04449747
526.153	0.04409871
526.358	0.04376449
526.563	0.04343842
526.768	0.04302988
526.973	0.04265743
527.178	0.04231071
527.383	0.041962
527.588	0.04163483
527.794	0.04130962
527.999	0.04097006
528.204	0.04065274
528.409	0.04028019
528.614	0.03988667
528.819	0.03954268
529.024	0.03920817
529.229	0.03886801
529.434	0.03848993
529.639	0.03816532
529.843	0.03786425
530.048	0.03756731
530.253	0.03726199
530.458	0.03697052
530.663	0.0366565
530.868	0.03636175
531.073	0.03606538
531.278	0.03574083
531.482	0.03542212
531.687	0.03512134
531.892	0.03478342
532.097	0.03444657
532.302	0.03417806
532.506	0.03389455
532.711	0.03365294
532.916	0.033375
533.12	0.03309694
533.325	0.03282786
533.53	0.03255952
533.734	0.03224764
533.939	0.0319006
534.144	0.03158059
534.348	0.03130567
534.553	0.03098163
534.757	0.03069916
534.962	0.03042436
535.167	0.03015705
535.371	0.02993038
535.576	0.02965397
535.78	0.02941044
535.985	0.02916443
536.189	0.0289249
536.394	0.0286711
536.598	0.02843598
536.803	0.02826038
537.007	0.02803613
537.211	0.02778848
537.416	0.02756233
537.62	0.02732817
537.825	0.02712038
538.029	0.02684364
538.233	0.0265665
538.438	0.02632895
538.642	0.02612282
538.846	0.02589461
539.05	0.02564771
539.255	0.02544911
539.459	0.02524974
539.663	0.02501172
539.867	0.0247518
540.072	0.02452778
540.276	0.02429368
540.48	0.02412054
540.684	0.02386197
540.888	0.02367273
541.092	0.02351849
541.297	0.02334444
541.501	0.02310128
541.705	0.0229178
541.909	0.02269724
542.113	0.02254288
542.317	0.02235453
542.521	0.02213871
542.725	0.02196102
542.929	0.02177249
543.133	0.02155649
543.337	0.02135513
543.541	0.02113168
543.745	0.02091951
543.949	0.02071546
544.153	0.02051108
544.357	0.02038553
544.56	0.02021662
544.764	0.02002434
544.968	0.01983983
545.172	0.01964194
545.376	0.01946232
545.58	0.01928257
545.783	0.01908704
545.987	0.01894454
546.191	0.01879919
546.395	0.01869329
546.598	0.01854199
546.802	0.01838048
547.006	0.01822171
547.21	0.01803704
547.413	0.01784653
547.617	0.01767959
547.821	0.01748683
548.024	0.01735289
548.228	0.01718089
548.431	0.01703205
548.635	0.0168879
548.839	0.01675421
549.042	0.01661629
549.246	0.01645467
549.449	0.01632609
549.653	0.01621525
549.856	0.01607918
550.06	0.01590496
550.263	0.01572307
550.467	0.01559549
550.67	0.0154615
550.874	0.01528847
551.077	0.01513828
551.28	0.01500845
551.484	0.01488179
551.687	0.01477604
551.891	0.01459352
552.094	0.01441062
552.297	0.01424584
552.501	0.01407544
552.704	0.0139141
552.907	0.01379289
553.11	0.01369251
553.314	0.01360559
553.517	0.01352165
553.72	0.01339401
553.923	0.01327424
554.127	0.01315078
554.33	0.01302425
554.533	0.01289347
554.736	0.01278209
554.939	0.01262686
555.142	0.0125531
555.345	0.01242238
555.549	0.01231155
555.752	0.01221324
555.955	0.01210047
556.158	0.01197275
556.361	0.01189926
556.564	0.01177261
556.767	0.011693
556.97	0.01164814
557.173	0.01155782
557.376	0.01144039
557.579	0.01133696
557.782	0.01127245
557.984	0.01122348
558.187	0.01114914
558.39	0.01097936
558.593	0.01087087
558.796	0.01079176
558.999	0.01066205
559.202	0.01052637
559.404	0.01035372
559.607	0.01022718
559.81	0.01018601
560.013	0.01009538
560.216	0.00994337
560.418	0.00986732
560.621	0.00978202
560.824	0.00972919
561.026	0.00965958
561.229	0.00953575
561.432	0.00946766
561.634	0.00944713
561.837	0.00937333
562.04	0.00929496
562.242	0.009184
562.445	0.00907525
562.647	0.00896955
562.85	0.00886236
563.053	0.00873072
563.255	0.00865111
563.458	0.00852703
563.66	0.00847417
563.863	0.00842583
564.065	0.00834442
564.268	0.00825467
564.47	0.00821165
564.672	0.00811688
564.875	0.00808054
565.077	0.00801273
565.28	0.00791919
565.482	0.00787647
565.684	0.00780891
565.887	0.0077362
566.089	0.00771163
566.291	0.00765162
566.494	0.00756875
566.696	0.00746805
566.898	0.00735022
567.1	0.00726909
567.303	0.00719552
567.505	0.00710691
567.707	0.0070042
567.909	0.00686659
568.111	0.00684293
568.314	0.00682257
568.516	0.00677305
568.718	0.00670566
568.92	0.00663378
569.122	0.00655043
569.324	0.00656105
569.526	0.00648761
569.728	0.00639727
569.93	0.00631481
570.132	0.00625441
570.334	0.00618314
570.536	0.00617242
570.738	0.00613159
570.94	0.00607525
571.142	0.00604194
571.344	0.00600215
571.546	0.00592604
571.748	0.00587254
571.95	0.00577895
572.152	0.00571305
572.354	0.00562101
572.555	0.00554733
572.757	0.00546999
572.959	0.00538103
573.161	0.0052999
573.363	0.00524359
573.564	0.00516962
573.766	0.00512744
573.968	0.0050786
574.17	0.00504989
574.371	0.0050021
574.573	0.00496272
574.775	0.00493468
574.976	0.00486791
575.178	0.00479291
575.38	0.00471774
575.581	0.00462163
575.783	0.00459739
575.985	0.00456518
576.186	0.00453869
576.388	0.00449609
576.589	0.00450837
576.791	0.00446813
576.992	0.00445342
577.194	0.00440329
577.395	0.00434013
577.597	0.00428052
577.798	0.00421946
578	0.00417422
578.201	0.00415573
578.402	0.00412489
578.604	0.00411302
578.805	0.00408322
579.007	0.00404796
579.208	0.00404971
579.409	0.00397992
579.611	0.00393891
579.812	0.00389894
580.013	0.00385886
580.215	0.00383484
580.416	0.00377399
580.617	0.00372511
580.818	0.00369081
581.019	0.00365729
581.221	0.00358355
581.422	0.00350993
581.623	0.00346914
581.824	0.0034229
582.025	0.00336321
582.226	0.00333634
582.428	0.00330663
582.629	0.00329739
582.83	0.00328738
583.031	0.00325542
583.232	0.00324707
583.433	0.00321953
583.634	0.00316678
583.835	0.00308779
584.036	0.00304637
584.237	0.00302439
584.438	0.00294489
584.639	0.00288488
584.84	0.0028424
585.041	0.00283243
585.242	0.00282212
585.442	0.00280168
585.643	0.00275523
585.844	0.00271031
586.045	0.0026845
586.246	0.00268234
586.447	0.00262855
586.647	0.00262361
586.848	0.00261366
587.049	0.00254882
587.25	0.00256842
587.45	0.00253232
587.651	0.00246249
587.852	0.00244786
588.053	0.00235823
588.253	0.00232425
588.454	0.00233337
588.655	0.0022713
588.855	0.00224594
589.056	0.00224921
589.256	0.00223539
589.457	0.00222791
589.658	0.00216735
589.858	0.00213004
590.059	0.0020967
590.259	0.00206143
590.46	0.00202119
590.66	0.00192881
590.861	0.00190312
591.061	0.00188953
591.262	0.00187395
591.462	0.00188659
591.662	0.00189659
591.863	0.00186926
592.063	0.00190698
592.264	0.00192972
592.464	0.00190173
592.664	0.0018638
592.865	0.00183486
593.065	0.00182125
593.265	0.00182365
593.465	0.00181336
593.666	0.0017868
593.866	0.0017856
594.066	0.00175715
594.266	0.00177429
594.467	0.0017093
594.667	0.00169753
594.867	0.00164681
595.067	0.00158142
595.267	0.00158105
595.467	0.00157641
595.668	0.00152044
595.868	0.00148749
596.068	0.00143397
596.268	0.00144162
596.468	0.00146549
596.668	0.00142113
596.868	0.00141297
597.068	0.0013553
597.268	0.00133117
597.468	0.00132881
597.668	0.00126486
597.868	0.00122987
598.068	0.00122149
598.268	0.00119658
598.467	0.00121133
598.667	0.00118874
598.867	0.00111478
599.067	0.00110327
599.267	0.00109894
599.467	0.00106463
599.667	0.00101577
599.866	0.00099732
600.066	0.00102771
600.266	0.00102612
600.466	0.00103234
600.665	0.00100131
600.865	0.00099264
601.065	0.0009819
601.264	0.00091602
601.464	0.00087926
601.664	0.00090963
601.863	0.000899
602.063	0.00090302
602.263	0.00088597
602.462	0.00092316
602.662	0.00095904
602.861	0.00098711
603.061	0.00097757
603.26	0.00095908
603.46	0.00092196
603.659	0.00091336
603.859	0.00087652
604.058	0.00088918
604.258	0.00085588
604.457	0.00080792
604.657	0.00077081
604.856	0.00074879
605.056	0.00073945
605.255	0.00071105
605.454	0.00065247
605.654	0.00061238
605.853	0.00059797
606.052	0.00061519
606.252	0.00058526
606.451	0.00054859
606.65	0.00050777
606.849	0.00049248
607.049	0.00049137
607.248	0.00045539
607.447	0.00044496
607.646	0.00045304
607.845	0.00042664
608.045	0.00041953
608.244	0.00044594
608.443	0.00045122
608.642	0.00051271
608.841	0.00047577
609.04	0.00046035
609.239	0.00045955
609.438	0.00044617
609.637	0.00040751
609.836	0.00039838
610.035	0.0003497
610.234	0.00027789
610.433	0.00024177
610.632	0.00023831
610.831	0.00020898
611.03	0.00018749
611.229	0.00015352
611.428	0.00012808
611.627	0.00020846
611.826	0.00025533
612.025	0.00026869
612.224	0.00032551
612.422	0.00029357
612.621	0.0002603
612.82	0.0002508
613.019	0.00022142
613.218	0.00017639
613.416	0.00012831
613.615	0.0001086
613.814	0.00013092
614.012	0.00016727
614.211	0.00020603
614.41	0.00019425
614.608	0.00023615
614.807	0.00023847
615.006	0.00021145
615.204	0.00019139
615.403	0.00016979
615.602	0.00012516
615.8	0.00013501
615.999	0.00007922
616.197	0.00006853
616.396	0.00007327
616.594	0.00011476
616.793	0.00014696
616.991	0.00016526
617.19	0.00016962
617.388	0.00020176
617.586	0.00020957
617.785	0.00021962
617.983	0.00017477
618.182	0.00013755
618.38	0.00010818
618.578	0.00005225
618.777	-0.0000139
618.975	-0.00007218
619.173	-0.00010334
619.372	-0.00010934
619.57	-0.00014593
619.768	-0.00015143
619.966	-0.00011484
620.165	-0.00009816
620.363	-0.0000498
620.561	-0.00007171
620.759	-0.00004604
620.957	-0.00003297
621.155	-0.00002502
621.354	-0.00007398
621.552	-0.00007726
621.75	-0.00007047
621.948	-0.0000776
622.146	-0.00014561
622.344	-0.00015301
622.542	-0.00019278
622.74	-0.00018795
622.938	-0.0002052
623.136	-0.00021037
623.334	-0.00017828
623.532	-0.00016883
623.73	-0.00020359
623.928	-0.00020835
624.126	-0.00017848
624.324	-0.00017079
624.522	-0.00022384
624.719	-0.00026289
624.917	-0.00026113
625.115	-0.00023353
625.313	-0.00024151
625.511	-0.00025981
625.708	-0.00029525
625.906	-0.00030509
626.104	-0.00031636
626.302	-0.00032173
626.499	-0.00030018
626.697	-0.00024134
626.895	-0.0002355
627.093	-0.00019585
627.29	-0.00016176
627.488	-0.00016529
627.686	-0.00014974
627.883	-0.00021131
628.081	-0.00026358
628.278	-0.00029101
628.476	-0.00028838
628.673	-0.00032653
628.871	-0.00034168
629.068	-0.00035819
629.266	-0.00034
629.463	-0.0003363
629.661	-0.00035293
629.858	-0.00034199
630.056	-0.00030717
630.253	-0.00030078
630.451	-0.00026555
630.648	-0.00026436
630.845	-0.00026099
631.043	-0.00026841
631.24	-0.00029441
631.438	-0.00031301
631.635	-0.00029078
631.832	-0.00031879
632.029	-0.00029685
632.227	-0.0003163
632.424	-0.00030052
632.621	-0.00032903
632.818	-0.00032748
633.016	-0.00033326
633.213	-0.00034167
633.41	-0.00035985
633.607	-0.00034733
633.804	-0.00034332
634.001	-0.0003274
634.199	-0.00034039
634.396	-0.0003361
634.593	-0.00033751
634.79	-0.0003614
634.987	-0.00038222
635.184	-0.00038016
635.381	-0.00038621
635.578	-0.00036321
635.775	-0.00037546
635.972	-0.00038492
636.169	-0.00037817
636.366	-0.00036297
636.563	-0.00037038
636.76	-0.00038584
636.957	-0.00041411
637.153	-0.00043139
637.35	-0.00037876
637.547	-0.00033706
637.744	-0.00028942
637.941	-0.00023045
638.138	-0.00025688
638.334	-0.00023765
638.531	-0.00023776
638.728	-0.00025369
638.925	-0.00026626
639.121	-0.00032309
639.318	-0.00037799
639.515	-0.00034726
639.711	-0.00037679
639.908	-0.00036488
640.105	-0.00040589
640.301	-0.00041065
640.498	-0.00041002
640.695	-0.00040822
640.891	-0.00037718
641.088	-0.00034592
641.284	-0.00032516
641.481	-0.00030973
641.677	-0.00034546
641.874	-0.00035433
642.07	-0.00036574
642.267	-0.00035781
642.463	-0.0003246
642.66	-0.00030781
642.856	-0.0003024
643.053	-0.00027902
643.249	-0.00026415
643.445	-0.00025951
643.642	-0.00027092
643.838	-0.00031237
644.034	-0.00036008
644.231	-0.00035887
644.427	-0.00037492
644.623	-0.00037586
644.82	-0.00038169
645.016	-0.00044323
645.212	-0.00048099
645.408	-0.0004889
645.604	-0.00051175
645.801	-0.00050712
645.997	-0.00051914
646.193	-0.00053899
646.389	-0.00051149
646.585	-0.00048067
646.781	-0.00048963
646.977	-0.00047456
647.173	-0.00045604
647.37	-0.00044089
647.566	-0.00042299
647.762	-0.00040082
647.958	-0.00039139
648.154	-0.00036052
648.35	-0.00037513
648.546	-0.0003836
648.742	-0.00036236
648.937	-0.00035885
649.133	-0.00036602
649.329	-0.00037265
649.525	-0.00039621
649.721	-0.00036569
649.917	-0.00032461
650.113	-0.00031551
650.309	-0.00028774
650.504	-0.00027866
650.7	-0.00027301
650.896	-0.00028874
651.092	-0.00028304
651.287	-0.00029735
651.483	-0.00030382
651.679	-0.00034174
651.875	-0.00033525
652.07	-0.00030434
652.266	-0.0002367
652.462	-0.00026216
652.657	-0.00027999
652.853	-0.00028494
653.048	-0.00026182
653.244	-0.00027303
653.44	-0.00030864
653.635	-0.00036217
653.831	-0.00037619
654.026	-0.0004147
654.222	-0.00046514
654.417	-0.00048261
654.613	-0.00051616
654.808	-0.00056347
655.004	-0.0005417
655.199	-0.00052832
655.394	-0.00051829
655.59	-0.00048023
655.785	-0.00046399
655.98	-0.00041274
656.176	-0.00034065
656.371	-0.00030588
656.566	-0.00033737
656.762	-0.00032331
656.957	-0.00031193
657.152	-0.00032486
657.348	-0.00034961
657.543	-0.00037114
657.738	-0.0004192
657.933	-0.00036265
658.128	-0.00033613
658.324	-0.00031848
658.519	-0.00029328
658.714	-0.00023866
658.909	-0.00025143
659.104	-0.00023275
659.299	-0.00024949
659.494	-0.00024831
659.689	-0.00031313
659.884	-0.00036914
660.079	-0.00043326
660.274	-0.00045332
660.469	-0.00046675
660.664	-0.00048036
660.859	-0.00052026
661.054	-0.0004586
661.249	-0.000404
661.444	-0.0003916
661.639	-0.00038235
661.834	-0.00038314
662.029	-0.00037173
662.224	-0.00034599
662.418	-0.00038865
662.613	-0.00040138
662.808	-0.00039997
663.003	-0.00040989
663.198	-0.00040875
663.392	-0.00042853
663.587	-0.0004628
663.782	-0.00047835
663.977	-0.00053787
664.171	-0.00059702
664.366	-0.00056063
664.561	-0.00058533
664.755	-0.00062485
664.95	-0.00064746
665.144	-0.00065992
665.339	-0.00065902
665.534	-0.00059698
665.728	-0.00062367
665.923	-0.00060015
666.117	-0.00054534
666.312	-0.0005009
666.506	-0.00045228
666.701	-0.00040036
666.895	-0.00042971
667.09	-0.00039403
667.284	-0.00039697
667.479	-0.00037256
667.673	-0.0003078
667.867	-0.00026993
668.062	-0.00024729
668.256	-0.00022162
668.45	-0.00028168
668.645	-0.00025565
668.839	-0.00025421
669.033	-0.00030639
669.228	-0.00031183
669.422	-0.00032495
669.616	-0.0003196
669.81	-0.00020756
670.004	-0.00019318
670.199	-0.00017264
670.393	-0.00015834
670.587	-0.00019873
670.781	-0.00020479
670.975	-0.00023385
671.169	-0.00031739
671.363	-0.00033966
671.558	-0.00039189
671.752	-0.00041442
671.946	-0.00042759
672.14	-0.00043239
672.334	-0.00041883
672.528	-0.00041292
672.722	-0.00043089
672.916	-0.00042454
673.11	-0.00042182
673.304	-0.00040372
673.497	-0.00039315
673.691	-0.00041162
673.885	-0.00041174
674.079	-0.00040175
674.273	-0.00042062
674.467	-0.00044505
674.661	-0.00047824
674.854	-0.00050509
675.048	-0.00047938
675.242	-0.00046866
675.436	-0.00047645
675.629	-0.00044249
675.823	-0.00043103
676.017	-0.00039465
676.211	-0.00038198
676.404	-0.00038837
676.598	-0.00036356
676.792	-0.00033951
676.985	-0.00038486
677.179	-0.00040059
677.372	-0.00045102
677.566	-0.00044714
677.76	-0.00047121
677.953	-0.00049311
678.147	-0.00048899
678.34	-0.00045346
678.534	-0.00041992
678.727	-0.00037422
678.921	-0.00035231
679.114	-0.00029797
679.307	-0.00028432
679.501	-0.00027785
679.694	-0.00025257
679.888	-0.00027657
680.081	-0.00030416
680.274	-0.00033948
680.468	-0.00038865
680.661	-0.00043439
680.854	-0.00046323
681.048	-0.00047389
681.241	-0.00046822
681.434	-0.00047613
681.627	-0.00048664
681.821	-0.00047069
682.014	-0.00048594
682.207	-0.00051383
682.4	-0.00055946
682.593	-0.00057749
682.786	-0.00058802
682.98	-0.00056738
683.173	-0.00057069
683.366	-0.00057961
683.559	-0.00059628
683.752	-0.00059683
683.945	-0.00061559
684.138	-0.0006147
684.331	-0.00063716
684.524	-0.00062727
684.717	-0.00058019
684.91	-0.00054097
685.103	-0.00047789
685.296	-0.00043166
685.489	-0.00037901
685.682	-0.00035636
685.874	-0.00037309
686.067	-0.00040207
686.26	-0.0003752
686.453	-0.000435
686.646	-0.00049236
686.839	-0.00052334
687.031	-0.0005272
687.224	-0.00055036
687.417	-0.00052438
687.61	-0.00056854
687.802	-0.00060802
687.995	-0.00059939
688.188	-0.0006236
688.38	-0.00066465
688.573	-0.00068572
688.766	-0.00071823
688.958	-0.00076813
689.151	-0.00074785
689.343	-0.00074512
689.536	-0.00074805
689.729	-0.0007523
689.921	-0.00071129
690.114	-0.00071591
690.306	-0.00067372
690.499	-0.00066501
690.691	-0.00065287
690.884	-0.00063876
691.076	-0.00061975
691.268	-0.000606
691.461	-0.0005713
691.653	-0.00054163
691.846	-0.00052127
692.038	-0.00051883
692.23	-0.00051363
692.423	-0.00054211
692.615	-0.00060345
692.807	-0.0006297
692.999	-0.00065475
693.192	-0.00066387
693.384	-0.00065232
693.576	-0.00066211
693.768	-0.00066291
693.961	-0.00061819
694.153	-0.00062779
694.345	-0.00062124
694.537	-0.00064662
694.729	-0.00067677
694.921	-0.00064322
695.113	-0.00059885
695.305	-0.00059586
695.498	-0.00054378
695.69	-0.00053909
695.882	-0.0005047
696.074	-0.00049999
696.266	-0.00051783
696.458	-0.00055517
696.65	-0.00055626
696.842	-0.00057339
697.033	-0.0005997
697.225	-0.00059381
697.417	-0.00054448
697.609	-0.00051697
697.801	-0.00045392
697.993	-0.0004363
698.185	-0.00045921
698.376	-0.00040265
698.568	-0.00038856
698.76	-0.00038935
698.952	-0.0004033
699.144	-0.00043493
699.335	-0.00048543
699.527	-0.0004848
699.719	-0.00054104
699.91	-0.00057348
700.102	-0.00057976
700.294	-0.00059258
700.485	-0.00061547
700.677	-0.0005625
700.869	-0.00052499
701.06	-0.00046518
701.252	-0.00044707
701.443	-0.00041303
701.635	-0.0004218
701.826	-0.00038232
702.018	-0.00039174
702.209	-0.00041649
702.401	-0.00046585
702.592	-0.00050717
702.784	-0.0005507
702.975	-0.00054321
703.166	-0.0005693
703.358	-0.00059098
703.549	-0.00062443
703.741	-0.00062734
703.932	-0.00058116
704.123	-0.00057203
704.315	-0.00058305
704.506	-0.00056985
704.697	-0.00057211
704.888	-0.00055033
705.08	-0.00053464
705.271	-0.00056561
705.462	-0.00058312
705.653	-0.00058967
705.844	-0.0006062
706.035	-0.00063201
706.227	-0.00066535
706.418	-0.00065228
706.609	-0.00062439
706.8	-0.00060574
706.991	-0.00061727
707.182	-0.00059235
707.373	-0.00057066
707.564	-0.00053933
707.755	-0.00055183
707.946	-0.00058729
708.137	-0.00063425
708.328	-0.00059885
708.519	-0.00057742
708.71	-0.0005728
708.901	-0.00053769
709.092	-0.00057488
709.283	-0.00056161
709.473	-0.00055559
709.664	-0.00059502
709.855	-0.00066091
710.046	-0.00064162
710.237	-0.00066522
710.427	-0.00063744
710.618	-0.00065966
710.809	-0.00064689
711	-0.00062299
711.19	-0.00058903
711.381	-0.00057821
711.572	-0.00057805
711.762	-0.00052161
711.953	-0.00045908
712.144	-0.00044209
712.334	-0.00044123
712.525	-0.00046185
712.715	-0.00047071
712.906	-0.00044873
713.097	-0.00052441
713.287	-0.00059715
713.478	-0.0005802
713.668	-0.00050993
713.859	-0.00048906
714.049	-0.00049285
714.239	-0.00058776
714.43	-0.00057467
714.62	-0.00057603
714.811	-0.00061536
715.001	-0.00068981
715.191	-0.00072497
715.382	-0.00075722
715.572	-0.00070203
715.762	-0.00071409
715.953	-0.00070931
716.143	-0.00072157
716.333	-0.00074049
716.523	-0.00072676
716.714	-0.00073367
716.904	-0.00076338
717.094	-0.00079922
717.284	-0.00080669
717.474	-0.00078597
717.664	-0.0007417
717.855	-0.00073146
718.045	-0.00065479
718.235	-0.00061079
718.425	-0.00054443
718.615	-0.00047003
718.805	-0.00041848
718.995	-0.0003668
719.185	-0.000298
719.375	-0.00033916
719.565	-0.00037321
719.755	-0.00041829
719.945	-0.00046454
720.135	-0.00053397
720.325	-0.00062423
720.515	-0.0007328
720.704	-0.00069876
720.894	-0.00060757
721.084	-0.00059863
721.274	-0.00057416
721.464	-0.00051085
721.654	-0.00045235
721.843	-0.0003402
722.033	-0.000379
722.223	-0.0004473
722.413	-0.0003906
722.602	-0.00036517
722.792	-0.00042475
722.982	-0.00045778
723.171	-0.00047847
723.361	-0.00044845
723.55	-0.00039288
723.74	-0.00038264
723.93	-0.00040668
724.119	-0.00037414
724.309	-0.00031076
724.498	-0.00030457
724.688	-0.00024354
724.877	-0.00020584
725.067	-0.00019992
725.256	-0.00022027
725.446	-0.00024194
725.635	-0.00035841
725.825	-0.00044986
726.014	-0.00051164
726.203	-0.00061106
726.393	-0.00066343
726.582	-0.0006762
726.771	-0.00066487
726.961	-0.00059535
727.15	-0.00054917
727.339	-0.00055728
727.529	-0.00047303
727.718	-0.00039949
727.907	-0.0003507
728.096	-0.00034194
728.286	-0.00032856
728.475	-0.00032893
728.664	-0.0003005
728.853	-0.00040558
729.042	-0.00048376
729.231	-0.00056814
729.42	-0.00061161
729.609	-0.00065458
729.799	-0.00067993
729.988	-0.00074549
730.177	-0.00072719
730.366	-0.00068158
730.555	-0.00059709
730.744	-0.00055538
730.933	-0.00051096
731.122	-0.00044585
731.31	-0.00037323
731.499	-0.00033178
731.688	-0.00031901
731.877	-0.00037042
732.066	-0.0004133
732.255	-0.00050696
732.444	-0.00059921
732.632	-0.00070055
732.821	-0.00073688
733.01	-0.00081293
733.199	-0.00081862
733.388	-0.00079324
733.576	-0.00073065
733.765	-0.00069636
733.954	-0.00066676
734.142	-0.00065729
734.331	-0.00064916
734.52	-0.00067415
734.708	-0.00068701
734.897	-0.00069565
735.086	-0.00072041
735.274	-0.00071135
735.463	-0.00070033
735.651	-0.00067977
735.84	-0.00058198
736.028	-0.00057178
736.217	-0.00055156
736.405	-0.00048581
736.594	-0.00044756
736.782	-0.00040959
736.971	-0.00039601
737.159	-0.0004355
737.347	-0.00043716
737.536	-0.0004461
737.724	-0.00046681
737.912	-0.00048832
738.101	-0.00051341
738.289	-0.00052633
738.477	-0.00055515
738.666	-0.00051898
738.854	-0.00048476
739.042	-0.00051004
739.23	-0.00055537
739.418	-0.00060412
739.607	-0.00063688
739.795	-0.00060283
739.983	-0.00059426
740.171	-0.00064433
740.359	-0.00062914
740.547	-0.0006259
740.735	-0.00059614
740.923	-0.00057353
741.112	-0.00065125
741.3	-0.00073741
741.488	-0.00076461
741.676	-0.00081268
741.864	-0.00080389
742.052	-0.00080122
742.239	-0.00077899
742.427	-0.00069534
742.615	-0.00066285
742.803	-0.00067827
742.991	-0.00065704
743.179	-0.00066212
743.367	-0.00067667
743.555	-0.00068554
743.742	-0.00073806
743.93	-0.00070354
744.118	-0.00060353
744.306	-0.0005794
744.494	-0.0005863
744.681	-0.00057082
744.869	-0.00059728
745.057	-0.00055453
745.244	-0.00060519
745.432	-0.00061694
745.62	-0.00053413
745.807	-0.00050623
745.995	-0.00053988
746.182	-0.00049812
746.37	-0.00049834
746.558	-0.00048575
746.745	-0.00058663
746.933	-0.00071767
747.12	-0.00069537
747.308	-0.00065001
747.495	-0.0007095
747.683	-0.00074883
747.87	-0.00080119
748.057	-0.00076796
748.245	-0.00073224
748.432	-0.00072221
748.62	-0.00075538
748.807	-0.00074062
748.994	-0.00076823
749.182	-0.00069157
749.369	-0.00067088
749.556	-0.00062924
749.743	-0.00065493
749.931	-0.00061007
750.118	-0.00058742
750.305	-0.00046589
750.492	-0.0004533
750.68	-0.00045454
750.867	-0.00049869
751.054	-0.00051145
751.241	-0.0005203
751.428	-0.0005212
751.615	-0.00056023
751.802	-0.00059467
751.989	-0.00061314
752.176	-0.00063135
752.363	-0.00066118
752.55	-0.00074623
752.737	-0.00075411
752.924	-0.0008051
753.111	-0.00081561
753.298	-0.00090356
753.485	-0.00086674
753.672	-0.00082059
753.859	-0.00076355
754.046	-0.00072517
754.233	-0.00071501
754.42	-0.00069335
754.606	-0.00061312
754.793	-0.00064333
754.98	-0.0006187
755.167	-0.0006479
755.353	-0.00065991
755.54	-0.0006489
755.727	-0.00062369
755.914	-0.00058159
756.1	-0.00059499
756.287	-0.00062522
756.474	-0.00058908
756.66	-0.00063496
756.847	-0.00067153
757.033	-0.00070117
757.22	-0.00077137
757.407	-0.000723
757.593	-0.0007234
757.78	-0.00074518
757.966	-0.00071249
758.153	-0.00066367
758.339	-0.000662
758.526	-0.00058664
758.712	-0.00061872
758.898	-0.00056796
759.085	-0.00056208
759.271	-0.00054028
759.458	-0.00055383
759.644	-0.00057097
759.83	-0.00058771
760.017	-0.00057678
760.203	-0.00059441
760.389	-0.00059094
760.576	-0.00062982
760.762	-0.00062911
760.948	-0.00059525
761.134	-0.00058475
761.32	-0.00061202
761.507	-0.00065356
761.693	-0.00059456
761.879	-0.0005288
762.065	-0.00050677
762.251	-0.0005117
762.437	-0.00054
762.623	-0.00055356
762.809	-0.00054911
762.995	-0.00056438
763.181	-0.000617
763.367	-0.00063272
763.553	-0.00061257
763.739	-0.00054426
763.925	-0.00046031
764.111	-0.00044698
764.297	-0.0004044
764.483	-0.00039004
764.669	-0.00040231
764.855	-0.00039307
765.041	-0.00041385
765.227	-0.00040217
765.412	-0.00038302
765.598	-0.00040333
765.784	-0.00043739
765.97	-0.00046082
766.156	-0.00047653
766.341	-0.00045106
766.527	-0.00044986
766.713	-0.00047006
766.898	-0.00046604
767.084	-0.00042752
767.27	-0.00040008
767.455	-0.00042519
767.641	-0.00055568
767.827	-0.00060718
768.012	-0.00062987
768.198	-0.00063757
768.383	-0.00067909
768.569	-0.00066844
768.754	-0.00070929
768.94	-0.00061375
769.125	-0.00063016
769.311	-0.00060102
769.496	-0.000618
769.682	-0.00055613
769.867	-0.000538
770.052	-0.00047718
770.238	-0.00047378
770.423	-0.000389
770.608	-0.00039448
770.794	-0.0003905
770.979	-0.00040912
771.164	-0.00040945
771.35	-0.00041803
771.535	-0.00043166
771.72	-0.00049002
771.905	-0.00048711
772.09	-0.00054766
772.276	-0.00050664
772.461	-0.00053322
772.646	-0.0005461
772.831	-0.00046824
773.016	-0.0003751
773.201	-0.00033334
773.386	-0.00022972
773.571	-0.0002334
773.756	-0.00022802
773.941	-0.00019445
774.126	-0.00025991
774.311	-0.00037064
774.496	-0.0004298
774.681	-0.00050996
774.866	-0.00057672
775.051	-0.000553
775.236	-0.00059594
775.421	-0.00067511
775.606	-0.00069637
775.791	-0.00063575
775.976	-0.00063616
776.16	-0.00059984
776.345	-0.00061388
776.53	-0.00061151
776.715	-0.00049964
776.899	-0.00042525
777.084	-0.00046799
777.269	-0.00047288
777.454	-0.00056882
777.638	-0.0005972
777.823	-0.00058174
778.008	-0.00062534
778.192	-0.00064479
778.377	-0.00055758
778.561	-0.00052524
778.746	-0.00041924
778.931	-0.00037256
779.115	-0.00040885
779.3	-0.00038691
779.484	-0.00035245
779.669	-0.00046541
779.853	-0.00047502
780.037	-0.00052073
780.222	-0.00060854
780.406	-0.00055804
780.591	-0.00053575
780.775	-0.00054386
780.959	-0.00046675
781.144	-0.00045151
781.328	-0.0004358
781.512	-0.00039304
781.697	-0.00045982
781.881	-0.00050745
782.065	-0.00054514
782.249	-0.00055244
782.434	-0.00056596
782.618	-0.00053503
782.802	-0.00050534
782.986	-0.00036982
783.17	-0.00030301
783.354	-0.00024195
783.539	-0.0002234
783.723	-0.00021529
783.907	-0.0002185
784.091	-0.00017975
784.275	-0.00014814
784.459	-0.00017069
784.643	-0.00013184
784.827	-0.00014206
785.011	-0.00008772
785.195	-0.00005852
785.379	-0.00002661
785.563	-0.00007749
785.747	-0.00012894
785.93	-0.00026332
786.114	-0.00030067
786.298	-0.00044152
786.482	-0.00046949
786.666	-0.00054153
786.85	-0.00059566
787.033	-0.00049718
787.217	-0.00042077
787.401	-0.0004151
787.585	-0.00032905
787.768	-0.00029867
787.952	-0.00033703
788.136	-0.00034807
788.319	-0.00042317
788.503	-0.00046485
788.687	-0.00050931
788.87	-0.00050651
789.054	-0.00053557
789.237	-0.00046028
789.421	-0.00042239
789.605	-0.00045357
789.788	-0.00041194
789.972	-0.00036527
790.155	-0.00039547
790.338	-0.00037031
790.522	-0.00036668
790.705	-0.00029767
790.889	-0.00023997
791.072	-0.00024495
791.256	-0.00022579
791.439	-0.00020062
791.622	-0.00024852
791.806	-0.00026159
791.989	-0.00034008
792.172	-0.0003884
792.355	-0.00044886
792.539	-0.00051837
792.722	-0.00053201
792.905	-0.00057364
793.088	-0.00054436
793.271	-0.00054925
793.455	-0.000499
793.638	-0.00050828
793.821	-0.00053667
794.004	-0.00055714
794.187	-0.00053352
794.37	-0.00055384
794.553	-0.0005723
794.736	-0.00060646
794.919	-0.00060165
795.102	-0.00055522
795.285	-0.00055082
795.468	-0.00053337
795.651	-0.0005679
795.834	-0.00055522
796.017	-0.00054805
796.2	-0.00051428
796.383	-0.00047915
796.566	-0.00039898
796.749	-0.00031644
796.931	-0.000228
797.114	-0.00018558
797.297	-0.00014063
797.48	-0.00006866
797.663	-0.00005097
797.845	-0.00002748
798.028	-0.00003666
798.211	-0.00009188
798.393	-0.0001114
798.576	-0.00015371
798.759	-0.00019698
798.941	-0.00019736
799.124	-0.00019659
799.307	-0.00017695
799.489	-0.00015381
799.672	-0.00011865
799.854	-0.00004554
800.037	-0.00000643
800.219	0.00002268
800.402	-0.00004163
800.584	-0.00009274
800.767	-0.00016857
800.949	-0.00023419
801.132	-0.00035663
801.314	-0.00041575
801.496	-0.0004997
801.679	-0.00053594
801.861	-0.00059654
802.043	-0.00060512
802.226	-0.00056111
802.408	-0.00046747
802.59	-0.00039546
802.772	-0.00033272
802.955	-0.00032567
803.137	-0.0002852
803.319	-0.0002139
803.501	-0.00018786
803.684	-0.00020776
803.866	-0.00028851
804.048	-0.00036874
804.23	-0.00042569
804.412	-0.00047204
804.594	-0.00053305
804.776	-0.00053315
804.958	-0.00056438
805.14	-0.00051388
805.322	-0.00046758
805.504	-0.00038662
805.686	-0.00034468
805.868	-0.00036682
806.05	-0.00043257
806.232	-0.00049969
806.414	-0.00055766
806.596	-0.00058385
806.778	-0.00064051
806.96	-0.00066848
807.141	-0.00060883
807.323	-0.00060885
807.505	-0.00046929
807.687	-0.00036626
807.869	-0.00033472
808.05	-0.00031132
808.232	-0.00032671
808.414	-0.00039571
808.595	-0.00045465
808.777	-0.00057065
808.959	-0.00068332
809.14	-0.0007179
809.322	-0.0007262
809.504	-0.00072147
809.685	-0.00066135
809.867	-0.00062159
810.048	-0.00053724
810.23	-0.00054902
810.411	-0.00057245
810.593	-0.00053939
810.774	-0.00050118
810.956	-0.00051979
811.137	-0.00046636
811.319	-0.0005037
811.5	-0.00049373
811.681	-0.00037407
811.863	-0.00032871
812.044	-0.00023787
812.225	-0.00019532
812.407	-0.00013507
812.588	-0.0001572
812.769	-0.00013649
812.951	-0.00020184
813.132	-0.00026229
813.313	-0.00038534
813.494	-0.0004109
813.675	-0.00050229
813.857	-0.00045476
814.038	-0.00040946
814.219	-0.00042497
814.4	-0.00041669
814.581	-0.00037013
814.762	-0.00035329
814.943	-0.00029983
815.124	-0.00027814
815.305	-0.00022027
815.486	-0.00013151
815.667	-0.0000926
815.848	-0.00011715
816.029	-0.00013382
816.21	-0.00015704
816.391	-0.00021576
816.572	-0.00029974
816.753	-0.00035091
816.934	-0.00037393
817.115	-0.00035071
817.295	-0.00039119
817.476	-0.00045555
817.657	-0.00044876
817.838	-0.00045801
818.019	-0.00050345
818.199	-0.00049848
818.38	-0.00046843
818.561	-0.00041383
818.741	-0.00042227
818.922	-0.00040709
819.103	-0.00042285
819.283	-0.00038713
819.464	-0.00032929
819.645	-0.00032236
819.825	-0.00020883
820.006	-0.00018708
820.186	-0.00017021
820.367	-0.00022904
820.547	-0.00032986
820.728	-0.00041712
820.908	-0.00045833
821.089	-0.00058895
821.269	-0.00054273
821.45	-0.00047394
821.63	-0.00033511
821.81	-0.00018369
821.991	-0.00008423
822.171	-0.00005096
822.351	-0.00001054
822.532	0.00000616
822.712	-0.00003602
822.892	-0.00014483
823.072	-0.00026076
823.253	-0.00033872
823.433	-0.00040895
823.613	-0.00050668
823.793	-0.0006212
823.973	-0.00064361
824.154	-0.0005781
824.334	-0.0005362
824.514	-0.00058224
824.694	-0.00053349
824.874	-0.00054062
825.054	-0.00047755
825.234	-0.00047818
825.414	-0.00047098
825.594	-0.00043341
825.774	-0.0004271
825.954	-0.00051791
826.134	-0.00045767
826.314	-0.00042837
826.494	-0.0004147
826.674	-0.00040241
826.854	-0.0004135
827.033	-0.00029967
827.213	-0.00018299
827.393	-0.0000903
827.573	-0.00004426
827.753	-0.00008678
827.932	-0.00011152
828.112	-0.00013007
828.292	-0.00019232
828.472	-0.00020169
828.651	-0.00027019
828.831	-0.00031249
829.011	-0.00028584
829.19	-0.00019666
829.37	-0.0001863
829.549	-0.00020584
829.729	-0.00018074
829.909	-0.00017261
830.088	-0.00021997
830.268	-0.00022834
830.447	-0.00034413
830.627	-0.00031195
830.806	-0.00022181
830.986	-0.00030942
831.165	-0.00023969
831.344	-0.00014907
831.524	-0.0001209
831.703	-0.00005765
831.883	-0.0001038
832.062	-0.00019669
832.241	-0.00016767
832.421	-0.00022683
832.6	-0.00029777
832.779	-0.00032515
832.958	-0.00037174
833.138	-0.0003739
833.317	-0.00039867
833.496	-0.00031372
833.675	-0.00032843
833.854	-0.00024193
834.034	-0.0002113
834.213	-0.00016396
834.392	-0.00022572
834.571	-0.00021113
834.75	-0.00038571
834.929	-0.0004781
835.108	-0.00062587
835.287	-0.00070157
835.466	-0.00070065
835.645	-0.00060778
835.824	-0.00052978
836.003	-0.00040195
836.182	-0.00033997
836.361	-0.00024433
836.54	-0.00018226
836.719	-0.00021884
836.897	-0.00020843
837.076	-0.00025307
837.255	-0.00025461
837.434	-0.00022138
837.613	-0.00019349
837.791	-0.00020388
837.97	-0.00020111
838.149	-0.00020033
838.328	-0.00019299
838.506	-0.00027327
838.685	-0.00027173
838.864	-0.00030162
839.042	-0.0003283
839.221	-0.00039223
839.4	-0.00044486
839.578	-0.00050583
839.757	-0.00054683
839.935	-0.00059893
840.114	-0.00070459
840.292	-0.00071264
840.471	-0.00062063
840.649	-0.00058135
840.828	-0.00049853
841.006	-0.00044542
841.185	-0.00040412
841.363	-0.00039759
841.541	-0.00035993
841.72	-0.0003823
841.898	-0.00032299
842.076	-0.00028717
842.255	-0.00020677
842.433	-0.00021133
842.611	-0.00017339
842.789	-0.00028778
842.968	-0.00031733
843.146	-0.00045254
843.324	-0.00054905
843.502	-0.00064681
843.68	-0.0006899
843.859	-0.0006397
844.037	-0.00057171
844.215	-0.00064137
844.393	-0.00062074
844.571	-0.00065216
844.749	-0.00072882
844.927	-0.00070762
845.105	-0.00070841
845.283	-0.00071296
845.461	-0.00064779
845.639	-0.00074001
845.817	-0.00085239
845.995	-0.00077385
846.173	-0.00084624
846.351	-0.00096232
846.529	-0.00100192
846.706	-0.00101199
846.884	-0.00091514
847.062	-0.00084221
847.24	-0.00080873
847.418	-0.00080525
847.595	-0.0007817
847.773	-0.00084339
847.951	-0.00090404
848.129	-0.00081537
848.306	-0.00065454
848.484	-0.00054425
848.662	-0.00040328
848.839	-0.00024816
849.017	-0.00014628
849.194	-0.00013887
849.372	-0.00024093
849.549	-0.00031222
849.727	-0.00045613
849.905	-0.00055579
850.082	-0.00063868
850.26	-0.00065182
850.437	-0.00057534
850.614	-0.00051207
850.792	-0.00046881
850.969	-0.00041268
851.147	-0.00033192
851.324	-0.00021853
851.501	-0.00019153
851.679	-0.00010652
851.856	-0.00009776
852.033	-0.0001027
852.211	-0.00013867
852.388	-0.00013592
852.565	-0.00024447
852.742	-0.00031426
852.92	-0.00043669
853.097	-0.00043523
853.274	-0.00045842
853.451	-0.00046616
853.628	-0.00051033
853.805	-0.00047666
853.982	-0.00041145
854.159	-0.00036338
854.336	-0.0003653
854.514	-0.00037524
854.691	-0.00033391
854.868	-0.00046109
855.045	-0.00056473
855.221	-0.00070768
855.398	-0.00085533
855.575	-0.0009749
855.752	-0.00106725
855.929	-0.0011015
856.106	-0.0010478
856.283	-0.00095899
856.46	-0.00074783
856.637	-0.00065662
856.813	-0.00058372
856.99	-0.00056732
857.167	-0.00069184
857.344	-0.000696
857.52	-0.00079054
857.697	-0.00092596
857.874	-0.00092723
858.05	-0.00100154
858.227	-0.00099638
858.404	-0.00085742
858.58	-0.00076253
858.757	-0.00070637
858.933	-0.00062069
859.11	-0.00057732
859.287	-0.00051219
859.463	-0.00046648
859.64	-0.00047643
859.816	-0.00048796
859.993	-0.00048047
860.169	-0.000575
860.345	-0.00052426
860.522	-0.00049445
860.698	-0.00051663
860.875	-0.00051708
861.051	-0.00053633
861.227	-0.00054748
861.404	-0.00047991
861.58	-0.00059389
861.756	-0.00060879
861.932	-0.00059642
862.109	-0.00063673
862.285	-0.00063007
862.461	-0.00060383
862.637	-0.00062278
862.813	-0.00068105
862.99	-0.00073506
863.166	-0.00080136
863.342	-0.00075854
863.518	-0.00078366
863.694	-0.00075952
863.87	-0.00070755
864.046	-0.0005456
864.222	-0.00051352
864.398	-0.00043662
864.574	-0.00046387
864.75	-0.00047469
864.926	-0.00055714
865.102	-0.00059731
865.278	-0.0006765
865.454	-0.00064692
865.63	-0.00060693
865.805	-0.00055318
865.981	-0.0004872
866.157	-0.00042696
866.333	-0.00044621
866.509	-0.00041923
866.684	-0.00046534
866.86	-0.00054227
867.036	-0.00059503
867.212	-0.00069374
867.387	-0.00077906
867.563	-0.00082826
867.739	-0.00087548
867.914	-0.00085721
868.09	-0.00084252
868.265	-0.00081703
868.441	-0.00080636
868.617	-0.00073044
868.792	-0.0006343
868.968	-0.00061592
869.143	-0.00059404
869.319	-0.0005445
869.494	-0.00044946
869.67	-0.00040338
869.845	-0.00036282
870.02	-0.00030939
870.196	-0.00035797
870.371	-0.0003863
870.546	-0.00046478
870.722	-0.00058235
870.897	-0.00061831
871.072	-0.00061629
871.248	-0.00062801
871.423	-0.00055169
871.598	-0.00056513
871.773	-0.00050237
871.949	-0.00051314
872.124	-0.00045951
872.299	-0.00048239
872.474	-0.00050249
872.649	-0.0004778
872.824	-0.00047395
872.999	-0.00046162
873.174	-0.00044265
873.349	-0.00054448
873.524	-0.00062883
873.699	-0.00069774
873.874	-0.00080416
874.049	-0.00075187
874.224	-0.00072066
874.399	-0.00065609
874.574	-0.00051182
874.749	-0.00040646
874.924	-0.00024392
875.099	-0.00006899
875.274	-0.00000325
875.449	0.00005574
875.623	0.00003252
875.798	-0.00013792
875.973	-0.0002596
876.148	-0.00045402
876.322	-0.00059308
876.497	-0.00066457
876.672	-0.00073862
876.846	-0.00072642
877.021	-0.00055062
877.196	-0.00046359
877.37	-0.00035257
877.545	-0.00023195
877.72	-0.00020193
877.894	-0.00025099
878.069	-0.00031391
878.243	-0.00028407
878.418	-0.00022239
878.592	-0.00025654
878.767	-0.00025062
878.941	-0.00033776
879.116	-0.00030626
879.29	-0.00025033
879.464	-0.00031984
879.639	-0.00032653
879.813	-0.0003482
879.987	-0.00042963
880.162	-0.00036391
880.336	-0.00044763
880.51	-0.0005807
880.685	-0.00059084
880.859	-0.00079398
881.033	-0.00077902
881.207	-0.00091905
881.381	-0.0010955
881.556	-0.001138
881.73	-0.00118145
881.904	-0.0012179
882.078	-0.00107766
882.252	-0.00116805
882.426	-0.00102584
882.6	-0.00086255
882.774	-0.00074234
882.948	-0.000612
883.122	-0.00053225
883.296	-0.00038385
883.47	-0.00023587
883.644	-0.00023934
883.818	-0.00016964
883.992	-0.00025402
884.166	-0.00027668
884.34	-0.00036615
884.514	-0.00056572
884.687	-0.00059714
884.861	-0.00056937
885.035	-0.00068528
885.209	-0.00062501
885.382	-0.00062429
885.556	-0.00070047
885.73	-0.00066888
885.904	-0.00072626
886.077	-0.00077951
886.251	-0.00064663
886.425	-0.00058597
886.598	-0.00054719
886.772	-0.00050974
886.945	-0.00064372
887.119	-0.00063497
887.292	-0.00069591
887.466	-0.00086825
887.64	-0.00092318
887.813	-0.00096625
887.986	-0.00094176
888.16	-0.00071607
888.333	-0.00076164
888.507	-0.00072565
888.68	-0.00073921
888.854	-0.00081499
889.027	-0.00072911
889.2	-0.000689
889.374	-0.00079248
889.547	-0.00085133
889.72	-0.00085783
889.893	-0.00088018
890.067	-0.00095206
890.24	-0.00114506
890.413	-0.00131147
890.586	-0.00146665
890.759	-0.00136136
890.933	-0.00133285
891.106	-0.00127698
891.279	-0.00118333
891.452	-0.00099565
891.625	-0.00090199
891.798	-0.00079804
891.971	-0.0009253
892.144	-0.00105725
892.317	-0.00112806
892.49	-0.00127521
892.663	-0.00146507
892.836	-0.00154339
893.009	-0.00148798
893.182	-0.00148852
893.355	-0.00130306
893.527	-0.00120664
893.7	-0.000968
893.873	-0.00075851
894.046	-0.00060217
894.219	-0.00062507
894.391	-0.00041065
894.564	-0.0005345
894.737	-0.00059969
894.91	-0.00084669
895.082	-0.000957
895.255	-0.00100827
895.428	-0.00112491
895.6	-0.00136095
895.773	-0.00149758
895.945	-0.00153324
896.118	-0.00146674
896.291	-0.00154789
896.463	-0.00147561
896.636	-0.00134432
896.808	-0.00116489
896.981	-0.00093432
897.153	-0.00072934
897.326	-0.00057904
897.498	-0.0004794
897.67	-0.00063796
897.843	-0.00080426
898.015	-0.00091998
898.187	-0.00107752
898.36	-0.00127472
898.532	-0.00131288
898.704	-0.00123329
898.877	-0.00108821
899.049	-0.00095318
899.221	-0.0008727
899.393	-0.00063368
899.566	-0.00050849
899.738	-0.00047601
899.91	-0.00044665
900.082	-0.00046683
900.254	-0.00048618
900.426	-0.0005161
900.598	-0.00061275
900.77	-0.00068671
900.942	-0.00078215
901.114	-0.00097581
901.286	-0.00098514
901.458	-0.0009422
901.63	-0.00088516
901.802	-0.00081418
901.974	-0.00064802
902.146	-0.0005585
902.318	-0.0005572
902.49	-0.00073869
902.662	-0.00087391
902.834	-0.00095004
903.005	-0.00099822
903.177	-0.00107824
903.349	-0.001139
903.521	-0.00100364
903.693	-0.00084954
903.864	-0.00070195
904.036	-0.00070151
904.208	-0.00078485
904.379	-0.00072562
904.551	-0.00067531
904.723	-0.00067078
904.894	-0.00056003
905.066	-0.00038129
905.237	-0.00022072
905.409	-0.00004255
905.58	-0.00005978
905.752	-0.00001672
905.923	-0.00007751
906.095	-0.00014593
906.266	-0.00024747
906.438	-0.00036776
906.609	-0.00051317
906.78	-0.00062926
906.952	-0.00064912
907.123	-0.00067871
907.295	-0.00070485
907.466	-0.00077435
907.637	-0.00079453
907.808	-0.00076142
907.98	-0.00077753
908.151	-0.00092523
908.322	-0.00090946
908.493	-0.00102725
908.665	-0.00108696
908.836	-0.00105786
909.007	-0.00100106
909.178	-0.00106964
909.349	-0.00108392
909.52	-0.00108005
909.691	-0.00096564
909.862	-0.00088566
910.033	-0.00089445
910.204	-0.00094118
910.375	-0.00077407
910.546	-0.00058399
910.717	-0.00053667
910.888	-0.00050817
911.059	-0.00049994
911.23	-0.00040811
911.401	-0.0004247
911.572	-0.00044815
911.742	-0.00063775
911.913	-0.00078182
912.084	-0.00090312
912.255	-0.00082938
912.426	-0.00099311
912.596	-0.00096732
912.767	-0.00096249
912.938	-0.00085585
913.108	-0.00075621
913.279	-0.00059878
913.45	-0.00068573
913.62	-0.00067273
913.791	-0.00074672
913.962	-0.00082037
914.132	-0.00078349
914.303	-0.00074122
914.473	-0.00084401
914.644	-0.00093959
914.814	-0.000909
914.985	-0.00091986
915.155	-0.0009785
915.326	-0.00111395
915.496	-0.00120789
915.666	-0.00137802
915.837	-0.00139413
916.007	-0.00137726
916.177	-0.00131699
916.348	-0.00108775
916.518	-0.00092252
916.688	-0.00087716
916.858	-0.00066323
917.029	-0.00070393
917.199	-0.00072526
917.369	-0.00069664
917.539	-0.00075436
917.709	-0.00073292
917.88	-0.00066273
918.05	-0.0006173
918.22	-0.00050076
918.39	-0.00043946
918.56	-0.00042326
918.73	-0.00046227
918.9	-0.00056677
919.07	-0.00056009
919.24	-0.0006393
919.41	-0.00060174
919.58	-0.00067956
919.75	-0.00076948
919.92	-0.00088463
920.09	-0.00091596
920.26	-0.00093214
920.429	-0.00086014
920.599	-0.00091947
920.769	-0.00108202
920.939	-0.00111878
921.109	-0.00110127
921.278	-0.00114189
921.448	-0.0011912
921.618	-0.0012017
921.787	-0.00119824
921.957	-0.00105321
922.127	-0.00102768
922.296	-0.00097221
922.466	-0.00075732
922.636	-0.00076365
922.805	-0.00068023
922.975	-0.00061027
923.144	-0.00038385
923.314	-0.00024598
923.483	-0.00029231
923.653	-0.00035992
923.822	-0.0001801
923.992	-0.00023682
924.161	-0.00027812
924.331	-0.00048958
924.5	-0.00066783
924.669	-0.00051431
924.839	-0.00054355
925.008	-0.00059595
925.177	-0.00062592
925.347	-0.00062105
925.516	-0.00055105
925.685	-0.00040476
925.854	-0.00044278
926.023	-0.00056125
926.193	-0.00067413
926.362	-0.00062786
926.531	-0.00063755
926.7	-0.00065117
926.869	-0.00054808
927.038	-0.00061451
927.207	-0.00055926
927.376	-0.00068349
927.545	-0.00070883
927.715	-0.00067089
927.884	-0.00081936
928.052	-0.00112585
928.221	-0.00117241
928.39	-0.00116836
928.559	-0.00104721
928.728	-0.00106525
928.897	-0.0010127
929.066	-0.00088331
929.235	-0.00079721
929.404	-0.00061848
929.572	-0.00047213
929.741	-0.00029508
929.91	-0.00029659
930.079	-0.00040471
930.247	-0.00050548
930.416	-0.00052435
930.585	-0.0006898
930.753	-0.00091892
930.922	-0.00111545
931.091	-0.00119559
931.259	-0.00130035
931.428	-0.00128852
931.596	-0.00110399
931.765	-0.00087183
931.934	-0.00063871
932.102	-0.0005703
932.27	-0.00036684
932.439	-0.00021202
932.607	-0.00012992
932.776	-0.00026628
932.944	-0.00041754
933.113	-0.0004989
933.281	-0.00071557
933.449	-0.00085162
933.618	-0.00089239
933.786	-0.00090485
933.954	-0.00091686
934.123	-0.00088132
934.291	-0.00082039
934.459	-0.00066634
934.627	-0.00054198
934.795	-0.00057728
934.964	-0.00036175
935.132	-0.00037296
935.3	-0.00046129
935.468	-0.00060485
935.636	-0.00047943
935.804	-0.0006714
935.972	-0.0005861
936.14	-0.00075863
936.308	-0.00053882
936.476	-0.00040249
936.644	-0.00040334
936.812	-0.00046758
936.98	-0.00041624
937.148	-0.00035152
937.316	-0.00049947
937.484	-0.00027421
937.652	-0.00038437
937.82	-0.00027129
937.987	-0.00033105
938.155	-0.00031495
938.323	-0.00043356
938.491	-0.00003741
938.658	-0.00059282
938.826	-0.00048249
938.994	-0.00030886
939.162	-0.00030371
939.329	0.00006817
939.497	0.00027948
939.665	-0.00033221
939.832	-0.00021571
940	-0.00057286
940.167	-0.00044187
940.335	-0.00010293
940.502	-0.00056458
940.67	-0.00093446
940.837	-0.00002352
941.005	0.00009838
941.172	0.00078232
941.34	0.00039198
941.507	0.00115753
941.674	0.00168603
941.842	0.002339
942.009	0.00260207
942.177	0.0023341
942.344	0.00190669
942.511	0.00222065
942.678	0.00120657
942.846	0.00037183
943.013	0.00031825
943.18	-0.00029091
943.347	0.0001959
943.514	0.00045064
943.682	0.00065907
943.849	0.00097702
944.016	0.00126995
944.183	0.00071387
944.35	0.00088364
944.517	0.00060073
944.684	0.00034993
944.851	-0.00002612
945.018	-0.00112412
945.185	-0.00095168
945.352	-0.00034102
945.519	-0.00036864
945.686	-0.00045861
945.853	-0.00023903
946.02	-0.00038094
946.187	-0.00041068
946.353	-0.00024993
946.52	0.00028377
946.687	0.00046978
946.854	0.00042218
947.021	0.00026243
947.187	0.00021575
947.354	0.00106859
947.521	0.00075926
947.687	-0.00009081
947.854	-0.00090691
948.021	-0.00099646
948.187	-0.00128434
948.354	-0.00109573
948.52	-0.00051881
948.687	-0.00082326
948.854	-0.00059005
949.02	-0.00002496
949.187	0.00028375
949.353	0.00050613
949.52	0.00066458
949.686	-0.00020072
949.852	0.00033732
950.019	0.00027943
950.185	-0.00039775
950.352	-0.00090565
950.518	-0.00113968
950.684	-0.00098752
950.851	-0.00083258
951.017	-0.00092252
951.183	-0.0008719
951.349	-0.00076239
951.516	-0.0001868
951.682	0.00009488
951.848	0.00026028
952.014	0.00048696
952.18	0.00119801
952.346	0.00062915
952.512	0.00069214
952.679	0.00070046
952.845	0.00067041
953.011	0.00009817
953.177	-0.00026222
953.343	-0.00160222
953.509	-0.00171104
953.675	-0.00159574
953.841	-0.00199136
954.007	-0.00230334
954.172	-0.00246067
954.338	-0.00227266
954.504	-0.00190074
954.67	-0.00156636
954.836	-0.00136475
955.002	-0.00109757
955.167	-0.00089556
955.333	-0.00093653
955.499	-0.00127013
955.665	-0.00097422
955.83	-0.00097722
955.996	-0.00152338
956.162	-0.00151608
956.327	-0.00131812
956.493	-0.00133595
956.659	-0.00122078
956.824	-0.00110477
956.99	-0.00082592
957.155	-0.00029305
957.321	0.00004913
957.486	-0.00004487
957.652	0.0002978
957.817	0.00025718
957.983	0.00037152
958.148	-0.00002696
958.314	-0.00018004
958.479	-0.0009049
958.644	-0.00103022
958.81	-0.00101708
958.975	-0.00108668
959.14	-0.00120563
959.306	-0.00099908
959.471	-0.00065134
959.636	-0.00001767
959.801	-0.00007378
959.967	-0.00009117
960.132	0.00032512
960.297	0.000111
960.462	-0.00011117
960.627	-0.00029061
960.792	-0.00058843
960.957	-0.00079195
961.123	-0.00082876
961.288	-0.00083518
961.453	-0.00063198
961.618	-0.00044608
961.783	-0.00054889
961.948	-0.00035756
962.113	-0.00005731
962.277	0.00001626
962.442	-0.00020254
962.607	-0.00049794
962.772	-0.00027693
962.937	-0.00055734
963.102	-0.00094946
963.267	-0.00089699
963.431	-0.0010539
963.596	-0.00081707
963.761	-0.00083402
963.926	-0.00110536
964.09	-0.00091119
964.255	-0.00068658
964.42	-0.00081191
964.584	-0.00064011
964.749	-0.00090178
964.914	-0.0010781
965.078	-0.00064649
965.243	-0.00080331
965.407	-0.00109973
965.572	-0.00116948
965.736	-0.0011394
965.901	-0.00093187
966.065	-0.00071016
966.23	-0.00091384
966.394	-0.00058639
966.559	-0.00034787
966.723	-0.00015496
966.887	-0.00033504
967.052	-0.00032415
967.216	-0.00014616
967.38	-0.00043044
967.545	-0.00042045
967.709	-0.00067289
967.873	-0.00061634
968.037	-0.00058719
968.202	-0.00085846
968.366	-0.00094011
968.53	-0.00085525
968.694	-0.00146191
968.858	-0.00177762
969.022	-0.00203431
969.187	-0.00200112
969.351	-0.00201459
969.515	-0.00203212
969.679	-0.00180149
969.843	-0.00124941
970.007	-0.00055391
970.171	-0.00029332
970.335	-0.00043785
970.499	-0.00030643
970.662	-0.00018402
970.826	-0.00042172
970.99	-0.00032098
971.154	-0.00032266
971.318	-0.00062638
971.482	-0.00053015
971.645	-0.00046722
971.809	-0.00085337
971.973	-0.00088301
972.137	-0.00076183
972.3	-0.00078265
972.464	-0.0006803
972.628	-0.00074076
972.791	-0.00069832
972.955	-0.0005367
973.119	-0.00041758
973.282	-0.00096488
973.446	-0.00088572
973.609	-0.00033333
973.773	-0.00007453
973.936	-0.00006906
974.1	0.00006681
974.263	-0.00037162
974.427	-0.00043296
974.59	-0.00076796
974.754	-0.00131032
974.917	-0.00191959
975.08	-0.00217793
975.244	-0.00224144
975.407	-0.00163992
975.57	-0.00123074
975.734	-0.00114651
975.897	-0.00081814
976.06	-0.00015476
976.223	0.00005897
976.387	0.00022149
976.55	0.00005621
976.713	-0.00014096
976.876	-0.00010921
977.039	-0.0007559
977.202	-0.00078951
977.365	-0.0007465
977.528	-0.00078016
977.692	-0.00065284
977.855	-0.00054963
978.018	-0.00022964
978.181	0.00031903
978.344	0.00020797
978.506	0.00022694
978.669	0.00032728
978.832	0.00025581
978.995	0.00019372
979.158	-0.0002075
979.321	-0.00037044
979.484	-0.00035207
979.646	-0.00065123
979.809	-0.00089735
979.972	-0.00122308
980.135	-0.00121096
980.297	-0.00124979
980.46	-0.00119924
980.623	-0.0011808
980.786	-0.00110063
980.948	-0.00066182
981.111	-0.00018094
981.273	-0.00029661
981.436	-0.00022221
981.599	-0.00064074
981.761	-0.00055925
981.924	-0.0005759
982.086	-0.00102988
982.249	-0.00116872
982.411	-0.00096924
982.573	-0.00066061
982.736	-0.00021245
982.898	-0.00034941
983.061	-0.0000723
983.223	-0.00009422
983.385	-0.00006997
983.548	0.00004712
983.71	-0.00019357
983.872	-0.0000914
984.034	-0.00008741
984.197	-0.00040766
984.359	-0.00041111
984.521	-0.00025035
984.683	0.00006063
984.845	0.00011532
985.008	0.00006043
985.17	-0.0008573
985.332	-0.00073002
985.494	-0.00081545
985.656	-0.00114326
985.818	-0.00193989
985.98	-0.00225515
986.142	-0.00268147
986.304	-0.00164446
986.466	-0.00167888
986.628	-0.00127591
986.79	-0.00111577
986.952	-0.00104589
987.113	-0.00066017
987.275	-0.000108
987.437	-0.00019425
987.599	0.00042932
987.761	0.00030723
987.922	0.00058145
988.084	0.00114553
988.246	0.00134629
988.408	0.00089685
988.569	0.00118519
988.731	0.0007284
988.893	0.00040379
989.054	0.00012615
989.216	0.00027669
989.377	-0.00015242
989.539	0.00015091
989.701	-0.00044639
989.862	-0.00085244
990.024	-0.00073438
990.185	-0.00076566
990.347	-0.00121598
990.508	-0.00109437
990.669	-0.00088286
990.831	-0.00060983
990.992	0.00045927
991.154	0.00076834
991.315	0.00105653
991.476	0.00107718
991.638	0.00099546
991.799	0.00089525
991.96	0.00093907
992.121	-0.00002827
992.283	-0.00011192
992.444	-0.00072444
992.605	-0.00093552
992.766	-0.00052875
992.927	-0.00088199
993.088	-0.00109355
993.249	-0.00059847
993.41	-0.00095687
993.572	-0.00072479
993.733	-0.00048704
993.894	-0.00066908
994.055	-0.00037605
994.216	-0.00094275
994.376	-0.00114687
994.537	-0.0011298
994.698	-0.00134904
994.859	-0.00129213
995.02	-0.00190717
995.181	-0.00217102
995.342	-0.00113481
995.503	-0.00153311
995.663	-0.00101074
995.824	-0.00028109
995.985	0.0003583
996.146	0.00096105
996.306	0.00128332
996.467	0.00111331
996.628	0.00143961
996.788	0.00088863
996.949	-0.00007194
997.11	-0.00072761
997.27	-0.00063254
997.431	-0.00050457
997.591	-0.00038787
997.752	-0.00025961
997.912	0.00014428
998.073	0.00076423
998.233	0.00159181
998.394	0.00171907
998.554	0.00134285
998.714	0.00100941
998.875	0.00103765
999.035	0.00157242
999.196	0.00160767
999.356	-0.00001592
999.516	-0.00026479
999.676	-0.00030609
999.837	0.00052209
999.997	0.00035672
1000.157	-0.00033603
1000.317	-0.00003648
1000.477	0.00084798
1000.638	0.00160579
1000.798	0.00217323
1000.958	0.00119321
1001.118	0.00113415
1001.278	0.00061862
1001.438	0.00047566
1001.598	-0.0000102
1001.758	-0.00015036
1001.918	-0.00055489
1002.078	-0.00118604
1002.238	-0.00056229
1002.398	0.00075018
1002.558	0.0004386
1002.718	0.00107263
1002.878	-0.00002177
1003.037	0.00049792
1003.197	0.00188901
1003.357	0.00114566
1003.517	0.00104672
1003.677	0.00030735
1003.836	-0.00012012
1003.996	-0.00012739
1004.156	-0.00016696
1004.315	-0.00017472
1004.475	0.00128712
1004.635	0.00111941
1004.794	0.00249818
1004.954	0.00271521
1005.114	0.00271563
1005.273	0.00211256
1005.433	0.00120149
1005.592	-0.00035726
1005.752	-0.00064592
1005.911	-0.00162299
1006.071	-0.00106544
1006.23	0.00009826
1006.389	-0.00032222
1006.549	-0.00009447
1006.708	0.0002913
1006.868	0.00065729
1007.027	0.00021309
1007.186	-0.00086904
1007.345	-0.00149328
1007.505	-0.00192411
1007.664	-0.00162264
1007.823	-0.00237782
1007.982	-0.00248755
1008.142	-0.0013015
1008.301	-0.00046999
1008.46	-0.0004979
1008.619	0.00064969
1008.778	0.00132642
1008.937	0.00184216
1009.096	0.00201958
1009.255	0.0027413
1009.414	0.00235302
1009.573	0.00283647
1009.732	0.00256857
1009.891	0.00146467
1010.05	0.00094779
1010.209	0.00019148
1010.368	-0.00154653
1010.527	-0.00105195
1010.686	-0.00162081
1010.845	-0.00191587
1011.003	-0.00225525
1011.162	-0.00120876
1011.321	-0.0000637
1011.48	0.0010037
1011.638	0.00057751
1011.797	0.00022953
1011.956	0.00225596
1012.115	0.00431124
1012.273	0.00447677
1012.432	0.00353983
1012.59	0.0048073
1012.749	0.00450829
1012.908	0.00412323
1013.066	0.00123933
1013.225	0.00090499
1013.383	0.00027723
1013.542	0.00023651
1013.7	-0.00159153
1013.859	-0.0000292
1014.017	0.00228876
1014.175	0.00413346
1014.334	0.00279614
1014.492	0.003465
1014.65	0.00271264
1014.809	0.00258149
1014.967	0.00229209
1015.125	0.00146404
1015.284	0.00125952
1015.442	0.00154713
1015.6	-0.00007427
1015.758	0.00146214
1015.916	0.00237774
1016.075	0.00017171
1016.233	-0.0004617
1016.391	-0.0000992
1016.549	0.00152257
1016.707	0.00349765
1016.865	0.00310727
1017.023	0.00357585
1017.181	0.00597498
1017.339	0.0050159
1017.497	0.00457574
1017.655	0.00139859
1017.813	0.00021193
1017.971	0.0012271
1018.129	0.001266
1018.286	0.00002348
1018.444	0.00050204
1018.602	0.00053499
1018.76	0.00263228
1018.918	0.00365531
1019.075	0.00134329
1019.233	0.00032006
1019.391	-0.00101074
1019.549	0.00070321
1019.706	0.0015135
1019.864	0.00187218
1020.022	0.00328246
1020.179	0.00479835
1020.337	0.00509983
1020.494	0.00730138
1020.652	0.00614125
1020.809	0.00357754
1020.967	0.00170211
1021.124	0.00066849
1021.282	0.00072586
1021.439	0.00005353
1021.597	-0.00060592
1021.754	0.00145031
1021.911	0.00321254
1022.069	0.0040493
1022.226	0.0049174
1022.384	0.002842
1022.541	0.00224858
1022.698	0.00173795
1022.855	0.00115304
1023.013	0.00197665
1023.17	0.00208103
1023.327	0.00007805
1023.484	0.00256729
1023.641	0.00421618
1023.798	0.00563787
1023.956	0.00523084
1024.113	0.00278691
1024.27	0.00478485
1024.427	0.00648189
1024.584	0.0057072
1024.741	0.00437086
1024.898	0.00530192
1025.055	0.00326694
1025.212	0.00465393
1025.369	0.00631683
1025.525	0.00505912
1025.682	0.00573883
1025.839	0.00706716
1025.996	0.0048268
1026.153	0.00625879
1026.31	0.00617891
1026.466	0.00272149
1026.623	0.00295415
1026.78	0.00360525
1026.937	0.00380957
1027.093	0.00482451
1027.25	0.00545656
1027.407	0.00654876
1027.563	0.01102605
1027.72	0.01339065
1027.876	0.01044515
1028.033	0.01536171
1028.19	0.01594753
1028.346	0.01298682
1028.503	0.01324705
1028.659	0.00845222
1028.816	0.00509271
1028.972	0.00502675
1029.128	0.00012201
1029.285	0.00157107
1029.441	0.00680331
1029.598	0.00958463
1029.754	0.01344206
1029.91	0.01419199
1030.067	0.01384531
1030.223	0.01426275
1030.379	0.0113379
1030.535	0.00966457
1030.691	0.00571065
1030.848	0.00611571
1031.004	0.00314359
1031.16	0.00606428
1031.316	0.00733877
1031.472	0.01215563
1031.628	0.007713
1031.784	0.00805519
1031.94	0.00747416
1032.096	0.01504287
1032.252	0.01490806
1032.408	0.01371242
1032.564	0.00940506
1032.72	0.01343172
1032.876	0.01261521
1033.032	0.00654993
1033.188	0.00812789
1033.344	0.00735527
1033.5	0.00523446
1033.655	0.00595659
1033.811	0.0052585
1033.967	0.00850963
