Data from 0_1_mm_pl_80pc_Absorbance__0__16-14-26-168.txt Node

Date: Fri Feb 24 16:14:26 CET 2023
User: Ange
Spectrometer: FLMT08341
Trigger mode: 0
Integration Time (sec): 1.000000E-2
Scans to average: 400
Electric dark correction enabled: true
Nonlinearity correction enabled: false
Boxcar width: 3
XAxis mode: Wavelengths
Number of Pixels in Spectrum: 3648
>>>>>Begin Spectral Data<<<<<
345.271	-0.06380229
345.487	-0.04393976
345.704	-0.03511114
345.921	-0.03379448
346.137	-0.02142857
346.354	-0.0127451
346.571	0.00906982
346.787	0.07371894
347.004	0.08447028
347.22	0.05997139
347.437	0.05482132
347.653	0.05414714
347.87	0.0245604
348.086	-0.22325821
348.303	-0
348.519	0.40238518
348.736	0.40335459
348.952	0.41194405
349.169	0.42577503
349.385	0.44999652
349.601	0.45299592
349.818	0.45598797
350.034	0.45514851
350.251	0.45044374
350.467	0.45539893
350.683	0.44599268
350.9	0.44432869
351.116	0.4450712
351.332	0.4393653
351.549	0.45198655
351.765	0.47294856
351.981	0.48268284
352.197	0.50004046
352.414	0.52035882
352.63	0.52980526
352.846	0.54419005
353.062	0.53521781
353.278	0.52622728
353.495	0.54038342
353.711	0.54248788
353.927	0.54113455
354.143	0.53964276
354.359	0.53434447
354.575	0.53277341
354.792	0.54608035
355.008	0.53332838
355.224	0.52964995
355.44	0.53060375
355.656	0.52902217
355.872	0.54220271
356.088	0.57518978
356.304	0.57390213
356.52	0.58098707
356.736	0.58614167
356.952	0.58817792
357.168	0.59299226
357.384	0.59760918
357.6	0.57910873
357.816	0.58896208
358.032	0.59830427
358.248	0.6175624
358.464	0.62265993
358.679	0.6323086
358.895	0.6339924
359.111	0.64481647
359.327	0.63490826
359.543	0.63688127
359.759	0.64297616
359.974	0.6456898
360.19	0.64215701
360.406	0.64190952
360.622	0.63840937
360.838	0.63670126
361.053	0.64419943
361.269	0.64538766
361.485	0.64774894
361.701	0.65668887
361.916	0.6520909
362.132	0.6557809
362.348	0.66582037
362.563	0.66912375
362.779	0.66449935
362.995	0.67246461
363.21	0.68186491
363.426	0.68919047
363.641	0.68884815
363.857	0.69495244
364.073	0.68922058
364.288	0.68306328
364.504	0.69287354
364.719	0.69182667
364.935	0.69087246
365.15	0.69694608
365.366	0.69851698
365.581	0.71163609
365.797	0.71991758
366.012	0.71026544
366.228	0.70142929
366.443	0.71708784
366.658	0.72017841
366.874	0.71458145
367.089	0.7196438
367.305	0.72420134
367.52	0.7275999
367.735	0.7309778
367.951	0.71881109
368.166	0.71807343
368.381	0.72988581
368.597	0.72444605
368.812	0.72692844
369.027	0.73112437
369.243	0.73551039
369.458	0.75673134
369.673	0.76229332
369.888	0.76306687
370.104	0.75483127
370.319	0.76024143
370.534	0.7546299
370.749	0.75814339
370.964	0.75493704
371.179	0.75387588
371.395	0.75117933
371.61	0.76113786
371.825	0.7519436
372.04	0.75774333
372.255	0.75409258
372.47	0.74527062
372.685	0.74052816
372.9	0.73853532
373.115	0.73343416
373.33	0.73817182
373.545	0.73594009
373.76	0.73897287
373.975	0.74055725
374.19	0.73747632
374.405	0.73847967
374.62	0.74711776
374.835	0.75413498
375.05	0.75590837
375.265	0.7561097
375.48	0.75959566
375.695	0.77957125
375.91	0.77677976
376.125	0.76402445
376.339	0.75078216
376.554	0.75184585
376.769	0.75068207
376.984	0.74705962
377.199	0.74313347
377.414	0.74215848
377.628	0.75369168
377.843	0.76080299
378.058	0.75991866
378.273	0.7635599
378.487	0.76483084
378.702	0.76278831
378.917	0.76475538
379.131	0.75672351
379.346	0.74780832
379.561	0.74361061
379.775	0.73941941
379.99	0.73074372
380.205	0.72132657
380.419	0.71308556
380.634	0.70409942
380.848	0.71036657
381.063	0.71013229
381.278	0.71569227
381.492	0.71151107
381.707	0.71945132
381.921	0.72167342
382.136	0.73238393
382.35	0.72531899
382.565	0.72075313
382.779	0.71678216
382.994	0.72010573
383.208	0.71103798
383.422	0.71548581
383.637	0.70962549
383.851	0.7146801
384.066	0.72007055
384.28	0.72033615
384.494	0.72026158
384.709	0.72266557
384.923	0.71610479
385.137	0.71124729
385.352	0.70768301
385.566	0.7048639
385.78	0.6998677
385.995	0.69570938
386.209	0.6909411
386.423	0.69447637
386.637	0.695198
386.852	0.68852104
387.066	0.68512414
387.28	0.6803402
387.494	0.68292032
387.708	0.68149844
387.923	0.67636764
388.137	0.67758597
388.351	0.67860718
388.565	0.67855574
388.779	0.67915142
388.993	0.68183301
389.207	0.68098104
389.421	0.68055913
389.635	0.67480321
389.85	0.67139036
390.064	0.66930669
390.278	0.66717028
390.492	0.66408858
390.706	0.66209285
390.92	0.65834311
391.134	0.66008328
391.348	0.66492339
391.561	0.65995312
391.775	0.657157
391.989	0.64979321
392.203	0.64938951
392.417	0.6497803
392.631	0.64914017
392.845	0.64170618
393.059	0.64367876
393.273	0.6414669
393.486	0.6370687
393.7	0.63029416
393.914	0.62871081
394.128	0.6238138
394.342	0.620931
394.555	0.61402593
394.769	0.61079772
394.983	0.61053962
395.197	0.6116574
395.41	0.60915694
395.624	0.60837776
395.838	0.60569855
396.051	0.609172
396.265	0.60622065
396.479	0.60550694
396.692	0.60316732
396.906	0.59762031
397.12	0.5935983
397.333	0.5936491
397.547	0.5879569
397.76	0.58855745
397.974	0.58622816
398.187	0.58396427
398.401	0.58496977
398.614	0.58285818
398.828	0.57981759
399.041	0.57788495
399.255	0.5742149
399.468	0.57125695
399.682	0.56870557
399.895	0.56664121
400.109	0.56341917
400.322	0.56054864
400.536	0.5563175
400.749	0.5564403
400.962	0.55476565
401.176	0.55189918
401.389	0.54832285
401.602	0.54424273
401.816	0.5430515
402.029	0.54318196
402.242	0.53833303
402.456	0.53557606
402.669	0.53194931
402.882	0.52756075
403.095	0.52857646
403.309	0.525371
403.522	0.52279272
403.735	0.51987499
403.948	0.51771999
404.161	0.51929115
404.375	0.51839763
404.588	0.51566211
404.801	0.51328477
405.014	0.51038547
405.227	0.51054113
405.44	0.50928164
405.653	0.50681453
405.866	0.50375222
406.079	0.50139558
406.293	0.49969428
406.506	0.49720058
406.719	0.49430667
406.932	0.49146164
407.145	0.48790449
407.358	0.48829206
407.571	0.48542063
407.784	0.48370015
407.996	0.4823078
408.209	0.47908547
408.422	0.47679146
408.635	0.47537863
408.848	0.47323504
409.061	0.47050862
409.274	0.46783066
409.487	0.46550096
409.7	0.46453141
409.912	0.46330434
410.125	0.46114083
410.338	0.45841967
410.551	0.45664585
410.764	0.45458869
410.976	0.453235
411.189	0.45138461
411.402	0.44869544
411.615	0.44781351
411.827	0.44659881
412.04	0.44549391
412.253	0.44363121
412.465	0.44102575
412.678	0.43831806
412.891	0.43726577
413.103	0.43316289
413.316	0.43063639
413.529	0.42933825
413.741	0.42813453
413.954	0.42696347
414.166	0.42604618
414.379	0.42357868
414.591	0.42350425
414.804	0.42113984
415.016	0.41902708
415.229	0.41708593
415.441	0.41498011
415.654	0.41350548
415.866	0.41246711
416.079	0.41095234
416.291	0.40936636
416.504	0.4086466
416.716	0.40720526
416.928	0.40577379
417.141	0.40353261
417.353	0.40186339
417.566	0.39928837
417.778	0.39789769
417.99	0.39468619
418.203	0.39246216
418.415	0.39063545
418.627	0.38991316
418.839	0.38876157
419.052	0.38811423
419.264	0.38650956
419.476	0.38604795
419.688	0.38458052
419.901	0.3832206
420.113	0.38107043
420.325	0.37896764
420.537	0.37688188
420.749	0.37630549
420.961	0.3746308
421.174	0.37341647
421.386	0.37183117
421.598	0.37072975
421.81	0.36922387
422.022	0.36755453
422.234	0.36548274
422.446	0.3638727
422.658	0.36226405
422.87	0.36090028
423.082	0.35909366
423.294	0.35752265
423.506	0.35648167
423.718	0.35503723
423.93	0.35328884
424.142	0.35183354
424.354	0.35028406
424.566	0.34881001
424.778	0.34765245
424.99	0.34603358
425.202	0.34436993
425.414	0.34337948
425.625	0.34268421
425.837	0.34087184
426.049	0.34003496
426.261	0.33864231
426.473	0.33720303
426.684	0.33651653
426.896	0.33572475
427.108	0.33393307
427.32	0.33351516
427.531	0.33184278
427.743	0.33085359
427.955	0.33037441
428.167	0.32847305
428.378	0.32687233
428.59	0.32576036
428.802	0.32412285
429.013	0.32300292
429.225	0.32164935
429.436	0.32029035
429.648	0.31955748
429.86	0.31842093
430.071	0.31746001
430.283	0.31658622
430.494	0.31565619
430.706	0.31473271
430.917	0.31341768
431.129	0.31228484
431.34	0.31115041
431.552	0.31013161
431.763	0.30879406
431.975	0.3077709
432.186	0.30636994
432.398	0.30519627
432.609	0.30361147
432.821	0.30250362
433.032	0.30123429
433.243	0.30047836
433.455	0.29924498
433.666	0.29839008
433.877	0.29782648
434.089	0.29681507
434.3	0.29565338
434.511	0.29428739
434.723	0.2930979
434.934	0.29192746
435.145	0.29046608
435.356	0.2890383
435.568	0.28824757
435.779	0.28713984
435.99	0.28618511
436.201	0.28512702
436.412	0.28398136
436.624	0.28324202
436.835	0.28249099
437.046	0.28179743
437.257	0.28094374
437.468	0.28049336
437.679	0.27962793
437.89	0.27869987
438.101	0.27776966
438.312	0.27679588
438.523	0.27579169
438.734	0.27495247
438.945	0.27386697
439.156	0.27278038
439.367	0.27205362
439.578	0.27146156
439.789	0.2703759
440	0.26968501
440.211	0.26872934
440.422	0.26785732
440.633	0.26715047
440.844	0.2661075
441.055	0.2649703
441.266	0.26425709
441.477	0.26311688
441.687	0.26240417
441.898	0.26164226
442.109	0.26057609
442.32	0.25973628
442.531	0.25877819
442.741	0.25751524
442.952	0.25671136
443.163	0.25591446
443.374	0.25475172
443.584	0.25396812
443.795	0.2534184
444.006	0.25268478
444.216	0.25220886
444.427	0.25123526
444.638	0.25034795
444.848	0.24972565
445.059	0.24911098
445.27	0.24820493
445.48	0.24727827
445.691	0.24657574
445.901	0.246008
446.112	0.24516915
446.323	0.2441374
446.533	0.24328302
446.744	0.24238285
446.954	0.24164307
447.165	0.24066767
447.375	0.24006798
447.586	0.23956539
447.796	0.23905675
448.006	0.23839594
448.217	0.23781725
448.427	0.23724454
448.638	0.23651198
448.848	0.23547149
449.058	0.23457908
449.269	0.23390024
449.479	0.23317904
449.689	0.23256778
449.9	0.2318854
450.11	0.23126777
450.32	0.23074232
450.531	0.22992021
450.741	0.2290673
450.951	0.22837001
451.161	0.227515
451.372	0.22681211
451.582	0.22626512
451.792	0.22528433
452.002	0.22470711
452.212	0.2239244
452.422	0.22317567
452.633	0.22234997
452.843	0.22161125
453.053	0.22047379
453.263	0.22008124
453.473	0.21924362
453.683	0.21879228
453.893	0.21793561
454.103	0.21741864
454.313	0.21658016
454.523	0.21612124
454.733	0.21529027
454.943	0.21501028
455.153	0.21438861
455.363	0.21396175
455.573	0.21327878
455.783	0.21292487
455.993	0.21240675
456.203	0.21207693
456.413	0.21129162
456.623	0.21063028
456.833	0.21016447
457.042	0.20960713
457.252	0.20906879
457.462	0.20832799
457.672	0.2076607
457.882	0.20717763
458.091	0.20654007
458.301	0.20558107
458.511	0.20502686
458.721	0.20439336
458.931	0.20386442
459.14	0.20320568
459.35	0.20264186
459.56	0.20233422
459.769	0.20206435
459.979	0.2015204
460.189	0.20089384
460.398	0.20041034
460.608	0.19998319
460.817	0.19936989
461.027	0.19875107
461.237	0.19823488
461.446	0.19780744
461.656	0.1975736
461.865	0.19712399
462.075	0.19657351
462.284	0.19624115
462.494	0.19571867
462.703	0.19515633
462.913	0.19475171
463.122	0.19424791
463.332	0.19372159
463.541	0.19340162
463.751	0.19279177
463.96	0.19246886
464.169	0.19212153
464.379	0.19169707
464.588	0.19122102
464.797	0.19085094
465.007	0.19029742
465.216	0.18996923
465.425	0.18957112
465.635	0.18923244
465.844	0.18874716
466.053	0.18829801
466.263	0.18781697
466.472	0.18753964
466.681	0.18719854
466.89	0.18669398
467.099	0.18627745
467.309	0.18594278
467.518	0.18559664
467.727	0.18525462
467.936	0.18477519
468.145	0.18418764
468.354	0.1838784
468.563	0.18339223
468.772	0.18296081
468.982	0.18234027
469.191	0.18198916
469.4	0.18162104
469.609	0.18144838
469.818	0.18106685
470.027	0.18083252
470.236	0.1803146
470.445	0.18012264
470.654	0.17967189
470.863	0.17931364
471.072	0.17898506
471.28	0.1784842
471.489	0.17807044
471.698	0.17790184
471.907	0.17765917
472.116	0.17753056
472.325	0.17718088
472.534	0.17680035
472.743	0.17666247
472.951	0.1763849
473.16	0.17604317
473.369	0.17568534
473.578	0.17524737
473.786	0.17502254
473.995	0.1746968
474.204	0.17428172
474.413	0.1739589
474.621	0.1737254
474.83	0.17353389
475.039	0.17338802
475.247	0.17308289
475.456	0.17284831
475.665	0.17266098
475.873	0.17234487
476.082	0.17195689
476.291	0.17158989
476.499	0.1712921
476.708	0.17095274
476.916	0.17079115
477.125	0.17051778
477.333	0.17030316
477.542	0.17008016
477.75	0.16988122
477.959	0.16961219
478.167	0.16941861
478.376	0.16912571
478.584	0.16887703
478.793	0.16868306
479.001	0.16845178
479.209	0.16827844
479.418	0.16809494
479.626	0.16789349
479.834	0.16761093
480.043	0.16744668
480.251	0.16722335
480.459	0.16709967
480.668	0.16696034
480.876	0.16676654
481.084	0.16662287
481.293	0.16649454
481.501	0.16627606
481.709	0.16614598
481.917	0.16595856
482.125	0.16566435
482.334	0.16555349
482.542	0.1654531
482.75	0.16536748
482.958	0.16525027
483.166	0.16508741
483.374	0.16492395
483.583	0.16484478
483.791	0.16465118
483.999	0.16444868
484.207	0.16424547
484.415	0.1641119
484.623	0.16393309
484.831	0.16378524
485.039	0.16358003
485.247	0.16339177
485.455	0.16328155
485.663	0.16312841
485.871	0.16308508
486.079	0.16291747
486.287	0.1628043
486.495	0.16276653
486.702	0.16267952
486.91	0.16253032
487.118	0.16243897
487.326	0.16223856
487.534	0.16218612
487.742	0.16214009
487.95	0.1619578
488.157	0.16181613
488.365	0.16177623
488.573	0.16169677
488.781	0.16168908
488.988	0.16165636
489.196	0.16164357
489.404	0.1616957
489.612	0.16170834
489.819	0.16163032
490.027	0.16165516
490.235	0.1614988
490.442	0.16151292
490.65	0.16135461
490.857	0.16133115
491.065	0.1612509
491.273	0.16122654
491.48	0.16113595
491.688	0.1611515
491.895	0.1610553
492.103	0.16104569
492.31	0.16093862
492.518	0.16090532
492.725	0.16092855
492.933	0.16088658
493.14	0.16084266
493.348	0.16080497
493.555	0.16079698
493.763	0.16081276
493.97	0.16083385
494.177	0.16081593
494.385	0.16078879
494.592	0.16082045
494.8	0.16084206
495.007	0.16082443
495.214	0.16082666
495.422	0.1608278
495.629	0.16076353
495.836	0.16078639
496.043	0.16076049
496.251	0.16073358
496.458	0.16078186
496.665	0.16081579
496.872	0.16086052
497.08	0.16095305
497.287	0.16099649
497.494	0.16105968
497.701	0.16116251
497.908	0.16117719
498.115	0.16120069
498.322	0.16117754
498.53	0.16115698
498.737	0.16115643
498.944	0.16116601
499.151	0.16115615
499.358	0.16126684
499.565	0.16129089
499.772	0.16138917
499.979	0.16145014
500.186	0.16156124
500.393	0.16168245
500.6	0.1617549
500.807	0.16176777
501.014	0.16183414
501.221	0.16192869
501.427	0.16202972
501.634	0.16209365
501.841	0.16217531
502.048	0.16225045
502.255	0.16227511
502.462	0.1623485
502.669	0.16242218
502.875	0.16246492
503.082	0.16254237
503.289	0.16259181
503.496	0.1626521
503.702	0.16279067
503.909	0.16293079
504.116	0.16306153
504.323	0.16315122
504.529	0.16333877
504.736	0.16352553
504.943	0.1636726
505.149	0.16379054
505.356	0.16387033
505.563	0.16398564
505.769	0.16415073
505.976	0.16416311
506.182	0.16420742
506.389	0.16432009
506.595	0.16449282
506.802	0.16460949
507.008	0.16464655
507.215	0.16477338
507.421	0.16494998
507.628	0.1650762
507.834	0.16522683
508.041	0.165294
508.247	0.16537896
508.454	0.16555462
508.66	0.16563784
508.866	0.16573293
509.073	0.16588639
509.279	0.16601099
509.486	0.16618353
509.692	0.16641052
509.898	0.16662937
510.105	0.16685665
510.311	0.16703581
510.517	0.16720433
510.723	0.1674024
510.93	0.16758001
511.136	0.16775392
511.342	0.16787033
511.548	0.16805706
511.754	0.16827195
511.961	0.16842001
512.167	0.16855572
512.373	0.16870245
512.579	0.16891331
512.785	0.16911603
512.991	0.16922129
513.197	0.1693874
513.404	0.1695901
513.61	0.16980693
513.816	0.17004785
514.022	0.17022318
514.228	0.17042708
514.434	0.17067584
514.64	0.17088527
514.846	0.17113175
515.052	0.17137465
515.258	0.17152584
515.464	0.17164686
515.669	0.17181834
515.875	0.17201799
516.081	0.17222369
516.287	0.17239741
516.493	0.17259297
516.699	0.17279826
516.905	0.17308804
517.111	0.17329513
517.316	0.17348254
517.522	0.17366144
517.728	0.17387524
517.934	0.17405847
518.139	0.17427783
518.345	0.17451374
518.551	0.17473104
518.757	0.17495456
518.962	0.17517435
519.168	0.17537478
519.374	0.17554401
519.579	0.17581908
519.785	0.17598212
519.991	0.17618619
520.196	0.17649829
520.402	0.17679943
520.607	0.17707102
520.813	0.17740024
521.018	0.17758799
521.224	0.17780821
521.429	0.17810735
521.635	0.17825477
521.84	0.17840359
522.046	0.1786569
522.251	0.17887188
522.457	0.17907135
522.662	0.1793528
522.868	0.17960755
523.073	0.17983133
523.279	0.18009548
523.484	0.18032931
523.689	0.18057617
523.895	0.18085667
524.1	0.18111345
524.305	0.18139013
524.511	0.18169435
524.716	0.18198089
524.921	0.18224895
525.126	0.18247334
525.332	0.18279863
525.537	0.18305395
525.742	0.18326326
525.947	0.18352679
526.153	0.18375631
526.358	0.18398006
526.563	0.18421438
526.768	0.18444258
526.973	0.18472231
527.178	0.18494107
527.383	0.18515785
527.588	0.185447
527.794	0.18571101
527.999	0.18601348
528.204	0.18624301
528.409	0.186508
528.614	0.18680732
528.819	0.18706285
529.024	0.18728885
529.229	0.18757794
529.434	0.18782367
529.639	0.18812438
529.843	0.18837869
530.048	0.18865042
530.253	0.1889454
530.458	0.18924534
530.663	0.18944142
530.868	0.18971497
531.073	0.18996128
531.278	0.19017859
531.482	0.19041612
531.687	0.19067978
531.892	0.1909298
532.097	0.19117437
532.302	0.19145083
532.506	0.19170971
532.711	0.19197366
532.916	0.19231423
533.12	0.19261588
533.325	0.19289775
533.53	0.19320415
533.734	0.19346813
533.939	0.19376132
534.144	0.1940691
534.348	0.1942811
534.553	0.19454953
534.757	0.19482737
534.962	0.19511969
535.167	0.19542951
535.371	0.19570314
535.576	0.19598248
535.78	0.19629417
535.985	0.19656621
536.189	0.19688651
536.394	0.19723536
536.598	0.1975235
536.803	0.19775894
537.007	0.19806733
537.211	0.19837575
537.416	0.198634
537.62	0.1988039
537.825	0.19901567
538.029	0.19931306
538.233	0.19959604
538.438	0.19988123
538.642	0.20009737
538.846	0.20037098
539.05	0.20063297
539.255	0.20094585
539.459	0.20114476
539.663	0.20143417
539.867	0.20167406
540.072	0.20198262
540.276	0.2022649
540.48	0.20264749
540.684	0.20288132
540.888	0.20323016
541.092	0.20351112
541.297	0.20376249
541.501	0.20397705
541.705	0.20424676
541.909	0.20438955
542.113	0.20467056
542.317	0.20492797
542.521	0.20523473
542.725	0.20553944
542.929	0.2058283
543.133	0.20613566
543.337	0.20648202
543.541	0.20672358
543.745	0.20694232
543.949	0.20717351
544.153	0.20737555
544.357	0.20760426
544.56	0.20785198
544.764	0.20811385
544.968	0.20836357
545.172	0.20860043
545.376	0.20883101
545.58	0.20910145
545.783	0.20939354
545.987	0.20959691
546.191	0.2098466
546.395	0.21013591
546.598	0.21043707
546.802	0.21074472
547.006	0.21098311
547.21	0.21120527
547.413	0.21149626
547.617	0.21179596
547.821	0.21208812
548.024	0.21236152
548.228	0.21256997
548.431	0.21285973
548.635	0.21317639
548.839	0.21335941
549.042	0.21357703
549.246	0.21374917
549.449	0.21395738
549.653	0.21420087
549.856	0.21443524
550.06	0.21467511
550.263	0.21500589
550.467	0.21523482
550.67	0.21550618
550.874	0.21570036
551.077	0.21588837
551.28	0.2161408
551.484	0.21633083
551.687	0.2165335
551.891	0.21676897
552.094	0.21695524
552.297	0.21725519
552.501	0.21755467
552.704	0.21774462
552.907	0.21793453
553.11	0.21814746
553.314	0.21836538
553.517	0.21858099
553.72	0.21874574
553.923	0.21899386
554.127	0.21919614
554.33	0.21938398
554.533	0.21962273
554.736	0.21980848
554.939	0.22002632
555.142	0.22021085
555.345	0.22035348
555.549	0.22055182
555.752	0.22081154
555.955	0.22092772
556.158	0.22119714
556.361	0.22140148
556.564	0.22163158
556.767	0.2218093
556.97	0.22208134
557.173	0.22228241
557.376	0.22255418
557.579	0.22268848
557.782	0.22289411
557.984	0.22305068
558.187	0.22330101
558.39	0.22341056
558.593	0.22357128
558.796	0.22364519
558.999	0.2237767
559.202	0.22394219
559.404	0.22410555
559.607	0.22422772
559.81	0.22439463
560.013	0.22453658
560.216	0.22477788
560.418	0.22490682
560.621	0.2250445
560.824	0.22523428
561.026	0.22545423
561.229	0.22558555
561.432	0.22578293
561.634	0.22587056
561.837	0.22604806
562.04	0.22618764
562.242	0.22636975
562.445	0.22641817
562.647	0.22654136
562.85	0.22664252
563.053	0.2268337
563.255	0.22698862
563.458	0.22718094
563.66	0.22727317
563.863	0.22746559
564.065	0.22759312
564.268	0.2277483
564.47	0.22788538
564.672	0.22802942
564.875	0.22811669
565.077	0.22816341
565.28	0.22828999
565.482	0.22843637
565.684	0.22850947
565.887	0.22858481
566.089	0.22866924
566.291	0.22878877
566.494	0.2289365
566.696	0.22902912
566.898	0.2291235
567.1	0.22921912
567.303	0.22932884
567.505	0.22945213
567.707	0.22952516
567.909	0.22959749
568.111	0.2296583
568.314	0.22971465
568.516	0.22982893
568.718	0.22992949
568.92	0.22995029
569.122	0.22997669
569.324	0.23008883
569.526	0.23014416
569.728	0.23024511
569.93	0.23030995
570.132	0.23032612
570.334	0.23044754
570.536	0.23051373
570.738	0.23049311
570.94	0.23050048
571.142	0.23058912
571.344	0.23059972
571.546	0.23068018
571.748	0.23073663
571.95	0.23076157
572.152	0.23085255
572.354	0.23096691
572.555	0.23100849
572.757	0.23109134
572.959	0.23111067
573.161	0.23111256
573.363	0.23112424
573.564	0.23121704
573.766	0.2311996
573.968	0.2312511
574.17	0.23120706
574.371	0.23118713
574.573	0.23122723
574.775	0.23126451
574.976	0.23127808
575.178	0.23133388
575.38	0.23124829
575.581	0.23124397
575.783	0.23127597
575.985	0.23124978
576.186	0.23129486
576.388	0.23128196
576.589	0.23123565
576.791	0.23132984
576.992	0.23138451
577.194	0.23139729
577.395	0.23140272
577.597	0.23142954
577.798	0.23137701
578	0.2313861
578.201	0.23140071
578.402	0.23136235
578.604	0.23129959
578.805	0.23130624
579.007	0.23124311
579.208	0.2312934
579.409	0.23120677
579.611	0.23110972
579.812	0.23112001
580.013	0.23116304
580.215	0.23107695
580.416	0.23102385
580.617	0.23087876
580.818	0.23089911
581.019	0.23083851
581.221	0.23075984
581.422	0.23071334
581.623	0.2307383
581.824	0.2306669
582.025	0.23069489
582.226	0.23068805
582.428	0.2306945
582.629	0.23063721
582.83	0.23060838
583.031	0.23045984
583.232	0.23044306
583.433	0.23041342
583.634	0.2303045
583.835	0.23020802
584.036	0.23016271
584.237	0.2300718
584.438	0.23006841
584.639	0.23000745
584.84	0.22994609
585.041	0.22983369
585.242	0.22979303
585.442	0.22969832
585.643	0.22965073
585.844	0.22957838
586.045	0.2295005
586.246	0.22931606
586.447	0.22930269
586.647	0.22920314
586.848	0.22916408
587.049	0.22903592
587.25	0.22891434
587.45	0.22883302
587.651	0.22886269
587.852	0.22878001
588.053	0.22879345
588.253	0.22875194
588.454	0.22867463
588.655	0.22864907
588.855	0.22856124
589.056	0.2284547
589.256	0.22841589
589.457	0.22825784
589.658	0.22813762
589.858	0.22801919
590.059	0.2279139
590.259	0.22781738
590.46	0.22773731
590.66	0.22761843
590.861	0.22759634
591.061	0.22750692
591.262	0.22750724
591.462	0.22745672
591.662	0.22741095
591.863	0.22728667
592.063	0.22722934
592.264	0.22713496
592.464	0.22706844
592.664	0.22694721
592.865	0.22689832
593.065	0.22674343
593.265	0.22672709
593.465	0.22660252
593.666	0.2265184
593.866	0.22640322
594.066	0.22633149
594.266	0.2261081
594.467	0.22601059
594.667	0.22584804
594.867	0.22579057
595.067	0.22562346
595.267	0.2254714
595.467	0.22535732
595.668	0.22529454
595.868	0.22522839
596.068	0.22511688
596.268	0.22492286
596.468	0.22490346
596.668	0.22481434
596.868	0.22471422
597.068	0.2245757
597.268	0.22447068
597.468	0.22434111
597.668	0.22426419
597.868	0.22408776
598.068	0.22397734
598.268	0.22384801
598.467	0.22386892
598.667	0.22365969
598.867	0.22357574
599.067	0.2234733
599.267	0.22337017
599.467	0.22328721
599.667	0.22313245
599.866	0.22295979
600.066	0.22295203
600.266	0.22281419
600.466	0.22271992
600.665	0.22260487
600.865	0.22251874
601.065	0.22245755
601.264	0.22232836
601.464	0.22220383
601.664	0.22220437
601.863	0.22207574
602.063	0.22200252
602.263	0.2217547
602.462	0.22166339
602.662	0.22152663
602.861	0.22146691
603.061	0.22131279
603.26	0.22124168
603.46	0.22107153
603.659	0.22109289
603.859	0.22091791
604.058	0.22080861
604.258	0.22074432
604.457	0.22069586
604.657	0.22050402
604.856	0.22036963
605.056	0.22030691
605.255	0.22023038
605.454	0.22017765
605.654	0.2199794
605.853	0.21982153
606.052	0.21981436
606.252	0.2197791
606.451	0.2196638
606.65	0.21964615
606.849	0.21950239
607.049	0.21944137
607.248	0.2193736
607.447	0.21923783
607.646	0.21917926
607.845	0.21910827
608.045	0.21891491
608.244	0.21892187
608.443	0.21879562
608.642	0.21875469
608.841	0.21869106
609.04	0.21856312
609.239	0.21850661
609.438	0.21840917
609.637	0.21839399
609.836	0.21839716
610.035	0.21828673
610.234	0.21828089
610.433	0.21826451
610.632	0.21812935
610.831	0.2182096
611.03	0.21807585
611.229	0.21809807
611.428	0.21806863
611.627	0.2179548
611.826	0.21790023
612.025	0.21801917
612.224	0.21789636
612.422	0.21788283
612.621	0.21779067
612.82	0.21774574
613.019	0.21771393
613.218	0.21776283
613.416	0.21756366
613.615	0.21762209
613.814	0.21759475
614.012	0.21756909
614.211	0.21745789
614.41	0.21750171
614.608	0.21738639
614.807	0.21735413
615.006	0.21735881
615.204	0.21733367
615.403	0.21737969
615.602	0.21750812
615.8	0.21757903
615.999	0.2175366
616.197	0.21752807
616.396	0.21755753
616.594	0.21746519
616.793	0.21746563
616.991	0.21736237
617.19	0.21712622
617.388	0.21723086
617.586	0.21731411
617.785	0.21716899
617.983	0.21723267
618.182	0.21707137
618.38	0.21702554
618.578	0.21709468
618.777	0.21705269
618.975	0.2170602
619.173	0.21714397
619.372	0.2171418
619.57	0.21717087
619.768	0.21726206
619.966	0.21732798
620.165	0.21727898
620.363	0.21729498
620.561	0.21715468
620.759	0.21716679
620.957	0.21725468
621.155	0.21726573
621.354	0.21719148
621.552	0.21734877
621.75	0.21726879
621.948	0.21744732
622.146	0.21750757
622.344	0.21753017
622.542	0.21756022
622.74	0.21764764
622.938	0.21751098
623.136	0.21764007
623.334	0.21769792
623.532	0.21762504
623.73	0.21759061
623.928	0.21767952
624.126	0.2177418
624.324	0.21795069
624.522	0.21787508
624.719	0.21782871
624.917	0.2179505
625.115	0.21799644
625.313	0.21801306
625.511	0.21809469
625.708	0.21792698
625.906	0.21795914
626.104	0.21800499
626.302	0.21814248
626.499	0.21827079
626.697	0.21827609
626.895	0.21818052
627.093	0.21834171
627.29	0.21854011
627.488	0.21864669
627.686	0.21866994
627.883	0.21863074
628.081	0.21862671
628.278	0.21897447
628.476	0.21903428
628.673	0.21909485
628.871	0.21912763
629.068	0.21916197
629.266	0.21930244
629.463	0.21933451
629.661	0.21923112
629.858	0.21923131
630.056	0.21926165
630.253	0.21925588
630.451	0.2193445
630.648	0.21937628
630.845	0.2195213
631.043	0.21959592
631.24	0.21976424
631.438	0.21987239
631.635	0.22001055
631.832	0.21999513
632.029	0.2201493
632.227	0.22030047
632.424	0.2204294
632.621	0.22049429
632.818	0.22048238
633.016	0.22060007
633.213	0.22073529
633.41	0.22082917
633.607	0.22087709
633.804	0.2209173
634.001	0.22092642
634.199	0.22113286
634.396	0.22124827
634.593	0.22124708
634.79	0.22137912
634.987	0.22153794
635.184	0.2216355
635.381	0.22182907
635.578	0.22194379
635.775	0.22196672
635.972	0.22215285
636.169	0.22218863
636.366	0.22217964
636.563	0.22224605
636.76	0.2222164
636.957	0.22226523
637.153	0.22229767
637.35	0.22243604
637.547	0.22252133
637.744	0.22261442
637.941	0.22274811
638.138	0.22299421
638.334	0.22302432
638.531	0.22322259
638.728	0.22330357
638.925	0.22350425
639.121	0.22361798
639.318	0.22373256
639.515	0.22376027
639.711	0.2239483
639.908	0.22393771
640.105	0.22402528
640.301	0.22398595
640.498	0.22409942
640.695	0.22423249
640.891	0.22430433
641.088	0.22432
641.284	0.22450414
641.481	0.22455614
641.677	0.22469055
641.874	0.22474638
642.07	0.22485521
642.267	0.22509359
642.463	0.22526333
642.66	0.22543675
642.856	0.2254924
643.053	0.22553482
643.249	0.22569591
643.445	0.22573008
643.642	0.22577243
643.838	0.22590116
644.034	0.22599938
644.231	0.22617802
644.427	0.22638238
644.623	0.2264606
644.82	0.2265993
645.016	0.2266422
645.212	0.22659613
645.408	0.22666713
645.604	0.22685409
645.801	0.22694478
645.997	0.22709397
646.193	0.22715096
646.389	0.22740245
646.585	0.22759212
646.781	0.22774781
646.977	0.22781495
647.173	0.22789515
647.37	0.22791277
647.566	0.22802944
647.762	0.22804816
647.958	0.22824672
648.154	0.22826142
648.35	0.22834648
648.546	0.22844239
648.742	0.22870436
648.937	0.22870003
649.133	0.22888496
649.329	0.22904164
649.525	0.22919901
649.721	0.2293132
649.917	0.22954297
650.113	0.22953972
650.309	0.22987688
650.504	0.22987486
650.7	0.22984224
650.896	0.22997258
651.092	0.23006286
651.287	0.23005542
651.483	0.23029891
651.679	0.23029084
651.875	0.23049591
652.07	0.23064179
652.266	0.23071352
652.462	0.23085842
652.657	0.23101052
652.853	0.23102016
653.048	0.23113534
653.244	0.23111324
653.44	0.23118666
653.635	0.23121604
653.831	0.23133485
654.026	0.2314681
654.222	0.23154656
654.417	0.23170491
654.613	0.23182192
654.808	0.23192631
655.004	0.23218351
655.199	0.23222932
655.394	0.23224792
655.59	0.23244046
655.785	0.23247353
655.98	0.23262882
656.176	0.2326727
656.371	0.23275262
656.566	0.23286562
656.762	0.23286283
656.957	0.2329047
657.152	0.23297022
657.348	0.23304576
657.543	0.23321101
657.738	0.23330089
657.933	0.23337094
658.128	0.23354785
658.324	0.23356591
658.519	0.23368944
658.714	0.2338005
658.909	0.23381572
659.104	0.23390306
659.299	0.23400738
659.494	0.23411618
659.689	0.23424537
659.884	0.23431298
660.079	0.23431171
660.274	0.23446054
660.469	0.23457594
660.664	0.23473291
660.859	0.23481263
661.054	0.23492758
661.249	0.23502871
661.444	0.23516286
661.639	0.23516401
661.834	0.23508804
662.029	0.23511994
662.224	0.23514109
662.418	0.23519693
662.613	0.2352663
662.808	0.23527928
663.003	0.23538891
663.198	0.2355363
663.392	0.23552555
663.587	0.2357634
663.782	0.23577052
663.977	0.23584917
664.171	0.23598037
664.366	0.23606287
664.561	0.23611089
664.755	0.23626399
664.95	0.23619061
665.144	0.23633433
665.339	0.23644735
665.534	0.23652364
665.728	0.23666531
665.923	0.23677603
666.117	0.23680528
666.312	0.23690953
666.506	0.23702861
666.701	0.23699447
666.895	0.23704937
667.09	0.23703978
667.284	0.23711254
667.479	0.23717476
667.673	0.23717165
667.867	0.23721338
668.062	0.23730505
668.256	0.23738326
668.45	0.2375115
668.645	0.23753347
668.839	0.23762703
669.033	0.23775976
669.228	0.23777797
669.422	0.23791833
669.616	0.23793181
669.81	0.23799011
670.004	0.23800151
670.199	0.2380644
670.393	0.23807528
670.587	0.23809944
670.781	0.23807913
670.975	0.23817827
671.169	0.23810937
671.363	0.23815881
671.558	0.23816161
671.752	0.23825135
671.946	0.23839345
672.14	0.23845419
672.334	0.23839638
672.528	0.2385885
672.722	0.23859916
672.916	0.23862496
673.11	0.23853262
673.304	0.23856515
673.497	0.23851823
673.691	0.23865068
673.885	0.23852158
674.079	0.2386348
674.273	0.23862883
674.467	0.2387179
674.661	0.23866595
674.854	0.23876036
675.048	0.23878819
675.242	0.23888908
675.436	0.23887122
675.629	0.2389303
675.823	0.23894454
676.017	0.23900769
676.211	0.23900384
676.404	0.2390172
676.598	0.23904211
676.792	0.23912346
676.985	0.23923653
677.179	0.2393147
677.372	0.23927134
677.566	0.23936279
677.76	0.2394292
677.953	0.23950147
678.147	0.23951132
678.34	0.23953912
678.534	0.23950255
678.727	0.23960806
678.921	0.23966077
679.114	0.23955643
679.307	0.23958044
679.501	0.23961514
679.694	0.23959286
679.888	0.23966042
680.081	0.23970444
680.274	0.23964964
680.468	0.23975103
680.661	0.23975023
680.854	0.2398928
681.048	0.23994636
681.241	0.23996175
681.434	0.23994917
681.627	0.24001739
681.821	0.24007813
682.014	0.2401686
682.207	0.24005973
682.4	0.2400196
682.593	0.24006873
682.786	0.24002251
682.98	0.23997379
683.173	0.23997226
683.366	0.23991856
683.559	0.23988308
683.752	0.23992448
683.945	0.23997023
684.138	0.2400705
684.331	0.24011319
684.524	0.24016203
684.717	0.24013326
684.91	0.24028569
685.103	0.24030196
685.296	0.24031033
685.489	0.2402785
685.682	0.24027847
685.874	0.24029382
686.067	0.24030241
686.26	0.24017632
686.453	0.24014006
686.646	0.24002461
686.839	0.239997
687.031	0.23995476
687.224	0.2398077
687.417	0.2398774
687.61	0.23986401
687.802	0.23980983
687.995	0.23994013
688.188	0.23997372
688.38	0.2399713
688.573	0.24004938
688.766	0.23996524
688.958	0.23992068
689.151	0.23993941
689.343	0.2398453
689.536	0.2398302
689.729	0.239819
689.921	0.23981334
690.114	0.23976961
690.306	0.23975592
690.499	0.23976136
690.691	0.23978758
690.884	0.2397351
691.076	0.239767
691.268	0.23974784
691.461	0.23969073
691.653	0.23972799
691.846	0.23974978
692.038	0.23967276
692.23	0.23958109
692.423	0.23954102
692.615	0.23951066
692.807	0.23954111
692.999	0.23954107
693.192	0.23942877
693.384	0.23947345
693.576	0.23949851
693.768	0.23949231
693.961	0.23942321
694.153	0.23942409
694.345	0.23936987
694.537	0.23940155
694.729	0.23935832
694.921	0.23932004
695.113	0.23931489
695.305	0.23932931
695.498	0.23927057
695.69	0.23932741
695.882	0.23928547
696.074	0.23929201
696.266	0.23927854
696.458	0.23916399
696.65	0.239145
696.842	0.23913191
697.033	0.23901771
697.225	0.23893643
697.417	0.23894369
697.609	0.23891635
697.801	0.23894556
697.993	0.23895197
698.185	0.23890726
698.376	0.23890121
698.568	0.23891234
698.76	0.23882582
698.952	0.23880633
699.144	0.23874827
699.335	0.23868086
699.527	0.23864814
699.719	0.23859442
699.91	0.23862796
700.102	0.23857447
700.294	0.23857736
700.485	0.23862075
700.677	0.23857344
700.869	0.23859525
701.06	0.23868898
701.252	0.23860339
701.443	0.23861701
701.635	0.23859235
701.826	0.23856392
702.018	0.23857951
702.209	0.23857294
702.401	0.23843936
702.592	0.23846532
702.784	0.23839336
702.975	0.23838178
703.166	0.23834667
703.358	0.23822868
703.549	0.23822185
703.741	0.23823726
703.932	0.23819407
704.123	0.23817163
704.315	0.23816205
704.506	0.23817574
704.697	0.23821448
704.888	0.23820636
705.08	0.23814453
705.271	0.23814206
705.462	0.23805963
705.653	0.23803703
705.844	0.23794073
706.035	0.23794811
706.227	0.23784868
706.418	0.23784906
706.609	0.23780059
706.8	0.23785685
706.991	0.23775859
707.182	0.23772934
707.373	0.23760311
707.564	0.23760332
707.755	0.23751449
707.946	0.23748791
708.137	0.23742033
708.328	0.23735617
708.519	0.23735386
708.71	0.23741311
708.901	0.23730967
709.092	0.23735785
709.283	0.23727232
709.473	0.23726687
709.664	0.23736169
709.855	0.23728479
710.046	0.23724896
710.237	0.23725573
710.427	0.23723377
710.618	0.23724886
710.809	0.23719194
711	0.23709517
711.19	0.23703191
711.381	0.23706042
711.572	0.23705563
711.762	0.23703092
711.953	0.23700086
712.144	0.23696587
712.334	0.23695708
712.525	0.23708065
712.715	0.23701433
712.906	0.23701405
713.097	0.23695254
713.287	0.23696405
713.478	0.23701995
713.668	0.23705139
713.859	0.23696826
714.049	0.23692928
714.239	0.23693531
714.43	0.23697808
714.62	0.23693673
714.811	0.23688777
715.001	0.23688704
715.191	0.2369351
715.382	0.23692445
715.572	0.23697502
715.762	0.23694396
715.953	0.23701064
716.143	0.23706713
716.333	0.23700159
716.523	0.23695326
716.714	0.23700538
716.904	0.23691023
717.094	0.23696634
717.284	0.2369206
717.474	0.23692211
717.664	0.23699596
717.855	0.23700334
718.045	0.23701003
718.235	0.2370586
718.425	0.23706641
718.615	0.2371054
718.805	0.23712749
718.995	0.23707899
719.185	0.23713042
719.375	0.23712321
719.565	0.23714602
719.755	0.23711258
719.945	0.2371117
720.135	0.23711453
720.325	0.23716465
720.515	0.23720182
720.704	0.23728825
720.894	0.23727872
721.084	0.23728705
721.274	0.23732737
721.464	0.23733631
721.654	0.2373409
721.843	0.23735662
722.033	0.23732523
722.223	0.23736514
722.413	0.23745465
722.602	0.237439
722.792	0.23751785
722.982	0.23756855
723.171	0.2375616
723.361	0.23757947
723.55	0.23766567
723.74	0.23758648
723.93	0.23758236
724.119	0.23753695
724.309	0.23753922
724.498	0.23750551
724.688	0.23750202
724.877	0.23744306
725.067	0.23745197
725.256	0.23753828
725.446	0.23756379
725.635	0.23754148
725.825	0.23748957
726.014	0.23747702
726.203	0.23742512
726.393	0.23737166
726.582	0.23725197
726.771	0.23720474
726.961	0.23717175
727.15	0.23714062
727.339	0.23705062
727.529	0.23703262
727.718	0.23695781
727.907	0.23695737
728.096	0.23690181
728.286	0.23679762
728.475	0.23684805
728.664	0.23692613
728.853	0.23687635
729.042	0.23695599
729.231	0.23698003
729.42	0.23696995
729.609	0.23705407
729.799	0.23694427
729.988	0.23689539
730.177	0.23689704
730.366	0.23689824
730.555	0.23682985
730.744	0.23680589
730.933	0.23675333
731.122	0.23680094
731.31	0.23679768
731.499	0.23676996
731.688	0.23671009
731.877	0.23667409
732.066	0.23665893
732.255	0.23661122
732.444	0.23659988
732.632	0.23652034
732.821	0.23644276
733.01	0.23645293
733.199	0.23643922
733.388	0.23639909
733.576	0.23637318
733.765	0.23637759
733.954	0.23640705
734.142	0.23644284
734.331	0.23648316
734.52	0.23653536
734.708	0.23651248
734.897	0.23657449
735.086	0.23653558
735.274	0.23653903
735.463	0.23656977
735.651	0.23652682
735.84	0.23648273
736.028	0.23654744
736.217	0.23652527
736.405	0.23647712
736.594	0.23648594
736.782	0.23648751
736.971	0.23643103
737.159	0.23640455
737.347	0.2363836
737.536	0.23641828
737.724	0.23651988
737.912	0.23648303
738.101	0.23644583
738.289	0.23653011
738.477	0.23656982
738.666	0.23656115
738.854	0.2365311
739.042	0.23650422
739.23	0.23650652
739.418	0.23655106
739.607	0.2365135
739.795	0.23653622
739.983	0.2365677
740.171	0.23664876
740.359	0.23668536
740.547	0.23670399
740.735	0.23671027
740.923	0.23674001
741.112	0.23676841
741.3	0.23678762
741.488	0.23673527
741.676	0.23678111
741.864	0.23681896
742.052	0.23689501
742.239	0.23688723
742.427	0.23687196
742.615	0.23689362
742.803	0.23689733
742.991	0.23687208
743.179	0.2368995
743.367	0.23689752
743.555	0.23698608
743.742	0.23702525
743.93	0.23704876
744.118	0.23708581
744.306	0.23715005
744.494	0.23712182
744.681	0.23712658
744.869	0.23710613
745.057	0.23713648
745.244	0.23719122
745.432	0.23721177
745.62	0.23717889
745.807	0.23722757
745.995	0.23720972
746.182	0.23720013
746.37	0.23720938
746.558	0.23717034
746.745	0.23715123
746.933	0.23721673
747.12	0.23718412
747.308	0.23729609
747.495	0.23740432
747.683	0.23744563
747.87	0.23745958
748.057	0.23758484
748.245	0.23759177
748.432	0.23773166
748.62	0.23773554
748.807	0.23768573
748.994	0.23771763
749.182	0.23776773
749.369	0.23774966
749.556	0.23773601
749.743	0.23771885
749.931	0.23772948
750.118	0.23778718
750.305	0.23784251
750.492	0.23787577
750.68	0.23789121
750.867	0.23790309
751.054	0.23792937
751.241	0.2379012
751.428	0.23789927
751.615	0.23779632
751.802	0.23785584
751.989	0.23791397
752.176	0.23804707
752.363	0.23811426
752.55	0.23827026
752.737	0.23833449
752.924	0.23841854
753.111	0.23841468
753.298	0.23846602
753.485	0.2384518
753.672	0.23847203
753.859	0.23848204
754.046	0.23855789
754.233	0.23864619
754.42	0.23871331
754.606	0.23868884
754.793	0.23874174
754.98	0.23876029
755.167	0.23870615
755.353	0.23872779
755.54	0.238835
755.727	0.23884768
755.914	0.23890163
756.1	0.2389239
756.287	0.23899844
756.474	0.2390391
756.66	0.23903367
756.847	0.23900307
757.033	0.23901829
757.22	0.23908619
757.407	0.23921147
757.593	0.23924389
757.78	0.23934917
757.966	0.23943641
758.153	0.23950456
758.339	0.23954519
758.526	0.23955354
758.712	0.23946246
758.898	0.23949049
759.085	0.23945089
759.271	0.23941639
759.458	0.2393713
759.644	0.23946953
759.83	0.23952689
760.017	0.23963047
760.203	0.23963667
760.389	0.23974492
760.576	0.23980158
760.762	0.23992461
760.948	0.23993245
761.134	0.2399702
761.32	0.2399863
761.507	0.24002978
761.693	0.24008711
761.879	0.24014377
762.065	0.24020688
762.251	0.24024008
762.437	0.24030815
762.623	0.2403965
762.809	0.24040275
762.995	0.24038949
763.181	0.24046075
763.367	0.24040637
763.553	0.24043561
763.739	0.24050515
763.925	0.2405183
764.111	0.24060665
764.297	0.24074189
764.483	0.24075808
764.669	0.24078184
764.855	0.24081923
765.041	0.24079928
765.227	0.24082497
765.412	0.24086502
765.598	0.24085371
765.784	0.24092538
765.97	0.24104271
766.156	0.24112653
766.341	0.24121392
766.527	0.2412177
766.713	0.24122779
766.898	0.24130798
767.084	0.24132405
767.27	0.24128708
767.455	0.24128329
767.641	0.24135666
767.827	0.24139937
768.012	0.24148783
768.198	0.24149586
768.383	0.24153154
768.569	0.24169948
768.754	0.24176378
768.94	0.24175168
769.125	0.24183814
769.311	0.24184912
769.496	0.2418231
769.682	0.24190795
769.867	0.24188368
770.052	0.24193081
770.238	0.2419785
770.423	0.24197158
770.608	0.24206975
770.794	0.24216912
770.979	0.24216909
771.164	0.24219291
771.35	0.24224207
771.535	0.24229915
771.72	0.24234653
771.905	0.24237834
772.09	0.24240599
772.276	0.2425337
772.461	0.24258979
772.646	0.24263321
772.831	0.24262222
773.016	0.24271746
773.201	0.24275012
773.386	0.24279987
773.571	0.2427638
773.756	0.24279492
773.941	0.24277522
774.126	0.24285602
774.311	0.24289303
774.496	0.24295921
774.681	0.2430351
774.866	0.24310028
775.051	0.24316151
775.236	0.24329528
775.421	0.24331067
775.606	0.24324459
775.791	0.24319838
775.976	0.24321416
776.16	0.24324744
776.345	0.24329303
776.53	0.24335505
776.715	0.243411
776.899	0.24356555
777.084	0.24363253
777.269	0.24369216
777.454	0.24366458
777.638	0.24367192
777.823	0.24370758
778.008	0.243715
778.192	0.2437411
778.377	0.24377382
778.561	0.24377313
778.746	0.24384456
778.931	0.24390515
779.115	0.2439172
779.3	0.24392629
779.484	0.24399432
779.669	0.24403239
779.853	0.24409939
780.037	0.24414982
780.222	0.24414797
780.406	0.24419483
780.591	0.2442948
780.775	0.24427352
780.959	0.24434351
781.144	0.24432923
781.328	0.24433309
781.512	0.24437047
781.697	0.24436645
781.881	0.24438442
782.065	0.24444774
782.249	0.24443497
782.434	0.24448632
782.618	0.24456094
782.802	0.24459825
782.986	0.24463116
783.17	0.24466494
783.354	0.24468418
783.539	0.24475569
783.723	0.24473524
783.907	0.24470558
784.091	0.2446641
784.275	0.24465542
784.459	0.24463305
784.643	0.24460437
784.827	0.2445909
785.011	0.24461262
785.195	0.24469524
785.379	0.24483683
785.563	0.24487933
785.747	0.24490289
785.93	0.24503817
786.114	0.24507623
786.298	0.24518412
786.482	0.24514141
786.666	0.24510028
786.85	0.24510121
787.033	0.24520413
787.217	0.24513636
787.401	0.24512604
787.585	0.2451343
787.768	0.24518932
787.952	0.24516252
788.136	0.245158
788.319	0.2450945
788.503	0.24505268
788.687	0.24506957
788.87	0.24501851
789.054	0.24499131
789.237	0.24504103
789.421	0.24502943
789.605	0.24503022
789.788	0.24507054
789.972	0.24504993
790.155	0.24503071
790.338	0.24506082
790.522	0.24502343
790.705	0.24508132
790.889	0.24510527
791.072	0.24511922
791.256	0.24517752
791.439	0.24520624
791.622	0.24524664
791.806	0.24539171
791.989	0.24543665
792.172	0.24547829
792.355	0.24551908
792.539	0.24551265
792.722	0.2455541
792.905	0.24552824
793.088	0.24541477
793.271	0.24537002
793.455	0.24533743
793.638	0.24530717
793.821	0.24531923
794.004	0.24531791
794.187	0.24538955
794.37	0.245521
794.553	0.24561063
794.736	0.24566829
794.919	0.24578826
795.102	0.24587517
795.285	0.24589822
795.468	0.24590394
795.651	0.24588676
795.834	0.2458861
796.017	0.24590612
796.2	0.24579791
796.383	0.24573171
796.566	0.24575049
796.749	0.24573184
796.931	0.24563887
797.114	0.24557323
797.297	0.24550961
797.48	0.24554157
797.663	0.24560416
797.845	0.24562111
798.028	0.24562238
798.211	0.24567057
798.393	0.24569746
798.576	0.24577534
798.759	0.24577043
798.941	0.24567429
799.124	0.24562039
799.307	0.2456317
799.489	0.24568541
799.672	0.24565102
799.854	0.24560391
800.037	0.24559447
800.219	0.24560681
800.402	0.2456958
800.584	0.24571014
800.767	0.24567461
800.949	0.2457175
801.132	0.24577579
801.314	0.24581262
801.496	0.24584884
801.679	0.24579994
801.861	0.24574537
802.043	0.24566978
802.226	0.24568994
802.408	0.24560547
802.59	0.24558871
802.772	0.24561345
802.955	0.24560456
803.137	0.24563707
803.319	0.24574429
803.501	0.24571588
803.684	0.24580012
803.866	0.24580837
804.048	0.24578687
804.23	0.24581202
804.412	0.24582008
804.594	0.24575896
804.776	0.2458227
804.958	0.24576851
805.14	0.2458055
805.322	0.24578615
805.504	0.24580147
805.686	0.24576714
805.868	0.2458492
806.05	0.24570833
806.232	0.24568514
806.414	0.24572895
806.596	0.24575599
806.778	0.24571805
806.96	0.24578227
807.141	0.2457403
807.323	0.24590164
807.505	0.24592419
807.687	0.24581259
807.869	0.24580984
808.05	0.24573475
808.232	0.24564162
808.414	0.24567725
808.595	0.24559011
808.777	0.24556096
808.959	0.24556945
809.14	0.24560239
809.322	0.24566962
809.504	0.24561896
809.685	0.24556444
809.867	0.24561306
810.048	0.24565811
810.23	0.24568744
810.411	0.24562424
810.593	0.24556577
810.774	0.24557337
810.956	0.24552504
811.137	0.24538938
811.319	0.24528934
811.5	0.2451721
811.681	0.24516558
811.863	0.24513644
812.044	0.24510658
812.225	0.2451523
812.407	0.24523986
812.588	0.24529149
812.769	0.24533435
812.951	0.24535667
813.132	0.24543737
813.313	0.24551273
813.494	0.24542043
813.675	0.24533393
813.857	0.24530639
814.038	0.24528737
814.219	0.24520313
814.4	0.24513958
814.581	0.2451578
814.762	0.24515208
814.943	0.24515338
815.124	0.2451073
815.305	0.24512372
815.486	0.24512401
815.667	0.24507042
815.848	0.24496371
816.029	0.24495269
816.21	0.24489467
816.391	0.2449545
816.572	0.24485456
816.753	0.2448276
816.934	0.24480671
817.115	0.24474897
817.295	0.24470644
817.476	0.2446627
817.657	0.24454439
817.838	0.24455304
818.019	0.24445868
818.199	0.24440983
818.38	0.24439125
818.561	0.24434975
818.741	0.2443606
818.922	0.24432587
819.103	0.24432876
819.283	0.24435067
819.464	0.24436401
819.645	0.24437702
819.825	0.24434517
820.006	0.24426508
820.186	0.2442389
820.367	0.24415675
820.547	0.24406569
820.728	0.24395379
820.908	0.24384328
821.089	0.24383207
821.269	0.24373355
821.45	0.24370653
821.63	0.24362354
821.81	0.24370815
821.991	0.24375911
822.171	0.243731
822.351	0.24369485
822.532	0.24370673
822.712	0.24364372
822.892	0.24363434
823.072	0.24350465
823.253	0.24347771
823.433	0.2435359
823.613	0.24352836
823.793	0.24351539
823.973	0.24349421
824.154	0.24343806
824.334	0.24337572
824.514	0.24321913
824.694	0.24309321
824.874	0.24290458
825.054	0.24284374
825.234	0.24275774
825.414	0.2426444
825.594	0.24259273
825.774	0.24259306
825.954	0.24254136
826.134	0.24250408
826.314	0.2424027
826.494	0.24237985
826.674	0.24234145
826.854	0.24223516
827.033	0.24209892
827.213	0.24204762
827.393	0.24198008
827.573	0.24202778
827.753	0.24192522
827.932	0.24192254
828.112	0.24195837
828.292	0.24197105
828.472	0.24188418
828.651	0.24193785
828.831	0.24181926
829.011	0.24181422
829.19	0.24169855
829.37	0.24163162
829.549	0.24156056
829.729	0.24147371
829.909	0.24138193
830.088	0.24131688
830.268	0.24115356
830.447	0.24110844
830.627	0.24097243
830.806	0.24088882
830.986	0.24085739
831.165	0.24078622
831.344	0.24079415
831.524	0.24071699
831.703	0.24064119
831.883	0.24053233
832.062	0.24052152
832.241	0.24042206
832.421	0.24029239
832.6	0.24014977
832.779	0.24014015
832.958	0.24010062
833.138	0.2400872
833.317	0.24005368
833.496	0.24001993
833.675	0.23996856
833.854	0.23997134
834.034	0.23991448
834.213	0.23985175
834.392	0.23987373
834.571	0.23970927
834.75	0.23967917
834.929	0.23957384
835.108	0.23946074
835.287	0.23941538
835.466	0.23931457
835.645	0.23917637
835.824	0.23910517
836.003	0.23903286
836.182	0.23901288
836.361	0.23896536
836.54	0.23886236
836.719	0.23884018
836.897	0.23874414
837.076	0.23866027
837.255	0.2385251
837.434	0.23855223
837.613	0.23848359
837.791	0.23845357
837.97	0.23836133
838.149	0.2383127
838.328	0.23822212
838.506	0.23818539
838.685	0.23799372
838.864	0.23794878
839.042	0.23777577
839.221	0.23773151
839.4	0.23770588
839.578	0.23766646
839.757	0.23749971
839.935	0.23747464
840.114	0.23734589
840.292	0.23735765
840.471	0.23723938
840.649	0.23719381
840.828	0.2370998
841.006	0.23714546
841.185	0.23704175
841.363	0.23706937
841.541	0.23703853
841.72	0.23712117
841.898	0.23706155
842.076	0.23701264
842.255	0.23688222
842.433	0.23682614
842.611	0.23665631
842.789	0.23651592
842.968	0.23636787
843.146	0.23619294
843.324	0.23616253
843.502	0.23612374
843.68	0.2361393
843.859	0.23602029
844.037	0.23591604
844.215	0.23573963
844.393	0.235643
844.571	0.23548348
844.749	0.23533955
844.927	0.23505875
845.105	0.23492335
845.283	0.23480498
845.461	0.2348063
845.639	0.23475007
845.817	0.23474366
845.995	0.23479083
846.173	0.23486951
846.351	0.23490493
846.529	0.23479992
846.706	0.23462353
846.884	0.2345079
847.062	0.23432144
847.24	0.2340992
847.418	0.23387014
847.595	0.23359269
847.773	0.23353686
847.951	0.23345636
848.129	0.2333577
848.306	0.23337099
848.484	0.23326072
848.662	0.23328192
848.839	0.23342379
849.017	0.23337696
849.194	0.23328372
849.372	0.23319666
849.549	0.23303054
849.727	0.23286227
849.905	0.23262974
850.082	0.23231768
850.26	0.23212826
850.437	0.2319998
850.614	0.23191436
850.792	0.23175231
850.969	0.23188699
851.147	0.23189015
851.324	0.23191983
851.501	0.2319408
851.679	0.23186079
851.856	0.23184362
852.033	0.23184677
852.211	0.23166767
852.388	0.23149051
852.565	0.23130172
852.742	0.23123117
852.92	0.23118996
853.097	0.23100442
853.274	0.23095351
853.451	0.23083014
853.628	0.23069599
853.805	0.23068518
853.982	0.23058485
854.159	0.23053156
854.336	0.23048777
854.514	0.23029217
854.691	0.23016163
854.868	0.23020303
855.045	0.22998781
855.221	0.22989934
855.398	0.22965054
855.575	0.2294585
855.752	0.22937573
855.929	0.22938973
856.106	0.2292071
856.283	0.22922414
856.46	0.22913696
856.637	0.2292242
856.813	0.2292028
856.99	0.22917713
857.167	0.22900892
857.344	0.22895575
857.52	0.22882059
857.697	0.22852542
857.874	0.22833475
858.05	0.22822204
858.227	0.22806989
858.404	0.22799365
858.58	0.22799358
858.757	0.22796164
858.933	0.22803304
859.11	0.22788058
859.287	0.22775367
859.463	0.2275692
859.64	0.22742865
859.816	0.22719012
859.993	0.22695821
860.169	0.22685869
860.345	0.22674826
860.522	0.22664449
860.698	0.22653023
860.875	0.22635058
861.051	0.22629854
861.227	0.22620811
861.404	0.22602729
861.58	0.22602322
861.756	0.22590974
861.932	0.225945
862.109	0.22584199
862.285	0.22570497
862.461	0.22566263
862.637	0.22546835
862.813	0.22522897
862.99	0.22504208
863.166	0.22479133
863.342	0.22486532
863.518	0.22477638
863.694	0.22477227
863.87	0.22483297
864.046	0.22475785
864.222	0.2247625
864.398	0.22481219
864.574	0.22464629
864.75	0.22459189
864.926	0.22435109
865.102	0.22418587
865.278	0.22404788
865.454	0.22385044
865.63	0.22348696
865.805	0.2232259
865.981	0.22308333
866.157	0.22302589
866.333	0.22279931
866.509	0.22279681
866.684	0.22278619
866.86	0.22290506
867.036	0.22295254
867.212	0.22276317
867.387	0.22263925
867.563	0.2226876
867.739	0.22247032
867.914	0.22229475
868.09	0.22199943
868.265	0.22183871
868.441	0.22176519
868.617	0.22162473
868.792	0.22145452
868.968	0.22142181
869.143	0.22141528
869.319	0.22150623
869.494	0.22141257
869.67	0.22142701
869.845	0.22133542
870.02	0.22123971
870.196	0.22112965
870.371	0.22093816
870.546	0.22072938
870.722	0.22056187
870.897	0.22029103
871.072	0.22018075
871.248	0.22005258
871.423	0.21988282
871.598	0.21982123
871.773	0.21965085
871.949	0.21955184
872.124	0.21959708
872.299	0.21948306
872.474	0.2194042
872.649	0.21934993
872.824	0.21923317
872.999	0.21915944
873.174	0.21908464
873.349	0.21888611
873.524	0.21877409
873.699	0.21868657
873.874	0.21855142
874.049	0.21845025
874.224	0.21846601
874.399	0.21831461
874.574	0.21835883
874.749	0.21831867
874.924	0.21815911
875.099	0.21803574
875.274	0.21789843
875.449	0.21787797
875.623	0.21785963
875.798	0.21755741
875.973	0.21746172
876.148	0.21730422
876.322	0.21724019
876.497	0.21701761
876.672	0.21674988
876.846	0.21651096
877.021	0.21643068
877.196	0.21597129
877.37	0.21590443
877.545	0.21581418
877.72	0.21583003
877.894	0.21557098
878.069	0.21548451
878.243	0.21517582
878.418	0.21528593
878.592	0.21504299
878.767	0.21484764
878.941	0.21460326
879.116	0.2145095
879.29	0.21429566
879.464	0.21420728
879.639	0.21408601
879.813	0.21409835
879.987	0.21399188
880.162	0.21396745
880.336	0.21398021
880.51	0.2140358
880.685	0.21404812
880.859	0.21402553
881.033	0.21394984
881.207	0.21384156
881.381	0.21366989
881.556	0.21334093
881.73	0.21314865
881.904	0.21306571
882.078	0.2128761
882.252	0.21264514
882.426	0.21244344
882.6	0.21236478
882.774	0.21246949
882.948	0.21236233
883.122	0.21211753
883.296	0.21205701
883.47	0.21200677
883.644	0.21208255
883.818	0.21183005
883.992	0.2116477
884.166	0.21158854
884.34	0.21161929
884.514	0.21158056
884.687	0.21160441
884.861	0.21134263
885.035	0.21146955
885.209	0.21144585
885.382	0.21147111
885.556	0.21146445
885.73	0.21129013
885.904	0.2111076
886.077	0.2110465
886.251	0.2108822
886.425	0.21070594
886.598	0.21043794
886.772	0.21002368
886.945	0.20985356
887.119	0.20952741
887.292	0.20940198
887.466	0.2093549
887.64	0.20921825
887.813	0.2091569
887.986	0.20926675
888.16	0.20934147
888.333	0.20935651
888.507	0.20928847
888.68	0.20910546
888.854	0.20903677
889.027	0.20884036
889.2	0.2087007
889.374	0.20830924
889.547	0.20828388
889.72	0.20818268
889.893	0.20802455
890.067	0.20786581
890.24	0.20758403
890.413	0.20740008
890.586	0.20731948
890.759	0.20718303
890.933	0.20703129
891.106	0.20706148
891.279	0.20718379
891.452	0.20739081
891.625	0.20725617
891.798	0.20733433
891.971	0.20731665
892.144	0.20719571
892.317	0.20695901
892.49	0.20651019
892.663	0.20621768
892.836	0.20614485
893.009	0.20572462
893.182	0.20548429
893.355	0.20533276
893.527	0.20524033
893.7	0.20536025
893.873	0.20532624
894.046	0.20507631
894.219	0.20512585
894.391	0.20505139
894.564	0.20504671
894.737	0.20484809
894.91	0.20453611
895.082	0.20432466
895.255	0.2042886
895.428	0.20419886
895.6	0.20396004
895.773	0.20369983
895.945	0.20362344
896.118	0.20361433
896.291	0.20354765
896.463	0.20355321
896.636	0.20340966
896.808	0.20342869
896.981	0.2034413
897.153	0.20332758
897.326	0.20326812
897.498	0.203174
897.67	0.20294201
897.843	0.20287549
898.015	0.20278195
898.187	0.20269012
898.36	0.20250557
898.532	0.20232617
898.704	0.20227973
898.877	0.20223804
899.049	0.20206926
899.221	0.20191972
899.393	0.20176548
899.566	0.20179327
899.738	0.20182704
899.91	0.20184909
900.082	0.20178008
900.254	0.20168944
900.426	0.2014945
900.598	0.20132178
900.77	0.2011172
900.942	0.20088678
901.114	0.20057632
901.286	0.20041538
901.458	0.20032016
901.63	0.20026779
901.802	0.20021856
901.974	0.20011029
902.146	0.20010875
902.318	0.20002205
902.49	0.19991702
902.662	0.19980416
902.834	0.19962838
903.005	0.19965368
903.177	0.19973174
903.349	0.19957862
903.521	0.19946266
903.693	0.19948595
903.864	0.19932038
904.036	0.1992365
904.208	0.19885092
904.379	0.19859765
904.551	0.19849039
904.723	0.19830878
904.894	0.19795491
905.066	0.19799249
905.237	0.1979909
905.409	0.19811049
905.58	0.19806139
905.752	0.19783813
905.923	0.19769327
906.095	0.19756934
906.266	0.19730324
906.438	0.19698774
906.609	0.19675145
906.78	0.19649346
906.952	0.19641146
907.123	0.19629979
907.295	0.19632046
907.466	0.19634121
907.637	0.19647676
907.808	0.19641924
907.98	0.19635109
908.151	0.19621854
908.322	0.19629057
908.493	0.19615143
908.665	0.19608183
908.836	0.19589785
909.007	0.19574909
909.178	0.19570209
909.349	0.19566038
909.52	0.19556524
909.691	0.19544208
909.862	0.19527073
910.033	0.19512304
910.204	0.19499311
910.375	0.1949352
910.546	0.19480478
910.717	0.194551
910.888	0.19446711
911.059	0.19428299
911.23	0.19414677
911.401	0.19402603
911.572	0.19392642
911.742	0.19378294
911.913	0.19372463
912.084	0.1935009
912.255	0.19341908
912.426	0.19326318
912.596	0.19309749
912.767	0.1929461
912.938	0.19293993
913.108	0.1928823
913.279	0.19285536
913.45	0.19283402
913.62	0.19290936
913.791	0.19302747
913.962	0.19303648
914.132	0.19296796
914.303	0.19281921
914.473	0.19281114
914.644	0.19256339
914.814	0.19230343
914.985	0.19203088
915.155	0.19178133
915.326	0.19140445
915.496	0.19115972
915.666	0.19097998
915.837	0.19099468
916.007	0.19081998
916.177	0.19060745
916.348	0.19048289
916.518	0.19054321
916.688	0.19051642
916.858	0.19042141
917.029	0.19020425
917.199	0.19017089
917.369	0.19026261
917.539	0.19022252
917.709	0.19021168
917.88	0.19000329
918.05	0.18970467
918.22	0.18954431
918.39	0.18946542
918.56	0.18930213
918.73	0.1890353
918.9	0.18863191
919.07	0.1885807
919.24	0.18861578
919.41	0.18864036
919.58	0.18838032
919.75	0.18819856
919.92	0.18808
920.09	0.18815278
920.26	0.18797941
920.429	0.1879531
920.599	0.18786014
920.769	0.18784914
920.939	0.18767438
921.109	0.18763465
921.278	0.1873996
921.448	0.18744497
921.618	0.18726015
921.787	0.18698527
921.957	0.18681983
922.127	0.18675322
922.296	0.1866803
922.466	0.18661801
922.636	0.18657616
922.805	0.18659813
922.975	0.18658342
923.144	0.18648679
923.314	0.18648973
923.483	0.18638632
923.653	0.18640629
923.822	0.18631769
923.992	0.18599404
924.161	0.18587896
924.331	0.1858807
924.5	0.1857214
924.669	0.18547657
924.839	0.18526452
925.008	0.18506842
925.177	0.18506666
925.347	0.18496768
925.516	0.18500219
925.685	0.18492069
925.854	0.18522185
926.023	0.18529747
926.193	0.18525477
926.362	0.18519757
926.531	0.18543074
926.7	0.18528761
926.869	0.1853606
927.038	0.18496139
927.207	0.18497016
927.376	0.18498298
927.545	0.18486127
927.715	0.18459631
927.884	0.18453029
928.052	0.18444978
928.221	0.1842987
928.39	0.18409242
928.559	0.18379406
928.728	0.18373798
928.897	0.18358556
929.066	0.18353696
929.235	0.18341572
929.404	0.18345146
929.572	0.18341574
929.741	0.18349258
929.91	0.18338156
930.079	0.18332998
930.247	0.18304026
930.416	0.18293658
930.585	0.1828206
930.753	0.18260233
930.922	0.18252159
931.091	0.18254341
931.259	0.18243464
931.428	0.18260766
931.596	0.18253573
931.765	0.18277573
931.934	0.18269037
932.102	0.18237456
932.27	0.18235344
932.439	0.18196416
932.607	0.18163236
932.776	0.18141539
932.944	0.18098923
933.113	0.18082369
933.281	0.18088856
933.449	0.18038062
933.618	0.18028396
933.786	0.18011322
933.954	0.18004775
934.123	0.17992614
934.291	0.17992713
934.459	0.17965453
934.627	0.17977787
934.795	0.180147
934.964	0.18031409
935.132	0.17996778
935.3	0.17992458
935.468	0.17975888
935.636	0.1798811
935.804	0.17961009
935.972	0.17918427
936.14	0.17877067
936.308	0.17883634
936.476	0.17885201
936.644	0.17865862
936.812	0.17835699
936.98	0.1786483
937.148	0.17853548
937.316	0.17816987
937.484	0.17851646
937.652	0.1778349
937.82	0.17829232
937.987	0.17807074
938.155	0.17774526
938.323	0.17743693
938.491	0.17724634
938.658	0.17713375
938.826	0.17723052
938.994	0.17649717
939.162	0.1768321
939.329	0.17698647
939.497	0.17784978
939.665	0.17834616
939.832	0.17827671
940	0.17869596
940.167	0.17879515
940.335	0.1785592
940.502	0.17803375
940.67	0.17722438
940.837	0.17741692
941.005	0.17605973
941.172	0.17525274
941.34	0.17526161
941.507	0.17587672
941.674	0.17677855
941.842	0.17713192
942.009	0.17798479
942.177	0.17847048
942.344	0.17943019
942.511	0.17989603
942.678	0.17959107
942.846	0.17785158
943.013	0.17814432
943.18	0.17718125
943.347	0.17805094
943.514	0.17749559
943.682	0.17837738
943.849	0.17640477
944.016	0.17637017
944.183	0.17578107
944.35	0.17523154
944.517	0.17540052
944.684	0.17551526
944.851	0.17254142
945.018	0.17362829
945.185	0.17404758
945.352	0.17405001
945.519	0.17437064
945.686	0.17441471
945.853	0.17676445
946.02	0.17801785
946.187	0.17728149
946.353	0.17877535
946.52	0.17899036
946.687	0.17908401
946.854	0.17823881
947.021	0.17564924
947.187	0.17538141
947.354	0.17497541
947.521	0.17404692
947.687	0.17194022
947.854	0.17089954
948.021	0.17089277
948.187	0.17066797
948.354	0.1694324
948.52	0.16963502
948.687	0.17021206
948.854	0.17148713
949.02	0.17171802
949.187	0.17110882
949.353	0.17155545
949.52	0.17215448
949.686	0.17268727
949.852	0.172604
950.019	0.17320696
950.185	0.17385155
950.352	0.17401297
950.518	0.17348067
950.684	0.17385274
950.851	0.17400046
951.017	0.17298429
951.183	0.17249503
951.349	0.17178362
951.516	0.17079601
951.682	0.17093786
951.848	0.17038482
952.014	0.16964936
952.18	0.17007395
952.346	0.16969085
952.512	0.16975929
952.679	0.17049334
952.845	0.1701185
953.011	0.16996181
953.177	0.16959682
953.343	0.16845099
953.509	0.16899393
953.675	0.16903621
953.841	0.16885014
954.007	0.16923456
954.172	0.16956767
954.338	0.16962287
954.504	0.1697017
954.67	0.16866302
954.836	0.16907791
955.002	0.16908667
955.167	0.16867249
955.333	0.16775196
955.499	0.16767962
955.665	0.16753254
955.83	0.16750903
955.996	0.16669497
956.162	0.16667674
956.327	0.16623437
956.493	0.16645659
956.659	0.16681737
956.824	0.16657401
956.99	0.16643027
957.155	0.16629667
957.321	0.16570165
957.486	0.1658046
957.652	0.16543082
957.817	0.16563823
957.983	0.16539519
958.148	0.16559793
958.314	0.16574669
958.479	0.1653181
958.644	0.16545464
958.81	0.1657363
958.975	0.16527006
959.14	0.16581348
959.306	0.16536321
959.471	0.16459492
959.636	0.16436281
959.801	0.16481212
959.967	0.16487329
960.132	0.16497486
960.297	0.16456431
960.462	0.164833
960.627	0.16493652
960.792	0.16511032
960.957	0.16487364
961.123	0.16474522
961.288	0.16436209
961.453	0.16456146
961.618	0.16441275
961.783	0.16479356
961.948	0.16415885
962.113	0.16317391
962.277	0.16279327
962.442	0.16238036
962.607	0.16245439
962.772	0.1619841
962.937	0.16110583
963.102	0.16169591
963.267	0.16193609
963.431	0.16166742
963.596	0.16171025
963.761	0.16081603
963.926	0.16096674
964.09	0.16142754
964.255	0.16167217
964.42	0.16152198
964.584	0.16204965
964.749	0.16186995
964.914	0.16220805
965.078	0.16210468
965.243	0.16149828
965.407	0.16117198
965.572	0.16085408
965.736	0.16084344
965.901	0.16100888
966.065	0.16115791
966.23	0.16110943
966.394	0.16177569
966.559	0.16149598
966.723	0.16205912
966.887	0.1613378
967.052	0.16080507
967.216	0.16026371
967.38	0.15930799
967.545	0.15926306
967.709	0.15973596
967.873	0.15953191
968.037	0.15962436
968.202	0.15994
968.366	0.16065847
968.53	0.16099958
968.694	0.16051445
968.858	0.15984445
969.022	0.15905739
969.187	0.15846105
969.351	0.15866063
969.515	0.15812471
969.679	0.15816363
969.843	0.15785592
970.007	0.15806086
970.171	0.15826247
970.335	0.15907779
970.499	0.15866828
970.662	0.15850934
970.826	0.15838922
970.99	0.15862746
971.154	0.15842006
971.318	0.15845409
971.482	0.15722366
971.645	0.15722861
971.809	0.15786517
971.973	0.1582054
972.137	0.15767972
972.3	0.15769267
972.464	0.15797084
972.628	0.15950304
972.791	0.15980765
972.955	0.15948774
973.119	0.15894255
973.282	0.15905857
973.446	0.15853278
973.609	0.15798408
973.773	0.15710734
973.936	0.15599805
974.1	0.1555013
974.263	0.15558399
974.427	0.15565484
974.59	0.15599193
974.754	0.15631883
974.917	0.15607336
975.08	0.15669402
975.244	0.15651585
975.407	0.15638735
975.57	0.15625605
975.734	0.15582484
975.897	0.15555571
976.06	0.15588113
976.223	0.1558171
976.387	0.15641007
976.55	0.15657263
976.713	0.15674445
976.876	0.15652319
977.039	0.1563574
977.202	0.15614413
977.365	0.15594254
977.528	0.15529674
977.692	0.15526945
977.855	0.15450074
978.018	0.15430483
978.181	0.15436489
978.344	0.15408129
978.506	0.1535862
978.669	0.15294502
978.832	0.15227583
978.995	0.15252485
979.158	0.15310104
979.321	0.1526428
979.484	0.15228693
979.646	0.15205244
979.809	0.15274602
979.972	0.15266963
980.135	0.15279129
980.297	0.15243303
980.46	0.15264002
980.623	0.15306406
980.786	0.15316947
980.948	0.15290844
981.111	0.15295536
981.273	0.15275222
981.436	0.15252369
981.599	0.15244227
981.761	0.15251165
981.924	0.1528038
982.086	0.15295725
982.249	0.1534739
982.411	0.15345758
982.573	0.15328886
982.736	0.15399003
982.898	0.15330267
983.061	0.15324326
983.223	0.15255345
983.385	0.1518474
983.548	0.15252971
983.71	0.15315212
983.872	0.15213658
984.034	0.15227602
984.197	0.1513303
984.359	0.15134088
984.521	0.15196293
984.683	0.15147776
984.845	0.15140688
985.008	0.15135844
985.17	0.15147051
985.332	0.15247818
985.494	0.15196917
985.656	0.15212127
985.818	0.1512815
985.98	0.15095925
986.142	0.1501695
986.304	0.1500845
986.466	0.14957847
986.628	0.15011086
986.79	0.14939087
986.952	0.14946189
987.113	0.14903521
987.275	0.14936669
987.437	0.14914753
987.599	0.14884571
987.761	0.14861386
987.922	0.14845616
988.084	0.14850888
988.246	0.14895418
988.408	0.14912856
988.569	0.14940808
988.731	0.15008727
988.893	0.15000711
989.054	0.15120381
989.216	0.1512672
989.377	0.1504012
989.539	0.15003105
989.701	0.14885353
989.862	0.14815523
990.024	0.14804415
990.185	0.14673075
990.347	0.14694161
990.508	0.14698752
990.669	0.14800792
990.831	0.1487465
990.992	0.15002318
991.154	0.14961012
991.315	0.15105261
991.476	0.15082024
991.638	0.15083771
991.799	0.14996109
991.96	0.14959871
992.121	0.14881471
992.283	0.14987997
992.444	0.14851047
992.605	0.14803292
992.766	0.14795236
992.927	0.14802146
993.088	0.14861336
993.249	0.1480413
993.41	0.14691028
993.572	0.14726893
993.733	0.14803582
993.894	0.14849723
994.055	0.14728237
994.216	0.14706684
994.376	0.14611824
994.537	0.14718857
994.698	0.14593085
994.859	0.14536581
995.02	0.14588612
995.181	0.14606712
995.342	0.14584837
995.503	0.14617865
995.663	0.14513559
995.824	0.14546595
995.985	0.14735815
996.146	0.14661753
996.306	0.14718564
996.467	0.14744997
996.628	0.14906627
996.788	0.14949233
996.949	0.15036739
997.11	0.14746304
997.27	0.14654498
997.431	0.14682875
997.591	0.1449288
997.752	0.14193254
997.912	0.14092925
998.073	0.14062241
998.233	0.14165732
998.394	0.14168226
998.554	0.14204883
998.714	0.14350459
998.875	0.14441997
999.035	0.1445432
999.196	0.14413133
999.356	0.14376312
999.516	0.14486703
999.676	0.14540933
999.837	0.1449578
999.997	0.14447353
1000.157	0.14494544
1000.317	0.14408595
1000.477	0.14331626
1000.638	0.14142042
1000.798	0.14107009
1000.958	0.14185049
1001.118	0.1441093
1001.278	0.14435946
1001.438	0.14487604
1001.598	0.14578948
1001.758	0.14646145
1001.918	0.14567053
1002.078	0.1439392
1002.238	0.14270605
1002.398	0.14185777
1002.558	0.14083195
1002.718	0.13958681
1002.878	0.14117561
1003.037	0.13836529
1003.197	0.13974551
1003.357	0.13862717
1003.517	0.14035265
1003.677	0.13944679
1003.836	0.13923622
1003.996	0.13792813
1004.156	0.14014565
1004.315	0.14072887
1004.475	0.14228413
1004.635	0.14120254
1004.794	0.1441116
1004.954	0.14524041
1005.114	0.14493947
1005.273	0.14509183
1005.433	0.14231021
1005.592	0.14231419
1005.752	0.14098271
1005.911	0.13973977
1006.071	0.13991991
1006.23	0.13860079
1006.389	0.13721342
1006.549	0.137778
1006.708	0.13712358
1006.868	0.13718833
1007.027	0.1370927
1007.186	0.13757862
1007.345	0.13995656
1007.505	0.14081961
1007.664	0.14147913
1007.823	0.14118203
1007.982	0.14302865
1008.142	0.14284646
1008.301	0.14195681
1008.46	0.14029802
1008.619	0.13864505
1008.778	0.13729342
1008.937	0.1377466
1009.096	0.13661601
1009.255	0.1364733
1009.414	0.13453142
1009.573	0.13554148
1009.732	0.13842931
1009.891	0.13822258
1010.05	0.13887777
1010.209	0.13796582
1010.368	0.13833578
1010.527	0.14013362
1010.686	0.13978451
1010.845	0.13702393
1011.003	0.13819743
1011.162	0.13670317
1011.321	0.13590191
1011.48	0.13663908
1011.638	0.13493102
1011.797	0.13483167
1011.956	0.13679805
1012.115	0.13694991
1012.273	0.13694544
1012.432	0.13708177
1012.59	0.13441934
1012.749	0.13557852
1012.908	0.13328482
1013.066	0.13387546
1013.225	0.13366794
1013.383	0.13558644
1013.542	0.13722958
1013.7	0.14035698
1013.859	0.14128558
1014.017	0.14369046
1014.175	0.14109761
1014.334	0.14215674
1014.492	0.14149454
1014.65	0.13966453
1014.809	0.13844826
1014.967	0.13826196
1015.125	0.13855566
1015.284	0.14127386
1015.442	0.14013179
1015.6	0.13931653
1015.758	0.13861317
1015.916	0.13682337
1016.075	0.13451668
1016.233	0.13277325
1016.391	0.13275137
1016.549	0.13534342
1016.707	0.13491666
1016.865	0.1371048
1017.023	0.13647345
1017.181	0.13784936
1017.339	0.13947146
1017.497	0.13645819
1017.655	0.13566139
1017.813	0.13551977
1017.971	0.13340993
1018.129	0.13849804
1018.286	0.13848651
1018.444	0.13724215
1018.602	0.14293058
1018.76	0.14137226
1018.918	0.14031093
1019.075	0.14502979
1019.233	0.14062473
1019.391	0.14242154
1019.549	0.14444446
1019.706	0.14045436
1019.864	0.14101219
1020.022	0.14384654
1020.179	0.1409819
1020.337	0.14515641
1020.494	0.14265207
1020.652	0.14083236
1020.809	0.14174733
1020.967	0.14195618
1021.124	0.14064196
1021.282	0.13979171
1021.439	0.13504412
1021.597	0.13679022
1021.754	0.1338209
1021.911	0.13603012
1022.069	0.13103543
1022.226	0.12928449
1022.384	0.12883011
1022.541	0.12933315
1022.698	0.12965525
1022.855	0.13419064
1023.013	0.13248166
1023.17	0.13157417
1023.327	0.13292521
1023.484	0.1345478
1023.641	0.13495486
1023.798	0.13823473
1023.956	0.14127282
1024.113	0.13840233
1024.27	0.13982764
1024.427	0.14157459
1024.584	0.14289621
1024.741	0.13937533
1024.898	0.13319526
1025.055	0.12737101
1025.212	0.1220565
1025.369	0.11959021
1025.525	0.11758622
1025.682	0.11843166
1025.839	0.12347358
1025.996	0.12279193
1026.153	0.125526
1026.31	0.13467353
1026.466	0.14468753
1026.623	0.14998311
1026.78	0.14805745
1026.937	0.14674972
1027.093	0.15174743
1027.25	0.15891929
1027.407	0.15362788
1027.563	0.14852715
1027.72	0.14489511
1027.876	0.13853161
1028.033	0.13898661
1028.19	0.14267498
1028.346	0.13447094
1028.503	0.13875612
1028.659	0.13865316
1028.816	0.14267493
1028.972	0.15484416
1029.128	0.15752858
1029.285	0.15073264
1029.441	0.15372297
1029.598	0.14677491
1029.754	0.15078569
1029.91	0.14295972
1030.067	0.13592122
1030.223	0.13775492
1030.379	0.14034179
1030.535	0.14086032
1030.691	0.1425012
1030.848	0.1408852
1031.004	0.14503879
1031.16	0.15374213
1031.316	0.15228132
1031.472	0.1538888
1031.628	0.1550518
1031.784	0.15962882
1031.94	0.16342242
1032.096	0.16741142
1032.252	0.15735288
1032.408	0.16009371
1032.564	0.15591561
1032.72	0.15549868
1032.876	0.14595955
1033.032	0.14299465
1033.188	0.1354821
1033.344	0.141623
1033.5	0.14064053
1033.655	0.13996206
1033.811	0.13628246
1033.967	0.14876019
