Data from 0_1_mm_pl_20pc_Absorbance__0__16-08-15-032.txt Node

Date: Fri Feb 24 16:08:15 CET 2023
User: Ange
Spectrometer: FLMT08341
Trigger mode: 0
Integration Time (sec): 1.000000E-2
Scans to average: 400
Electric dark correction enabled: true
Nonlinearity correction enabled: false
Boxcar width: 3
XAxis mode: Wavelengths
Number of Pixels in Spectrum: 3648
>>>>>Begin Spectral Data<<<<<
345.271	0.03126701
345.487	0.01500205
345.704	0.00403439
345.921	0.00778475
346.137	0.00417655
346.354	-0.01524559
346.571	-0.02258237
346.787	-0.07398061
347.004	0.04381372
347.22	-0.08941959
347.437	-0.0753814
347.653	0.07451991
347.87	-0.15609854
348.086	-0.64443345
348.303	-0.10161293
348.519	0.35646356
348.736	0.33644
348.952	0.33802976
349.169	0.35071049
349.385	0.36467305
349.601	0.359903
349.818	0.3537069
350.034	0.35322127
350.251	0.35279559
350.467	0.35628888
350.683	0.34591853
350.9	0.34607288
351.116	0.34422475
351.332	0.34260452
351.549	0.34834966
351.765	0.35208472
351.981	0.35585443
352.197	0.36736976
352.414	0.37504925
352.63	0.38046939
352.846	0.38687909
353.062	0.37823321
353.278	0.37253463
353.495	0.37753763
353.711	0.37645591
353.927	0.37630055
354.143	0.37551483
354.359	0.37049388
354.575	0.37107043
354.792	0.37903705
355.008	0.37160064
355.224	0.36835695
355.44	0.36546699
355.656	0.36308295
355.872	0.36808232
356.088	0.38156148
356.304	0.38076563
356.52	0.38224334
356.736	0.3815987
356.952	0.38295918
357.168	0.38333877
357.384	0.38400662
357.6	0.3769199
357.816	0.37845902
358.032	0.38083505
358.248	0.38858514
358.464	0.38676374
358.679	0.38804436
358.895	0.38607763
359.111	0.38644067
359.327	0.37932322
359.543	0.38066319
359.759	0.38142894
359.974	0.38118046
360.19	0.37900426
360.406	0.37883868
360.622	0.37682655
360.838	0.3770118
361.053	0.37788828
361.269	0.37681581
361.485	0.37575664
361.701	0.3757475
361.916	0.3710779
362.132	0.36865761
362.348	0.36993216
362.563	0.36749709
362.779	0.36086864
362.995	0.36100932
363.21	0.36104455
363.426	0.3622299
363.641	0.36079076
363.857	0.35919476
364.073	0.35625993
364.288	0.35521006
364.504	0.35681841
364.719	0.35616194
364.935	0.35283104
365.15	0.35163955
365.366	0.35183948
365.581	0.35314288
365.797	0.35203813
366.012	0.34726598
366.228	0.34297439
366.443	0.34662913
366.658	0.34663823
366.874	0.33988235
367.089	0.33998654
367.305	0.33991287
367.52	0.33823081
367.735	0.3361366
367.951	0.33009755
368.166	0.32937275
368.381	0.33313164
368.597	0.32956396
368.812	0.32968245
369.027	0.33031633
369.243	0.33144424
369.458	0.33609087
369.673	0.3351052
369.888	0.332811
370.104	0.32927412
370.319	0.32830082
370.534	0.32447324
370.749	0.32253107
370.964	0.32029435
371.179	0.31773999
371.395	0.31445194
371.61	0.3145993
371.825	0.30977376
372.04	0.30983665
372.255	0.30814103
372.47	0.30494812
372.685	0.30202936
372.9	0.30136087
373.115	0.29847955
373.33	0.2986634
373.545	0.29620051
373.76	0.29395878
373.975	0.29046818
374.19	0.28789284
374.405	0.28622779
374.62	0.2858781
374.835	0.28551755
375.05	0.28466989
375.265	0.28323844
375.48	0.28271362
375.695	0.28446452
375.91	0.28129182
376.125	0.27854195
376.339	0.2737346
376.554	0.27217438
376.769	0.27033218
376.984	0.26916345
377.199	0.26790298
377.414	0.26782507
377.628	0.26821215
377.843	0.26910147
378.058	0.26715239
378.273	0.26672871
378.487	0.26529352
378.702	0.26321458
378.917	0.26166448
379.131	0.25915036
379.346	0.25649182
379.561	0.25489525
379.775	0.25282072
379.99	0.24963503
380.205	0.24695954
380.419	0.24385681
380.634	0.24035259
380.848	0.23955275
381.063	0.23830993
381.278	0.23815292
381.492	0.23607501
381.707	0.23606612
381.921	0.23517762
382.136	0.23638495
382.35	0.23389702
382.565	0.23221978
382.779	0.230359
382.994	0.22930175
383.208	0.2266308
383.422	0.22632484
383.637	0.22421297
383.851	0.22482806
384.066	0.22418429
384.28	0.22342586
384.494	0.22316239
384.709	0.22199033
384.923	0.22047274
385.137	0.21855188
385.352	0.21694828
385.566	0.21572878
385.78	0.21419071
385.995	0.21217325
386.209	0.21102296
386.423	0.21022937
386.637	0.20974566
386.852	0.20777538
387.066	0.20656612
387.28	0.20479025
387.494	0.20464299
387.708	0.20363366
387.923	0.20220389
388.137	0.20119899
388.351	0.2008606
388.565	0.20006911
388.779	0.19934537
388.993	0.19886952
389.207	0.19802152
389.421	0.19715445
389.635	0.19561891
389.85	0.19383116
390.064	0.19263537
390.278	0.19163222
390.492	0.19026264
390.706	0.1892721
390.92	0.18793066
391.134	0.18741609
391.348	0.18785697
391.561	0.18616263
391.775	0.18515466
391.989	0.18361703
392.203	0.18275066
392.417	0.18227923
392.631	0.18191845
392.845	0.18009207
393.059	0.18008939
393.273	0.17879946
393.486	0.17748625
393.7	0.17568804
393.914	0.1750578
394.128	0.17345997
394.342	0.17243219
394.555	0.17054776
394.769	0.16988234
394.983	0.16958307
395.197	0.16963006
395.41	0.16811123
395.624	0.16742188
395.838	0.16651663
396.051	0.16673043
396.265	0.16559289
396.479	0.16494878
396.692	0.16431637
396.906	0.16364297
397.12	0.16334725
397.333	0.16253132
397.547	0.16126373
397.76	0.16079569
397.974	0.16030415
398.187	0.15944919
398.401	0.15911864
398.614	0.15828295
398.828	0.15794834
399.041	0.15729635
399.255	0.15693039
399.468	0.15597222
399.682	0.15520358
399.895	0.15502016
400.109	0.153702
400.322	0.15289207
400.536	0.15213992
400.749	0.1517838
400.962	0.151269
401.176	0.15033771
401.389	0.1492879
401.602	0.14852749
401.816	0.14822629
402.029	0.14772958
402.242	0.14649154
402.456	0.14578911
402.669	0.14549174
402.882	0.14458021
403.095	0.14482699
403.309	0.14367832
403.522	0.14338423
403.735	0.142897
403.948	0.14260778
404.161	0.14258121
404.375	0.1423313
404.588	0.14155794
404.801	0.14102018
405.014	0.14018682
405.227	0.1400804
405.44	0.13983173
405.653	0.13922011
405.866	0.13847422
406.079	0.13797186
406.293	0.13794834
406.506	0.13733706
406.719	0.13706933
406.932	0.1360986
407.145	0.13506128
407.358	0.13495134
407.571	0.13425605
407.784	0.13394251
407.996	0.13405872
408.209	0.13339867
408.422	0.13267621
408.635	0.13281098
408.848	0.13241128
409.061	0.13173321
409.274	0.13103692
409.487	0.13033646
409.7	0.1299205
409.912	0.13006385
410.125	0.12957483
410.338	0.12905339
410.551	0.12878156
410.764	0.12844095
410.976	0.12813199
411.189	0.12768701
411.402	0.12701757
411.615	0.12695106
411.827	0.12657895
412.04	0.12663179
412.253	0.12633017
412.465	0.12606406
412.678	0.12573366
412.891	0.12573632
413.103	0.12488261
413.316	0.12461864
413.529	0.124229
413.741	0.12418255
413.954	0.12391501
414.166	0.1235832
414.379	0.12306601
414.591	0.12316693
414.804	0.12288351
415.016	0.12268582
415.229	0.12218465
415.441	0.12162768
415.654	0.12148335
415.866	0.12149079
416.079	0.121246
416.291	0.1209595
416.504	0.12074531
416.716	0.12059206
416.928	0.12062291
417.141	0.12012537
417.353	0.11966266
417.566	0.11909142
417.778	0.11876817
417.99	0.11823661
418.203	0.11776735
418.415	0.11750065
418.627	0.11764368
418.839	0.11743917
419.052	0.11755311
419.264	0.11745319
419.476	0.1174608
419.688	0.1176322
419.901	0.11721029
420.113	0.1166201
420.325	0.11647544
420.537	0.11613735
420.749	0.11609204
420.961	0.11597106
421.174	0.11541185
421.386	0.11537703
421.598	0.11520311
421.81	0.11485859
422.022	0.11473742
422.234	0.11444279
422.446	0.1141805
422.658	0.1141392
422.87	0.11406181
423.082	0.11419296
423.294	0.1140785
423.506	0.11370094
423.718	0.11333229
423.93	0.11297619
424.142	0.11247688
424.354	0.1120338
424.566	0.11167717
424.778	0.11148388
424.99	0.11123374
425.202	0.11090241
425.414	0.11071504
425.625	0.11080224
425.837	0.11064508
426.049	0.11067047
426.261	0.11051226
426.473	0.11042409
426.684	0.11029143
426.896	0.11045025
427.108	0.11024769
427.32	0.1102291
427.531	0.10994148
427.743	0.10977192
427.955	0.10990773
428.167	0.10981517
428.378	0.1095702
428.59	0.10942011
428.802	0.10930942
429.013	0.10886318
429.225	0.10897813
429.436	0.10868766
429.648	0.10901212
429.86	0.10903774
430.071	0.10902282
430.283	0.10899383
430.494	0.10915534
430.706	0.1088425
430.917	0.10881974
431.129	0.1085355
431.34	0.10833422
431.552	0.10819483
431.763	0.10807833
431.975	0.10798662
432.186	0.10791392
432.398	0.10786556
432.609	0.10751441
432.821	0.10743594
433.032	0.10747983
433.243	0.10751853
433.455	0.10736422
433.666	0.10742366
433.877	0.1073927
434.089	0.10752591
434.3	0.10739234
434.511	0.10736436
434.723	0.10710444
434.934	0.10704521
435.145	0.10681545
435.356	0.10671843
435.568	0.10646948
435.779	0.10652431
435.99	0.10618804
436.201	0.10618576
436.412	0.10608359
436.624	0.10606927
436.835	0.10600512
437.046	0.10601151
437.257	0.10600536
437.468	0.10607246
437.679	0.1058096
437.89	0.10584981
438.101	0.10579048
438.312	0.10541221
438.523	0.10539861
438.734	0.10516353
438.945	0.1050476
439.156	0.10492276
439.367	0.1048165
439.578	0.10465039
439.789	0.10467016
440	0.10447323
440.211	0.10414273
440.422	0.10403642
440.633	0.10396592
440.844	0.10370011
441.055	0.10357399
441.266	0.1034248
441.477	0.10342868
441.687	0.10359381
441.898	0.10344932
442.109	0.10327991
442.32	0.10334295
442.531	0.10333577
442.741	0.10320575
442.952	0.10312045
443.163	0.1030456
443.374	0.10301568
443.584	0.10326411
443.795	0.10306581
444.006	0.1030295
444.216	0.10289679
444.427	0.10277252
444.638	0.10276033
444.848	0.10275691
445.059	0.1024196
445.27	0.1024161
445.48	0.10238965
445.691	0.10256332
445.901	0.10252495
446.112	0.10229273
446.323	0.1021009
446.533	0.10216274
446.744	0.10221648
446.954	0.10208714
447.165	0.10197781
447.375	0.102192
447.586	0.10219108
447.796	0.10229123
448.006	0.10223383
448.217	0.10219603
448.427	0.10211322
448.638	0.10201842
448.848	0.10171808
449.058	0.10168489
449.269	0.10169529
449.479	0.10167177
449.689	0.10159448
449.9	0.10177913
450.11	0.10188844
450.32	0.1018383
450.531	0.10181478
450.741	0.10170117
450.951	0.10175558
451.161	0.10174254
451.372	0.1015958
451.582	0.10171668
451.792	0.10184577
452.002	0.10194264
452.212	0.10216607
452.422	0.10216357
452.633	0.10228703
452.843	0.10229227
453.053	0.10216351
453.263	0.10208663
453.473	0.10204088
453.683	0.10190978
453.893	0.10176194
454.103	0.10180342
454.313	0.10185635
454.523	0.10182127
454.733	0.10183158
454.943	0.10178983
455.153	0.10187552
455.363	0.10197062
455.573	0.10182654
455.783	0.10178711
455.993	0.10170071
456.203	0.10182152
456.413	0.10195316
456.623	0.10171222
456.833	0.10189368
457.042	0.10204019
457.252	0.10223463
457.462	0.10239601
457.672	0.10241022
457.882	0.102411
458.091	0.10263045
458.301	0.10238018
458.511	0.10228553
458.721	0.10208248
458.931	0.10210066
459.14	0.10216261
459.35	0.10223105
459.56	0.10220073
459.769	0.10237244
459.979	0.10239279
460.189	0.10253788
460.398	0.10253044
460.608	0.10253748
460.817	0.10254184
461.027	0.10261619
461.237	0.10273591
461.446	0.10287748
461.656	0.10301226
461.865	0.10301233
462.075	0.10295796
462.284	0.10304146
462.494	0.1031111
462.703	0.10304784
462.913	0.10308952
463.122	0.10304594
463.332	0.1030657
463.541	0.10323933
463.751	0.10317159
463.96	0.10318439
464.169	0.10333686
464.379	0.10339498
464.588	0.10346206
464.797	0.10362356
465.007	0.10369092
465.216	0.10379015
465.425	0.10389214
465.635	0.10392258
465.844	0.10397961
466.053	0.10404127
466.263	0.10403939
466.472	0.10406816
466.681	0.10418923
466.89	0.10414433
467.099	0.10418281
467.309	0.1041604
467.518	0.10417026
467.727	0.10429907
467.936	0.10429948
468.145	0.10430637
468.354	0.10442543
468.563	0.10449359
468.772	0.10457367
468.982	0.10463363
469.191	0.10476584
469.4	0.10472228
469.609	0.1047397
469.818	0.10479672
470.027	0.10485917
470.236	0.10497436
470.445	0.10511686
470.654	0.10498783
470.863	0.10507063
471.072	0.10515266
471.28	0.10518998
471.489	0.10529243
471.698	0.10536559
471.907	0.10541206
472.116	0.10559285
472.325	0.1057296
472.534	0.10587808
472.743	0.10602146
472.951	0.1061234
473.16	0.10622523
473.369	0.106219
473.578	0.10629853
473.786	0.10644875
473.995	0.10662233
474.204	0.10674647
474.413	0.10691973
474.621	0.10713772
474.83	0.10725886
475.039	0.10741144
475.247	0.10752846
475.456	0.10754936
475.665	0.10769094
475.873	0.10773513
476.082	0.10777586
476.291	0.10796986
476.499	0.10812603
476.708	0.10811595
476.916	0.10831655
477.125	0.10847499
477.333	0.10860854
477.542	0.10866183
477.75	0.10877981
477.959	0.10894195
478.167	0.10920923
478.376	0.10921491
478.584	0.10919174
478.793	0.10938547
479.001	0.10949298
479.209	0.10947596
479.418	0.10949582
479.626	0.10955955
479.834	0.10972127
480.043	0.10994133
480.251	0.10990341
480.459	0.11014358
480.668	0.11040331
480.876	0.1105364
481.084	0.1107285
481.293	0.1108285
481.501	0.11091955
481.709	0.11116864
481.917	0.111284
482.125	0.11140115
482.334	0.11154333
482.542	0.11164759
482.75	0.11187498
482.958	0.11204222
483.166	0.11218278
483.374	0.11235467
483.583	0.11254482
483.791	0.11275542
483.999	0.11288006
484.207	0.11300779
484.415	0.11320135
484.623	0.11331425
484.831	0.11346517
485.039	0.11363939
485.247	0.11371864
485.455	0.11394175
485.663	0.11415177
485.871	0.11434979
486.079	0.11451745
486.287	0.11464945
486.495	0.11481444
486.702	0.11496368
486.91	0.11511162
487.118	0.11523732
487.326	0.1154467
487.534	0.11567194
487.742	0.11590454
487.95	0.11608871
488.157	0.11636846
488.365	0.11652888
488.573	0.1167523
488.781	0.11689844
488.988	0.11713501
489.196	0.1172879
489.404	0.11750698
489.612	0.11769203
489.819	0.11796108
490.027	0.11816048
490.235	0.11832409
490.442	0.11846233
490.65	0.11866647
490.857	0.11886639
491.065	0.11901386
491.273	0.1191461
491.48	0.11929348
491.688	0.11946261
491.895	0.11962789
492.103	0.1197693
492.31	0.11992079
492.518	0.12017017
492.725	0.12040993
492.933	0.12065138
493.14	0.12086676
493.348	0.12112922
493.555	0.12133351
493.763	0.12159254
493.97	0.12181014
494.177	0.12196166
494.385	0.12220632
494.592	0.12246807
494.8	0.12266455
495.007	0.12299066
495.214	0.12317065
495.422	0.12336289
495.629	0.12364326
495.836	0.12383082
496.043	0.1240204
496.251	0.12431364
496.458	0.12452309
496.665	0.12477244
496.872	0.1250041
497.08	0.12524695
497.287	0.12545564
497.494	0.12566086
497.701	0.1258227
497.908	0.12602074
498.115	0.1262583
498.322	0.12648826
498.53	0.12666732
498.737	0.12692671
498.944	0.1272144
499.151	0.12747131
499.358	0.12775958
499.565	0.12795526
499.772	0.12820865
499.979	0.12847045
500.186	0.1286869
500.393	0.12889046
500.6	0.12915059
500.807	0.12936973
501.014	0.1295921
501.221	0.1298408
501.427	0.13005484
501.634	0.13029552
501.841	0.13056843
502.048	0.13075766
502.255	0.13091578
502.462	0.13118422
502.669	0.13140722
502.875	0.1316773
503.082	0.13194793
503.289	0.13213869
503.496	0.13237003
503.702	0.13264942
503.909	0.13294594
504.116	0.13321927
504.323	0.13353728
504.529	0.1337627
504.736	0.13403066
504.943	0.13432106
505.149	0.13463651
505.356	0.13494407
505.563	0.13521486
505.769	0.13545855
505.976	0.13575658
506.182	0.13605567
506.389	0.13639238
506.595	0.13668687
506.802	0.13692981
507.008	0.13722516
507.215	0.13750527
507.421	0.13777773
507.628	0.13804993
507.834	0.13833151
508.041	0.13861309
508.247	0.13883448
508.454	0.13909859
508.66	0.13934107
508.866	0.13963119
509.073	0.13991485
509.279	0.14015949
509.486	0.1403809
509.692	0.14069047
509.898	0.14098193
510.105	0.14130524
510.311	0.14158018
510.517	0.14185072
510.723	0.14208663
510.93	0.1424136
511.136	0.14274989
511.342	0.14307016
511.548	0.14332669
511.754	0.14366888
511.961	0.14399639
512.167	0.14437628
512.373	0.14468027
512.579	0.14496055
512.785	0.14527671
512.991	0.14558381
513.197	0.14590718
513.404	0.14625001
513.61	0.14656446
513.816	0.14685235
514.022	0.14717811
514.228	0.14748264
514.434	0.14781991
514.64	0.14812878
514.846	0.14834009
515.052	0.14859838
515.258	0.14891527
515.464	0.14915337
515.669	0.14947265
515.875	0.14974221
516.081	0.15005071
516.287	0.15043731
516.493	0.15079733
516.699	0.15109249
516.905	0.15145721
517.111	0.15173784
517.316	0.15213629
517.522	0.15240103
517.728	0.15275691
517.934	0.15306182
518.139	0.15338133
518.345	0.15366377
518.551	0.15399141
518.757	0.15425837
518.962	0.15463937
519.168	0.15495611
519.374	0.15524004
519.579	0.15555983
519.785	0.15592557
519.991	0.15624172
520.196	0.15655579
520.402	0.15682492
520.607	0.15715899
520.813	0.15754422
521.018	0.15790681
521.224	0.15820803
521.429	0.1586053
521.635	0.15899213
521.84	0.15934008
522.046	0.15965108
522.251	0.15995754
522.457	0.16026751
522.662	0.16061416
522.868	0.1608859
523.073	0.16117112
523.279	0.16153184
523.484	0.16180274
523.689	0.16210056
523.895	0.16247153
524.1	0.1627946
524.305	0.16319054
524.511	0.16354404
524.716	0.16389837
524.921	0.16431246
525.126	0.16467156
525.332	0.16503592
525.537	0.16542789
525.742	0.16579047
525.947	0.16616929
526.153	0.16649264
526.358	0.16682809
526.563	0.16722348
526.768	0.16753637
526.973	0.16782125
527.178	0.16809979
527.383	0.16836114
527.588	0.168688
527.794	0.16903225
527.999	0.16934112
528.204	0.16966039
528.409	0.17003501
528.614	0.17038068
528.819	0.17073779
529.024	0.17105083
529.229	0.17141544
529.434	0.17176517
529.639	0.17212077
529.843	0.17249539
530.048	0.1728457
530.253	0.17327266
530.458	0.17367949
530.663	0.1739809
530.868	0.17433958
531.073	0.17468495
531.278	0.17497448
531.482	0.17531155
531.687	0.17566814
531.892	0.17600563
532.097	0.17636324
532.302	0.17676679
532.506	0.17713248
532.711	0.17749768
532.916	0.17787687
533.12	0.17814982
533.325	0.17843729
533.53	0.17879284
533.734	0.17907226
533.939	0.17943149
534.144	0.17976571
534.348	0.18010223
534.553	0.18045512
534.757	0.18081693
534.962	0.18120691
535.167	0.18155882
535.371	0.18188463
535.576	0.18224234
535.78	0.18262467
535.985	0.18301926
536.189	0.18334585
536.394	0.18375468
536.598	0.18413036
536.803	0.18448309
537.007	0.18488019
537.211	0.18517664
537.416	0.18548544
537.62	0.18592936
537.825	0.18619495
538.029	0.1865755
538.233	0.18689615
538.438	0.18718833
538.642	0.18753762
538.846	0.1878531
539.05	0.18814088
539.255	0.1884702
539.459	0.18877643
539.663	0.18916532
539.867	0.18955393
540.072	0.1899095
540.276	0.19032402
540.48	0.19070775
540.684	0.19105635
540.888	0.19142919
541.092	0.19175119
541.297	0.19212146
541.501	0.19248574
541.705	0.19279697
541.909	0.19311226
542.113	0.19351596
542.317	0.1938856
542.521	0.19425214
542.725	0.19456271
542.929	0.19491359
543.133	0.19531473
543.337	0.19566662
543.541	0.19595454
543.745	0.19629757
543.949	0.19664586
544.153	0.19697279
544.357	0.1972909
544.56	0.1976702
544.764	0.19805561
544.968	0.198346
545.172	0.19860112
545.376	0.19890844
545.58	0.19925052
545.783	0.19964421
545.987	0.19990478
546.191	0.2001615
546.395	0.20058876
546.598	0.20095859
546.802	0.20129493
547.006	0.2016419
547.21	0.20193301
547.413	0.20230163
547.617	0.20271599
547.821	0.20305159
548.024	0.20345589
548.228	0.20379257
548.431	0.20415671
548.635	0.20447206
548.839	0.20477191
549.042	0.2050882
549.246	0.20533437
549.449	0.20561656
549.653	0.20593263
549.856	0.2061874
550.06	0.20654644
550.263	0.20690481
550.467	0.20713826
550.67	0.20748969
550.874	0.20774649
551.077	0.20807707
551.28	0.2084663
551.484	0.20879066
551.687	0.20905436
551.891	0.20949392
552.094	0.20977255
552.297	0.21010133
552.501	0.21037667
552.704	0.21062218
552.907	0.21083555
553.11	0.21117199
553.314	0.2114543
553.517	0.21177951
553.72	0.21215662
553.923	0.21249319
554.127	0.21280709
554.33	0.2131086
554.533	0.21340029
554.736	0.21363209
554.939	0.21395792
555.142	0.21421179
555.345	0.21451188
555.549	0.21480643
555.752	0.21513697
555.955	0.21538642
556.158	0.21572153
556.361	0.21599611
556.564	0.21628065
556.767	0.21657181
556.97	0.21688893
557.173	0.21716586
557.376	0.2175417
557.579	0.21781626
557.782	0.2181256
557.984	0.21842585
558.187	0.21881294
558.39	0.21908582
558.593	0.21940054
558.796	0.21961467
558.999	0.21985303
559.202	0.22010045
559.404	0.22031606
559.607	0.22045464
559.81	0.22069588
560.013	0.22096578
560.216	0.22125638
560.418	0.221528
560.621	0.22179173
560.824	0.22205955
561.026	0.22241049
561.229	0.22264215
561.432	0.22283139
561.634	0.22303041
561.837	0.22329243
562.04	0.22352827
562.242	0.22377465
562.445	0.22396717
562.647	0.22426543
562.85	0.22447715
563.053	0.22477919
563.255	0.22503609
563.458	0.22532799
563.66	0.22561044
563.863	0.2259172
564.065	0.22609997
564.268	0.22641083
564.47	0.22667018
564.672	0.22687314
564.875	0.22705502
565.077	0.22725898
565.28	0.22745277
565.482	0.22774839
565.684	0.22791932
565.887	0.22802729
566.089	0.22827489
566.291	0.22851742
566.494	0.22870519
566.696	0.22888688
566.898	0.2291004
567.1	0.22933388
567.303	0.2296622
567.505	0.22981917
567.707	0.22997297
567.909	0.23019926
568.111	0.23042647
568.314	0.23058904
568.516	0.23081606
568.718	0.2309954
568.92	0.23125491
569.122	0.2314739
569.324	0.2317107
569.526	0.23186799
569.728	0.23207695
569.93	0.2322639
570.132	0.23239699
570.334	0.23257514
570.536	0.23273548
570.738	0.23284847
570.94	0.23302847
571.142	0.23322933
571.344	0.23335154
571.546	0.23352275
571.748	0.23369936
571.95	0.23385928
572.152	0.23405606
572.354	0.23424298
572.555	0.23439924
572.757	0.23461527
572.959	0.23478745
573.161	0.23489156
573.363	0.23505585
573.564	0.23529859
573.766	0.23542136
573.968	0.23561149
574.17	0.23577005
574.371	0.23588695
574.573	0.23606586
574.775	0.23625094
574.976	0.23632807
575.178	0.23645532
575.38	0.23650441
575.581	0.23661076
575.783	0.23676762
575.985	0.23693278
576.186	0.23703272
576.388	0.23717854
576.589	0.23732024
576.791	0.2375351
576.992	0.237688
577.194	0.2378695
577.395	0.23803489
577.597	0.23823736
577.798	0.23838075
578	0.23855506
578.201	0.23868818
578.402	0.23883344
578.604	0.23889577
578.805	0.23901246
579.007	0.23914219
579.208	0.23930881
579.409	0.23935147
579.611	0.23947931
579.812	0.23963265
580.013	0.23981746
580.215	0.23981039
580.416	0.23986568
580.617	0.23985558
580.818	0.24005743
581.019	0.24005341
581.221	0.2401002
581.422	0.24018792
581.623	0.24042506
581.824	0.2404889
582.025	0.24072407
582.226	0.24078199
582.428	0.2410625
582.629	0.24113366
582.83	0.2412522
583.031	0.24126291
583.232	0.24144662
583.433	0.2415639
583.634	0.2416966
583.835	0.24167491
584.036	0.24178723
584.237	0.24182378
584.438	0.24191853
584.639	0.24194858
584.84	0.24198196
585.041	0.24200943
585.242	0.24209319
585.442	0.24218393
585.643	0.24232996
585.844	0.24244118
586.045	0.24255615
586.246	0.24250093
586.447	0.24258961
586.647	0.24271927
586.848	0.2427734
587.049	0.24277559
587.25	0.24278141
587.45	0.24283385
587.651	0.24302956
587.852	0.2430937
588.053	0.24320536
588.253	0.2433586
588.454	0.2435156
588.655	0.24363507
588.855	0.24372071
589.056	0.24377752
589.256	0.24390419
589.457	0.24393855
589.658	0.24398564
589.858	0.24400142
590.059	0.24411508
590.259	0.24417291
590.46	0.24427855
590.66	0.24430277
590.861	0.24438646
591.061	0.24445108
591.262	0.24459544
591.462	0.24467721
591.662	0.24478861
591.863	0.24481495
592.063	0.24496873
592.264	0.2450937
592.464	0.24522129
592.664	0.24527159
592.865	0.24538527
593.065	0.24535896
593.265	0.24548787
593.465	0.24542659
593.666	0.24543258
593.866	0.24546115
594.066	0.24555625
594.266	0.24554778
594.467	0.24567114
594.667	0.24568348
594.867	0.24589747
595.067	0.24590967
595.267	0.2459393
595.467	0.24594638
595.668	0.24604506
595.868	0.24611629
596.068	0.24620328
596.268	0.24618107
596.468	0.24630258
596.668	0.24638318
596.868	0.24650823
597.068	0.24653311
597.268	0.24662511
597.468	0.24660489
597.668	0.24665291
597.868	0.24669008
598.068	0.24675182
598.268	0.24674116
598.467	0.24689191
598.667	0.24687269
598.867	0.24695245
599.067	0.2470366
599.267	0.24706745
599.467	0.24710609
599.667	0.24716464
599.866	0.24717384
600.066	0.24729399
600.266	0.24737469
600.466	0.24741364
600.665	0.24750302
600.865	0.24758854
601.065	0.24769822
601.264	0.24774241
601.464	0.247756
601.664	0.24787814
601.863	0.247963
602.063	0.2480435
602.263	0.24799235
602.462	0.24806432
602.662	0.24812836
602.861	0.24828232
603.061	0.24829666
603.26	0.24837125
603.46	0.24840101
603.659	0.24856754
603.859	0.24858841
604.058	0.24863661
604.258	0.24871372
604.457	0.24889229
604.657	0.24886198
604.856	0.24893082
605.056	0.24905289
605.255	0.24912521
605.454	0.24925497
605.654	0.24920343
605.853	0.24921599
606.052	0.24939308
606.252	0.24954
606.451	0.24959896
606.65	0.24971295
606.849	0.24966835
607.049	0.24981104
607.248	0.24987587
607.447	0.24992713
607.646	0.24995364
607.845	0.25004834
608.045	0.25000417
608.244	0.25022973
608.443	0.25031808
608.642	0.25048693
608.841	0.25052067
609.04	0.25055905
609.239	0.25062662
609.438	0.25067326
609.637	0.25079428
609.836	0.25092613
610.035	0.25090591
610.234	0.25106073
610.433	0.2512326
610.632	0.25128119
610.831	0.251611
611.03	0.25160722
611.229	0.25181417
611.428	0.25196712
611.627	0.25210936
611.826	0.2522551
612.025	0.25250956
612.224	0.25249877
612.422	0.25268803
612.621	0.25279138
612.82	0.25293493
613.019	0.2530436
613.218	0.25315586
613.416	0.25317257
613.615	0.25337564
613.814	0.25347909
614.012	0.25353635
614.211	0.25358731
614.41	0.25375179
614.608	0.2538487
614.807	0.25398399
615.006	0.2541484
615.204	0.25429553
615.403	0.25445245
615.602	0.25468658
615.8	0.25488443
615.999	0.25500302
616.197	0.25514503
616.396	0.25532694
616.594	0.255389
616.793	0.25555482
616.991	0.25563769
617.19	0.25557153
617.388	0.2557941
617.586	0.25595918
617.785	0.25601541
617.983	0.2561883
618.182	0.25624514
618.38	0.25631302
618.578	0.25655554
618.777	0.25668385
618.975	0.25685434
619.173	0.25702642
619.372	0.25722812
619.57	0.25734342
619.768	0.25754862
619.966	0.25777053
620.165	0.25788285
620.363	0.25808429
620.561	0.2581028
620.759	0.25827095
620.957	0.25857115
621.155	0.25883777
621.354	0.25887705
621.552	0.25917504
621.75	0.25925335
621.948	0.25959896
622.146	0.25974772
622.344	0.25982338
622.542	0.25993708
622.74	0.26023585
622.938	0.26025778
623.136	0.26054523
623.334	0.26071901
623.532	0.26075391
623.73	0.2608807
623.928	0.26112058
624.126	0.26126698
624.324	0.26157937
624.522	0.26159054
624.719	0.26173893
624.917	0.26210648
625.115	0.26226205
625.313	0.26242063
625.511	0.26265339
625.708	0.26261135
625.906	0.26283042
626.104	0.26294336
626.302	0.26317418
626.499	0.26347909
626.697	0.26362272
626.895	0.2636816
627.093	0.2639813
627.29	0.26424935
627.488	0.26455003
627.686	0.26469212
627.883	0.26481323
628.081	0.26493672
628.278	0.26536154
628.476	0.26554632
628.673	0.26574211
628.871	0.26586117
629.068	0.26605985
629.266	0.2663382
629.463	0.26648896
629.661	0.26658651
629.858	0.26673263
630.056	0.26689558
630.253	0.26708753
630.451	0.26728195
630.648	0.26745896
630.845	0.26771628
631.043	0.26786583
631.24	0.26819221
631.438	0.26844022
631.635	0.26867008
631.832	0.26878715
632.029	0.26899816
632.227	0.26926262
632.424	0.26950329
632.621	0.26963712
632.818	0.2697276
633.016	0.26998034
633.213	0.27020507
633.41	0.27046586
633.607	0.27066172
633.804	0.27085766
634.001	0.27103832
634.199	0.27138516
634.396	0.27159382
634.593	0.27175791
634.79	0.2720143
634.987	0.27232596
635.184	0.27260815
635.381	0.27291039
635.578	0.27315721
635.775	0.27332894
635.972	0.27363393
636.169	0.27374997
636.366	0.27378752
636.563	0.27390766
636.76	0.27399565
636.957	0.27415212
637.153	0.27423498
637.35	0.27446165
637.547	0.27464682
637.744	0.27492314
637.941	0.27518389
638.138	0.27550363
638.334	0.27567821
638.531	0.27601061
638.728	0.27620482
638.925	0.27656899
639.121	0.27681138
639.318	0.27699743
639.515	0.27714284
639.711	0.27738633
639.908	0.27749841
640.105	0.27774974
640.301	0.27783928
640.498	0.27797172
640.695	0.27826238
640.891	0.27844609
641.088	0.27860684
641.284	0.27891021
641.481	0.27901318
641.677	0.2791747
641.874	0.2793503
642.07	0.27953044
642.267	0.27993402
642.463	0.28018938
642.66	0.28054417
642.856	0.28078741
643.053	0.28094766
643.249	0.28126354
643.445	0.28143075
643.642	0.28153522
643.838	0.28176217
644.034	0.28183026
644.231	0.28201475
644.427	0.28238053
644.623	0.28258569
644.82	0.28282144
645.016	0.28299229
645.212	0.28305968
645.408	0.2833167
645.604	0.28371361
645.801	0.28384056
645.997	0.28405133
646.193	0.28422364
646.389	0.28454444
646.585	0.28482636
646.781	0.28508783
646.977	0.28517386
647.173	0.28537986
647.37	0.28549556
647.566	0.28574579
647.762	0.28586265
647.958	0.28614575
648.154	0.28624918
648.35	0.28648851
648.546	0.28671751
648.742	0.28713561
648.937	0.28721619
649.133	0.28750047
649.329	0.28777521
649.525	0.28804683
649.721	0.28823084
649.917	0.28852951
650.113	0.28856054
650.309	0.28893567
650.504	0.28904019
650.7	0.2890903
650.896	0.28926433
651.092	0.28940761
651.287	0.28948637
651.483	0.28984494
651.679	0.28997368
651.875	0.29026805
652.07	0.29050662
652.266	0.2907054
652.462	0.29093801
652.657	0.29115571
652.853	0.29119721
653.048	0.29135773
653.244	0.29146749
653.44	0.29171069
653.635	0.29181031
653.831	0.29206823
654.026	0.29236495
654.222	0.29259503
654.417	0.29290291
654.613	0.29312183
654.808	0.29325343
655.004	0.29358195
655.199	0.29368161
655.394	0.29376775
655.59	0.2940364
655.785	0.29410009
655.98	0.2943013
656.176	0.29445316
656.371	0.294714
656.566	0.29497597
656.762	0.29512874
656.957	0.29530365
657.152	0.29551013
657.348	0.29568924
657.543	0.29595908
657.738	0.29611661
657.933	0.2962593
658.128	0.29650685
658.324	0.29662463
658.519	0.29686611
658.714	0.29707037
658.909	0.29724107
659.104	0.2973885
659.299	0.29760738
659.494	0.29779761
659.689	0.29808115
659.884	0.29824782
660.079	0.29841401
660.274	0.2986069
660.469	0.29883307
660.664	0.29905211
660.859	0.29924969
661.054	0.29936809
661.249	0.29956671
661.444	0.29972384
661.639	0.29983968
661.834	0.29991512
662.029	0.30003763
662.224	0.30019316
662.418	0.30038428
662.613	0.30049745
662.808	0.30063474
663.003	0.30083837
663.198	0.30099262
663.392	0.30111424
663.587	0.30139416
663.782	0.30148039
663.977	0.30164697
664.171	0.30189756
664.366	0.30211176
664.561	0.30234458
664.755	0.30264924
664.95	0.30267169
665.144	0.30288331
665.339	0.30311292
665.534	0.30324339
665.728	0.30338182
665.923	0.30354161
666.117	0.30357502
666.312	0.30379005
666.506	0.30403645
666.701	0.30413985
666.895	0.30430265
667.09	0.3044419
667.284	0.30463894
667.479	0.30480289
667.673	0.30491931
667.867	0.30511019
668.062	0.30526184
668.256	0.30542779
668.45	0.30570672
668.645	0.30581269
668.839	0.30603639
669.033	0.30624669
669.228	0.30628575
669.422	0.30650783
669.616	0.30661134
669.81	0.30675287
670.004	0.30687393
670.199	0.3069839
670.393	0.30709656
670.587	0.30725715
670.781	0.30741581
670.975	0.30771477
671.169	0.30776718
671.363	0.30792862
671.558	0.30808841
671.752	0.30828448
671.946	0.30852232
672.14	0.30863591
672.334	0.30865108
672.528	0.30893286
672.722	0.30899792
672.916	0.309138
673.11	0.30913921
673.304	0.30928303
673.497	0.30934125
673.691	0.30954873
673.885	0.3095674
674.079	0.30980336
674.273	0.30985825
674.467	0.31009514
674.661	0.31016394
674.854	0.31036749
675.048	0.310483
675.242	0.31064062
675.436	0.31077307
675.629	0.31094395
675.823	0.31101373
676.017	0.31120619
676.211	0.31127928
676.404	0.31140545
676.598	0.3115564
676.792	0.31169205
676.985	0.31192794
677.179	0.31213208
677.372	0.312206
677.566	0.31247697
677.76	0.31266009
677.953	0.31276061
678.147	0.31293546
678.34	0.31309736
678.534	0.31315459
678.727	0.31332348
678.921	0.3134857
679.114	0.31352704
679.307	0.31374262
679.501	0.31391963
679.694	0.31400591
679.888	0.3142053
680.081	0.31436985
680.274	0.31442572
680.468	0.31465342
680.661	0.31474066
680.854	0.31490771
681.048	0.31507777
681.241	0.31519963
681.434	0.31530941
681.627	0.31544378
681.821	0.31554732
682.014	0.31574416
682.207	0.31578441
682.4	0.31587523
682.593	0.31602388
682.786	0.31611749
682.98	0.31614799
683.173	0.31630234
683.366	0.31635341
683.559	0.31647989
683.752	0.31663902
683.945	0.31677667
684.138	0.31695498
684.331	0.31712086
684.524	0.31731403
684.717	0.31745362
684.91	0.31762824
685.103	0.31779278
685.296	0.31798836
685.489	0.31814134
685.682	0.31832776
685.874	0.31844458
686.067	0.31858703
686.26	0.31867739
686.453	0.31872134
686.646	0.318745
686.839	0.31881452
687.031	0.31892739
687.224	0.3188797
687.417	0.3190434
687.61	0.319157
687.802	0.31928913
687.995	0.31950637
688.188	0.31967119
688.38	0.31976874
688.573	0.32000533
688.766	0.32000823
688.958	0.32003717
689.151	0.32004676
689.343	0.32010422
689.536	0.32016766
689.729	0.32028291
689.921	0.32041319
690.114	0.3204821
690.306	0.32067487
690.499	0.32088188
690.691	0.32101077
690.884	0.32114375
691.076	0.32131598
691.268	0.32138253
691.461	0.32146104
691.653	0.32161501
691.846	0.32179268
692.038	0.32190513
692.23	0.32193575
692.423	0.32200435
692.615	0.32211816
692.807	0.32229109
692.999	0.32239483
693.192	0.32236265
693.384	0.32243657
693.576	0.32248144
693.768	0.32262014
693.961	0.32265923
694.153	0.32279821
694.345	0.3228011
694.537	0.32298466
694.729	0.32312208
694.921	0.32326871
695.113	0.32338566
695.305	0.32353032
695.498	0.32361276
695.69	0.32378267
695.882	0.32382988
696.074	0.32392995
696.266	0.3241187
696.458	0.32416911
696.65	0.32428977
696.842	0.32436221
697.033	0.32444871
697.225	0.32454117
697.417	0.32468334
697.609	0.32475573
697.801	0.32487863
697.993	0.32506329
698.185	0.32518787
698.376	0.32534495
698.568	0.32547943
698.76	0.32557011
698.952	0.32566062
699.144	0.32572187
699.335	0.32573379
699.527	0.3258544
699.719	0.32592263
699.91	0.32614601
700.102	0.3262113
700.294	0.32640428
700.485	0.32657583
700.677	0.32669772
700.869	0.32689565
701.06	0.32709632
701.252	0.32707087
701.443	0.3272173
701.635	0.32726791
701.826	0.32738983
702.018	0.32751921
702.209	0.32763542
702.401	0.32764844
702.592	0.32789317
702.784	0.32791405
702.975	0.32810447
703.166	0.32819071
703.358	0.32823415
703.549	0.32833807
703.741	0.32842316
703.932	0.32842789
704.123	0.32852579
704.315	0.32862888
704.506	0.32884274
704.697	0.32897754
704.888	0.3290968
705.08	0.32925035
705.271	0.32943671
705.462	0.32955628
705.653	0.3296342
705.844	0.32963011
706.035	0.32977992
706.227	0.32979752
706.418	0.32991996
706.609	0.3299817
706.8	0.33023007
706.991	0.33032117
707.182	0.33048976
707.373	0.33054963
707.564	0.33074782
707.755	0.3308259
707.946	0.33094716
708.137	0.33093892
708.328	0.33103559
708.519	0.33116083
708.71	0.33136557
708.901	0.33143541
709.092	0.33157793
709.283	0.33172593
709.473	0.33191124
709.664	0.33207135
709.855	0.33215066
710.046	0.33224604
710.237	0.33235494
710.427	0.33247072
710.618	0.33260776
710.809	0.33266967
711	0.33279714
711.19	0.3328551
711.381	0.33304714
711.572	0.33316649
711.762	0.33331921
711.953	0.33333579
712.144	0.33346419
712.334	0.33355223
712.525	0.3337513
712.715	0.33383458
712.906	0.33395271
713.097	0.33397364
713.287	0.33415967
713.478	0.33428842
713.668	0.33444627
713.859	0.33451067
714.049	0.33456908
714.239	0.33475436
714.43	0.33493738
714.62	0.33504374
714.811	0.33518194
715.001	0.33528648
715.191	0.33546742
715.382	0.33562551
715.572	0.33580539
715.762	0.33590157
715.953	0.33612892
716.143	0.33630276
716.333	0.33640449
716.523	0.33647187
716.714	0.33660895
716.904	0.33655348
717.094	0.33676003
717.284	0.33674332
717.474	0.33679186
717.664	0.33690494
717.855	0.33706619
718.045	0.33714568
718.235	0.33731367
718.425	0.33744808
718.615	0.33769012
718.805	0.33792077
718.995	0.33809638
719.185	0.33822425
719.375	0.33844356
719.565	0.3386798
719.755	0.33881231
719.945	0.33886278
720.135	0.33901405
720.325	0.33918765
720.515	0.33937584
720.704	0.3394783
720.894	0.33959618
721.084	0.33973184
721.274	0.33999651
721.464	0.34013355
721.654	0.34029078
721.843	0.34046651
722.033	0.34066031
722.223	0.34080611
722.413	0.34104911
722.602	0.34116835
722.792	0.34137094
722.982	0.34145833
723.171	0.34159333
723.361	0.34177357
723.55	0.34194877
723.74	0.34201777
723.93	0.34217439
724.119	0.34226219
724.309	0.34244101
724.498	0.34255565
724.688	0.34262795
724.877	0.34279598
725.067	0.34296931
725.256	0.3430873
725.446	0.34320136
725.635	0.34326806
725.825	0.34333414
726.014	0.34346057
726.203	0.34348206
726.393	0.34340608
726.582	0.3434075
726.771	0.34347515
726.961	0.34360427
727.15	0.34368384
727.339	0.34372078
727.529	0.343853
727.718	0.3440317
727.907	0.34414681
728.096	0.34421159
728.286	0.34425075
728.475	0.34445153
728.664	0.3445726
728.853	0.34465127
729.042	0.34472644
729.231	0.34485588
729.42	0.34494391
729.609	0.34509291
729.799	0.34508469
729.988	0.3451826
730.177	0.34519399
730.366	0.34531343
730.555	0.34536347
730.744	0.34547003
730.933	0.34553617
731.122	0.34564322
731.31	0.34570995
731.499	0.34582646
731.688	0.34592391
731.877	0.34604472
732.066	0.34616454
732.255	0.34624305
732.444	0.34628714
732.632	0.34640196
732.821	0.34654843
733.01	0.34665424
733.199	0.3466814
733.388	0.34674411
733.576	0.346851
733.765	0.34700266
733.954	0.34710707
734.142	0.34718933
734.331	0.34725394
734.52	0.34737711
734.708	0.34750089
734.897	0.34754123
735.086	0.34755484
735.274	0.34752592
735.463	0.34760522
735.651	0.34764432
735.84	0.34775899
736.028	0.34782351
736.217	0.34796681
736.405	0.34807849
736.594	0.34826973
736.782	0.34831829
736.971	0.34839838
737.159	0.34845802
737.347	0.34854761
737.536	0.34863127
737.724	0.34880651
737.912	0.34890189
738.101	0.34903364
738.289	0.34919868
738.477	0.34930132
738.666	0.34943769
738.854	0.3495295
739.042	0.34957273
739.23	0.34961019
739.418	0.34965273
739.607	0.3496768
739.795	0.34979464
739.983	0.34983459
740.171	0.34993056
740.359	0.35000723
740.547	0.350126
740.735	0.3502389
740.923	0.35040541
741.112	0.35056043
741.3	0.35071645
741.488	0.35082301
741.676	0.35100076
741.864	0.35110733
742.052	0.35130835
742.239	0.35128772
742.427	0.35130909
742.615	0.35127131
742.803	0.35135016
742.991	0.35133742
743.179	0.35144406
743.367	0.35145093
743.555	0.3516732
743.742	0.35179661
743.93	0.35199512
744.118	0.35210785
744.306	0.35233728
744.494	0.35237781
744.681	0.35245871
744.869	0.35246979
745.057	0.35246898
745.244	0.35249339
745.432	0.35255394
745.62	0.35252751
745.807	0.35262909
745.995	0.35270496
746.182	0.35277122
746.37	0.35288763
746.558	0.35298851
746.745	0.35304272
746.933	0.35318737
747.12	0.35317853
747.308	0.353309
747.495	0.35341627
747.683	0.35350219
747.87	0.3535652
748.057	0.35372483
748.245	0.35376501
748.432	0.35393603
748.62	0.35394827
748.807	0.35404578
748.994	0.35411561
749.182	0.3542057
749.369	0.3542428
749.556	0.35433666
749.743	0.35440562
749.931	0.35446272
750.118	0.35452863
750.305	0.35459161
750.492	0.35467164
750.68	0.35477316
750.867	0.35476656
751.054	0.35483572
751.241	0.3549486
751.428	0.35499148
751.615	0.35507985
751.802	0.355154
751.989	0.35517088
752.176	0.35537295
752.363	0.35548965
752.55	0.35553939
752.737	0.35565803
752.924	0.35569579
753.111	0.35580469
753.298	0.35590532
753.485	0.35592254
753.672	0.35592548
753.859	0.35609344
754.046	0.35616879
754.233	0.35627426
754.42	0.35638296
754.606	0.35638128
754.793	0.35633274
754.98	0.35643382
755.167	0.35640143
755.353	0.35644023
755.54	0.35651165
755.727	0.35649292
755.914	0.35661255
756.1	0.35674482
756.287	0.35680934
756.474	0.35684584
756.66	0.3569866
756.847	0.35711627
757.033	0.35714191
757.22	0.35709918
757.407	0.35719675
757.593	0.35725788
757.78	0.35730277
757.966	0.35733907
758.153	0.35730252
758.339	0.35737102
758.526	0.35751571
758.712	0.35750255
758.898	0.35754941
759.085	0.35754276
759.271	0.3574835
759.458	0.3574932
759.644	0.3575717
759.83	0.35764294
760.017	0.35778571
760.203	0.35782037
760.389	0.35798746
760.576	0.35815439
760.762	0.35827536
760.948	0.35824912
761.134	0.35823906
761.32	0.35818784
761.507	0.3582054
761.693	0.35825284
761.879	0.35821059
762.065	0.3582203
762.251	0.35834413
762.437	0.35847567
762.623	0.35855822
762.809	0.35859024
762.995	0.35861399
763.181	0.35861849
763.367	0.35867025
763.553	0.35863475
763.739	0.35864433
763.925	0.35868634
764.111	0.35880462
764.297	0.35886218
764.483	0.35890966
764.669	0.35883604
764.855	0.3588419
765.041	0.35880354
765.227	0.35873843
765.412	0.3586843
765.598	0.35866437
765.784	0.35871403
765.97	0.35883476
766.156	0.3589568
766.341	0.35898084
766.527	0.35906326
766.713	0.3591389
766.898	0.35915953
767.084	0.35923134
767.27	0.35916192
767.455	0.35911626
767.641	0.3591944
767.827	0.35918794
768.012	0.35923319
768.198	0.35931783
768.383	0.3592993
768.569	0.35943332
768.754	0.35951866
768.94	0.35956485
769.125	0.35965651
769.311	0.35963425
769.496	0.35959272
769.682	0.35964078
769.867	0.35965102
770.052	0.35970992
770.238	0.35966657
770.423	0.35967177
770.608	0.3596763
770.794	0.35971233
770.979	0.35963988
771.164	0.35961544
771.35	0.35952938
771.535	0.35949528
771.72	0.35948727
771.905	0.35956553
772.09	0.35956977
772.276	0.35964157
772.461	0.3596317
772.646	0.35965976
772.831	0.35968386
773.016	0.35966843
773.201	0.35959082
773.386	0.35961796
773.571	0.35954719
773.756	0.35947328
773.941	0.35937657
774.126	0.35948818
774.311	0.35944598
774.496	0.35941347
774.681	0.35930384
774.866	0.35927321
775.051	0.3592808
775.236	0.35930894
775.421	0.3590785
775.606	0.35904403
775.791	0.35897445
775.976	0.35901437
776.16	0.3590612
776.345	0.35909649
776.53	0.359192
776.715	0.35927134
776.899	0.35925293
777.084	0.35927781
777.269	0.35920991
777.454	0.35916247
777.638	0.3591532
777.823	0.35900895
778.008	0.35885806
778.192	0.35883981
778.377	0.35873608
778.561	0.3586832
778.746	0.35857082
778.931	0.35842583
779.115	0.35841859
779.3	0.35842914
779.484	0.35834001
779.669	0.35822325
779.853	0.35810132
780.037	0.35809967
780.222	0.35807055
780.406	0.35799946
780.591	0.35800343
780.775	0.35801584
780.959	0.35803506
781.144	0.35806069
781.328	0.35798335
781.512	0.35793268
781.697	0.35784681
781.881	0.357726
782.065	0.35765989
782.249	0.35756216
782.434	0.35751288
782.618	0.35750948
782.802	0.35751148
782.986	0.35754101
783.17	0.35754894
783.354	0.35751639
783.539	0.3576004
783.723	0.35749387
783.907	0.35736544
784.091	0.35721953
784.275	0.35707755
784.459	0.35690369
784.643	0.35675006
784.827	0.35657125
785.011	0.35643762
785.195	0.35640738
785.379	0.35639418
785.563	0.35629556
785.747	0.35628277
785.93	0.35629078
786.114	0.35618073
786.298	0.35616306
786.482	0.35594171
786.666	0.35581878
786.85	0.35577465
787.033	0.35571609
787.217	0.35560651
787.401	0.35557348
787.585	0.35550581
787.768	0.3555489
787.952	0.35544317
788.136	0.35526029
788.319	0.35516472
788.503	0.35495837
788.687	0.35486497
788.87	0.35472807
789.054	0.35463976
789.237	0.35448884
789.421	0.35439099
789.605	0.35414795
789.788	0.35403216
789.972	0.35381063
790.155	0.35369936
790.338	0.35354082
790.522	0.35351028
790.705	0.35336277
790.889	0.3532639
791.072	0.35322169
791.256	0.35324203
791.439	0.35319403
791.622	0.35316413
791.806	0.35315579
791.989	0.35308709
792.172	0.35313803
792.355	0.35308831
792.539	0.35300113
792.722	0.35288517
792.905	0.35264688
793.088	0.35238587
793.271	0.35236288
793.455	0.35215379
793.638	0.3519628
793.821	0.35175771
794.004	0.35158827
794.187	0.35157667
794.37	0.35160146
794.553	0.35150998
794.736	0.35142287
794.919	0.351294
795.102	0.35123801
795.285	0.35115137
795.468	0.35098162
795.651	0.35069051
795.834	0.3505443
796.017	0.350382
796.2	0.35024307
796.383	0.3501071
796.566	0.34992735
796.749	0.34977908
796.931	0.34975684
797.114	0.34944105
797.297	0.34921203
797.48	0.34908692
797.663	0.34895696
797.845	0.34884729
798.028	0.34873625
798.211	0.34857781
798.393	0.34858654
798.576	0.34858019
798.759	0.3483458
798.941	0.34816966
799.124	0.3480361
799.307	0.3479113
799.489	0.34777549
799.672	0.34764049
799.854	0.34748625
800.037	0.3475047
800.219	0.34736932
800.402	0.34727408
800.584	0.34711421
800.767	0.34691594
800.949	0.3467626
801.132	0.34665824
801.314	0.34643613
801.496	0.34625193
801.679	0.34598019
801.861	0.34581408
802.043	0.34560668
802.226	0.34542069
802.408	0.3452836
802.59	0.34517345
802.772	0.34518821
802.955	0.34515241
803.137	0.34495039
803.319	0.34486061
803.501	0.34471717
803.684	0.34448382
803.866	0.34424639
804.048	0.34391347
804.23	0.34367401
804.412	0.34357031
804.594	0.34333675
804.776	0.34325626
804.958	0.34309664
805.14	0.34301882
805.322	0.34293228
805.504	0.34282206
805.686	0.34261705
805.868	0.34254647
806.05	0.34227919
806.232	0.34209516
806.414	0.3419044
806.596	0.34164595
806.778	0.34145493
806.96	0.34128214
807.141	0.34100124
807.323	0.34083311
807.505	0.34066745
807.687	0.34047006
807.869	0.34027076
808.05	0.34011782
808.232	0.33998469
808.414	0.33989234
808.595	0.33976448
808.777	0.33960445
808.959	0.33953517
809.14	0.3394801
809.322	0.33927815
809.504	0.3391403
809.685	0.33905988
809.867	0.33886819
810.048	0.33868782
810.23	0.33842532
810.411	0.33824284
810.593	0.33802618
810.774	0.33775785
810.956	0.33746867
811.137	0.33713918
811.319	0.33685256
811.5	0.33659691
811.681	0.33633995
811.863	0.33614993
812.044	0.33592131
812.225	0.33576811
812.407	0.33565931
812.588	0.3354687
812.769	0.33521536
812.951	0.33491756
813.132	0.33470485
813.313	0.33453796
813.494	0.33423187
813.675	0.33400821
813.857	0.33378483
814.038	0.33361925
814.219	0.33336799
814.4	0.33316161
814.581	0.33300876
814.762	0.33277381
814.943	0.3325714
815.124	0.33237016
815.305	0.33222225
815.486	0.33210538
815.667	0.33185962
815.848	0.33149502
816.029	0.33123429
816.21	0.3310202
816.391	0.33084918
816.572	0.33056266
816.753	0.33042174
816.934	0.33018639
817.115	0.33012621
817.295	0.32995573
817.476	0.32957391
817.657	0.32935808
817.838	0.32919656
818.019	0.32886872
818.199	0.3285641
818.38	0.32815119
818.561	0.3279128
818.741	0.3277725
818.922	0.3274588
819.103	0.32724961
819.283	0.3271269
819.464	0.32707097
819.645	0.32698482
819.825	0.3267995
820.006	0.32660578
820.186	0.32637968
820.367	0.3261339
820.547	0.32574886
820.728	0.32544151
820.908	0.32515929
821.089	0.32502371
821.269	0.32486721
821.45	0.32475809
821.63	0.32444395
821.81	0.32436547
821.991	0.32423001
822.171	0.32401802
822.351	0.32373777
822.532	0.32346886
822.712	0.32321241
822.892	0.32304848
823.072	0.3226851
823.253	0.322425
823.433	0.32227386
823.613	0.32208132
823.793	0.32188987
823.973	0.32171051
824.154	0.3215446
824.334	0.32147987
824.514	0.32123775
824.694	0.32101767
824.874	0.32064512
825.054	0.32030627
825.234	0.31994877
825.414	0.31956467
825.594	0.3191572
825.774	0.31887037
825.954	0.31847428
826.134	0.31819839
826.314	0.31794416
826.494	0.3177824
826.674	0.31748033
826.854	0.31717339
827.033	0.31690744
827.213	0.31676505
827.393	0.31646833
827.573	0.31624492
827.753	0.3159519
827.932	0.31579224
828.112	0.31566003
828.292	0.31542829
828.472	0.31504974
828.651	0.31501147
828.831	0.31476947
829.011	0.31451745
829.19	0.31423932
829.37	0.31390847
829.549	0.31360214
829.729	0.31335036
829.909	0.31304251
830.088	0.31277822
830.268	0.31243599
830.447	0.31224386
830.627	0.31214515
830.806	0.31195417
830.986	0.31168494
831.165	0.31146964
831.344	0.31125757
831.524	0.31105783
831.703	0.31072215
831.883	0.31031704
832.062	0.30993543
832.241	0.30964796
832.421	0.30924798
832.6	0.30888931
832.779	0.30857997
832.958	0.30834517
833.138	0.30802018
833.317	0.30787989
833.496	0.3076468
833.675	0.3073392
833.854	0.30714087
834.034	0.30693504
834.213	0.30659323
834.392	0.30645202
834.571	0.30607734
834.75	0.30580145
834.929	0.30562666
835.108	0.30530513
835.287	0.30498801
835.466	0.3046688
835.645	0.30430969
835.824	0.30397813
836.003	0.30368595
836.182	0.30334934
836.361	0.30311356
836.54	0.30274926
836.719	0.30261626
836.897	0.30240768
837.076	0.30227735
837.255	0.3020429
837.434	0.30183015
837.613	0.30157261
837.791	0.30140187
837.97	0.30115744
838.149	0.30081821
838.328	0.30049424
838.506	0.30020832
838.685	0.29988501
838.864	0.29961687
839.042	0.29935645
839.221	0.2991106
839.4	0.29887571
839.578	0.29849737
839.757	0.29814868
839.935	0.29781788
840.114	0.29750175
840.292	0.2971932
840.471	0.29680432
840.649	0.29652797
840.828	0.29641025
841.006	0.29631989
841.185	0.29608479
841.363	0.29589453
841.541	0.29563637
841.72	0.29540676
841.898	0.29512561
842.076	0.29478626
842.255	0.29432178
842.433	0.29408433
842.611	0.29364982
842.789	0.29334991
842.968	0.29309445
843.146	0.29279471
843.324	0.29254943
843.502	0.29234072
843.68	0.29208034
843.859	0.29187037
844.037	0.2915888
844.215	0.2912645
844.393	0.2909367
844.571	0.29061976
844.749	0.29031016
844.927	0.28995093
845.105	0.28953768
845.283	0.28922541
845.461	0.28891082
845.639	0.28864456
845.817	0.28837954
845.995	0.28811682
846.173	0.28792695
846.351	0.28775772
846.529	0.28745256
846.706	0.28717369
846.884	0.2869965
847.062	0.28668492
847.24	0.28638778
847.418	0.2859465
847.595	0.28550867
847.773	0.28523028
847.951	0.28478656
848.129	0.28435088
848.306	0.28411268
848.484	0.28378069
848.662	0.28365787
848.839	0.28361051
849.017	0.28337871
849.194	0.28326187
849.372	0.28305417
849.549	0.28264761
849.727	0.28243658
849.905	0.28199916
850.082	0.28155871
850.26	0.28122762
850.437	0.28089316
850.614	0.28056357
850.792	0.28029603
850.969	0.2800443
851.147	0.27982129
851.324	0.27952082
851.501	0.27924015
851.679	0.27899768
851.856	0.27868106
852.033	0.27844191
852.211	0.27806232
852.388	0.27761532
852.565	0.27732705
852.742	0.27704462
852.92	0.2766597
853.097	0.27639069
853.274	0.27603493
853.451	0.27571992
853.628	0.27550647
853.805	0.27521946
853.982	0.27482516
854.159	0.27452638
854.336	0.27420501
854.514	0.27386424
854.691	0.27355576
854.868	0.27324482
855.045	0.27298564
855.221	0.27289626
855.398	0.27261427
855.575	0.27231433
855.752	0.27215632
855.929	0.27193922
856.106	0.27167314
856.283	0.2714083
856.46	0.27108464
856.637	0.27088281
856.813	0.27059306
856.99	0.27021466
857.167	0.26997522
857.344	0.2698444
857.52	0.26953685
857.697	0.26905106
857.874	0.26866777
858.05	0.26843452
858.227	0.26819323
858.404	0.26782289
858.58	0.26749581
858.757	0.26721182
858.933	0.26702422
859.11	0.26678336
859.287	0.26642737
859.463	0.26604143
859.64	0.26571585
859.816	0.26527731
859.993	0.26498068
860.169	0.26469076
860.345	0.26431
860.522	0.26405822
860.698	0.26379834
860.875	0.26355998
861.051	0.26333054
861.227	0.26297532
861.404	0.26273974
861.58	0.26266764
861.756	0.26244319
861.932	0.26224622
862.109	0.26186445
862.285	0.2616347
862.461	0.26146052
862.637	0.26114319
862.813	0.26078864
862.99	0.26046796
863.166	0.26013705
863.342	0.26011042
863.518	0.25981758
863.694	0.25957324
863.87	0.25918463
864.046	0.25885253
864.222	0.25865237
864.398	0.25838713
864.574	0.2578881
864.75	0.25755768
864.926	0.25717455
865.102	0.25712249
865.278	0.2567543
865.454	0.25642478
865.63	0.25599491
865.805	0.25572965
865.981	0.25557066
866.157	0.25531599
866.333	0.2548352
866.509	0.25475917
866.684	0.25442136
866.86	0.25438228
867.036	0.25413579
867.212	0.2537576
867.387	0.25350155
867.563	0.25340136
867.739	0.25308718
867.914	0.25288426
868.09	0.25237685
868.265	0.25202841
868.441	0.25158986
868.617	0.25132498
868.792	0.25087822
868.968	0.25048184
869.143	0.25020885
869.319	0.25016129
869.494	0.2499435
869.67	0.249846
869.845	0.24945928
870.02	0.24930503
870.196	0.24903009
870.371	0.2486101
870.546	0.24819235
870.722	0.24801325
870.897	0.24770829
871.072	0.24752901
871.248	0.24714043
871.423	0.24686712
871.598	0.24672504
871.773	0.2465228
871.949	0.2462874
872.124	0.246224
872.299	0.24599201
872.474	0.24577586
872.649	0.24552248
872.824	0.24524635
872.999	0.24482426
873.174	0.24443715
873.349	0.2440577
873.524	0.24379488
873.699	0.24363535
873.874	0.24322628
874.049	0.24293625
874.224	0.24281928
874.399	0.24250425
874.574	0.24228555
874.749	0.2418826
874.924	0.24153813
875.099	0.24142891
875.274	0.24115059
875.449	0.24082703
875.623	0.24056055
875.798	0.24007814
875.973	0.2397563
876.148	0.2392947
876.322	0.23900247
876.497	0.23862261
876.672	0.23836575
876.846	0.23806778
877.021	0.23773547
877.196	0.23741437
877.37	0.23717652
877.545	0.23683425
877.72	0.23658287
877.894	0.23633829
878.069	0.2360867
878.243	0.23581813
878.418	0.23558885
878.592	0.23539263
878.767	0.23511027
878.941	0.23486558
879.116	0.23440294
879.29	0.23400332
879.464	0.23360836
879.639	0.23337102
879.813	0.23323572
879.987	0.23310037
880.162	0.2329146
880.336	0.23284926
880.51	0.23276686
880.685	0.23266132
880.859	0.23250952
881.033	0.23208872
881.207	0.23167451
881.381	0.23125452
881.556	0.23089911
881.73	0.23055299
881.904	0.23035157
882.078	0.23002648
882.252	0.22989099
882.426	0.22964093
882.6	0.22946678
882.774	0.22922429
882.948	0.22896398
883.122	0.22871962
883.296	0.22834887
883.47	0.22803025
883.644	0.22789511
883.818	0.22750478
883.992	0.22727213
884.166	0.22711079
884.34	0.22681966
884.514	0.2268264
884.687	0.22660721
884.861	0.22634066
885.035	0.22630567
885.209	0.226223
885.382	0.22603663
885.556	0.2259102
885.73	0.22566128
885.904	0.22539334
886.077	0.22516737
886.251	0.2249749
886.425	0.22464626
886.598	0.22433838
886.772	0.22387809
886.945	0.22344424
887.119	0.22308334
887.292	0.22260285
887.466	0.2222482
887.64	0.22181266
887.813	0.22158827
887.986	0.22147181
888.16	0.2213339
888.333	0.22107566
888.507	0.22091821
888.68	0.22056212
888.854	0.22040178
889.027	0.22009679
889.2	0.21998023
889.374	0.21975921
889.547	0.21970864
889.72	0.21971262
889.893	0.21957223
890.067	0.21935031
890.24	0.21910221
890.413	0.21876482
890.586	0.21826902
890.759	0.21790401
890.933	0.21753539
891.106	0.21732551
891.279	0.21716599
891.452	0.21687739
891.625	0.2166672
891.798	0.21656124
891.971	0.21637942
892.144	0.21619325
892.317	0.21596447
892.49	0.21560638
892.663	0.21553601
892.836	0.21516171
893.009	0.21487726
893.182	0.21460761
893.355	0.21435005
893.527	0.21408084
893.7	0.2140147
893.873	0.21365236
894.046	0.21326251
894.219	0.21309655
894.391	0.2128666
894.564	0.21266673
894.737	0.21240153
894.91	0.21195637
895.082	0.21165572
895.255	0.21147032
895.428	0.21109865
895.6	0.21072829
895.773	0.21030399
895.945	0.21008118
896.118	0.20985853
896.291	0.20963594
896.463	0.20963611
896.636	0.20945427
896.808	0.20934758
896.981	0.20929434
897.153	0.20904014
897.326	0.20895574
897.498	0.20874864
897.67	0.20852225
897.843	0.2084844
898.015	0.20838953
898.187	0.20814235
898.36	0.20782258
898.532	0.20759243
898.704	0.20742877
898.877	0.20714791
899.049	0.20687566
899.221	0.2066842
899.393	0.20657566
899.566	0.20657609
899.738	0.20639136
899.91	0.20627736
900.082	0.20605889
900.254	0.2058159
900.426	0.20550284
900.598	0.20499621
900.77	0.20457974
900.942	0.20421781
901.114	0.20390964
901.286	0.20360602
901.458	0.20336387
901.63	0.20310909
901.802	0.20303694
901.974	0.20289748
902.146	0.20273981
902.318	0.20251603
902.49	0.20235064
902.662	0.20208487
902.834	0.20180772
903.005	0.20167061
903.177	0.20147375
903.349	0.20135379
903.521	0.20116992
903.693	0.20110798
903.864	0.20089543
904.036	0.20077123
904.208	0.20034933
904.379	0.20015959
904.551	0.19985174
904.723	0.19966436
904.894	0.19923573
905.066	0.19921114
905.237	0.19902784
905.409	0.19901329
905.58	0.19892116
905.752	0.19865001
905.923	0.19835328
906.095	0.19807215
906.266	0.19769629
906.438	0.19746624
906.609	0.19704751
906.78	0.19661958
906.952	0.19644933
907.123	0.19606608
907.295	0.19593282
907.466	0.19569184
907.637	0.19553328
907.808	0.19547091
907.98	0.19524807
908.151	0.19511694
908.322	0.19514988
908.493	0.1950479
908.665	0.19496944
908.836	0.19466385
909.007	0.19442997
909.178	0.1943042
909.349	0.1940175
909.52	0.19375318
909.691	0.19333303
909.862	0.19302321
910.033	0.19274319
910.204	0.19252232
910.375	0.19237084
910.546	0.19222647
910.717	0.19206106
910.888	0.1920735
911.059	0.19204249
911.23	0.19193269
911.401	0.19176097
911.572	0.19148565
911.742	0.19117153
911.913	0.19104406
912.084	0.19074203
912.255	0.19041167
912.426	0.19013881
912.596	0.18982361
912.767	0.18968729
912.938	0.18959187
913.108	0.18921389
913.279	0.18893629
913.45	0.18869433
913.62	0.18849704
913.791	0.18845757
913.962	0.1881889
914.132	0.18784007
914.303	0.18769807
914.473	0.18772736
914.644	0.18765856
914.814	0.18762025
914.985	0.18756813
915.155	0.18742606
915.326	0.18747482
915.496	0.18721921
915.666	0.18698971
915.837	0.18690504
916.007	0.18651371
916.177	0.18612553
916.348	0.18598872
916.518	0.18582461
916.688	0.18576865
916.858	0.18545684
917.029	0.18500199
917.199	0.18495187
917.369	0.18486574
917.539	0.18472638
917.709	0.18447066
917.88	0.18411092
918.05	0.18384887
918.22	0.18370135
918.39	0.18335375
918.56	0.18301393
918.73	0.1827981
918.9	0.18240707
919.07	0.1821932
919.24	0.18210025
919.41	0.18200833
919.58	0.18180961
919.75	0.18151326
919.92	0.18108362
920.09	0.18102545
920.26	0.18078669
920.429	0.18066018
920.599	0.18039675
920.769	0.18026416
920.939	0.180113
921.109	0.1798778
921.278	0.17962583
921.448	0.17958194
921.618	0.1793788
921.787	0.17915464
921.957	0.17899451
922.127	0.17875303
922.296	0.17888942
922.466	0.17862252
922.636	0.17852826
922.805	0.1783963
922.975	0.17820197
923.144	0.17810299
923.314	0.17815342
923.483	0.17798206
923.653	0.17783393
923.822	0.17745765
923.992	0.17719486
924.161	0.17703439
924.331	0.17684184
924.5	0.17656159
924.669	0.17621141
924.839	0.17614519
925.008	0.17616909
925.177	0.17601726
925.347	0.17605913
925.516	0.17603751
925.685	0.1760925
925.854	0.17602449
926.023	0.17596134
926.193	0.17596574
926.362	0.17593074
926.531	0.17571016
926.7	0.1754661
926.869	0.17537561
927.038	0.17521337
927.207	0.17513743
927.376	0.17488437
927.545	0.17473683
927.715	0.17452704
927.884	0.1743554
928.052	0.17418058
928.221	0.17400959
928.39	0.17368506
928.559	0.17348398
928.728	0.17344472
928.897	0.17368285
929.066	0.17367127
929.235	0.17347059
929.404	0.17344414
929.572	0.17337057
929.741	0.17325553
929.91	0.17297269
930.079	0.17263646
930.247	0.17240575
930.416	0.17209764
930.585	0.17182777
930.753	0.17177909
930.922	0.17169146
931.091	0.17161739
931.259	0.17131188
931.428	0.17131784
931.596	0.17124422
931.765	0.17142855
931.934	0.17134134
932.102	0.17104451
932.27	0.17097467
932.439	0.17090339
932.607	0.17058781
932.776	0.17053288
932.944	0.1700693
933.113	0.16977682
933.281	0.16971778
933.449	0.16921866
933.618	0.16878074
933.786	0.16882753
933.954	0.16869862
934.123	0.16873461
934.291	0.16864033
934.459	0.16832187
934.627	0.16837789
934.795	0.168515
934.964	0.16828084
935.132	0.16796317
935.3	0.16757505
935.468	0.16741011
935.636	0.16757821
935.804	0.16729689
935.972	0.16711384
936.14	0.16658218
936.308	0.16666781
936.476	0.16677159
936.644	0.16678294
936.812	0.16663928
936.98	0.16651987
937.148	0.16643093
937.316	0.16637894
937.484	0.16638511
937.652	0.16606059
937.82	0.16627778
937.987	0.16627121
938.155	0.16684168
938.323	0.16685407
938.491	0.16657603
938.658	0.16701611
938.826	0.16725182
938.994	0.16680194
939.162	0.1665889
939.329	0.16631125
939.497	0.16674044
939.665	0.16743925
939.832	0.16722206
940	0.16708648
940.167	0.16685427
940.335	0.1663506
940.502	0.16632064
940.67	0.16574449
940.837	0.16589596
941.005	0.1647855
941.172	0.16459588
941.34	0.16492396
941.507	0.16694269
941.674	0.16717606
941.842	0.16678303
942.009	0.16781049
942.177	0.16741189
942.344	0.16796645
942.511	0.16793991
942.678	0.16670953
942.846	0.16647647
943.013	0.16707998
943.18	0.16608261
943.347	0.16721917
943.514	0.16688894
943.682	0.16827393
943.849	0.16785161
944.016	0.16737384
944.183	0.16758689
944.35	0.16800624
944.517	0.16880645
944.684	0.16916974
944.851	0.16561277
945.018	0.16474199
945.185	0.16467344
945.352	0.16454698
945.519	0.16262437
945.686	0.16088049
945.853	0.16245476
946.02	0.16246337
946.187	0.16307312
946.353	0.16332968
946.52	0.16298241
946.687	0.16416501
946.854	0.16440217
947.021	0.16252455
947.187	0.16301178
947.354	0.16245093
947.521	0.16268693
947.687	0.16188747
947.854	0.16143443
948.021	0.16033926
948.187	0.1600724
948.354	0.16000458
948.52	0.15960044
948.687	0.15945
948.854	0.15966964
949.02	0.15882538
949.187	0.15965434
949.353	0.15934918
949.52	0.15924383
949.686	0.15974483
949.852	0.15910912
950.019	0.15923994
950.185	0.15990081
950.352	0.15983782
950.518	0.15930245
950.684	0.15964782
950.851	0.15971644
951.017	0.15870675
951.183	0.15870731
951.349	0.15767864
951.516	0.15693544
951.682	0.15709856
951.848	0.15605116
952.014	0.15512119
952.18	0.15556562
952.346	0.15489217
952.512	0.1551667
952.679	0.15551605
952.845	0.15551492
953.011	0.15565195
953.177	0.15529775
953.343	0.15522975
953.509	0.15525125
953.675	0.15515238
953.841	0.15501833
954.007	0.15488689
954.172	0.15519871
954.338	0.15474207
954.504	0.15377134
954.67	0.15296557
954.836	0.15287436
955.002	0.15239086
955.167	0.15242804
955.333	0.15079594
955.499	0.15136274
955.665	0.15172828
955.83	0.15178822
955.996	0.15127897
956.162	0.15123924
956.327	0.15019678
956.493	0.15056258
956.659	0.15024444
956.824	0.1496012
956.99	0.14940618
957.155	0.14898325
957.321	0.14844724
957.486	0.14885591
957.652	0.14847639
957.817	0.14870105
957.983	0.14852221
958.148	0.14822719
958.314	0.14828507
958.479	0.14809556
958.644	0.14768651
958.81	0.14815632
958.975	0.14816674
959.14	0.14830192
959.306	0.14791462
959.471	0.14730758
959.636	0.14674283
959.801	0.14746613
959.967	0.14718304
960.132	0.14670359
960.297	0.14664693
960.462	0.14718237
960.627	0.14732502
960.792	0.14731928
960.957	0.14679029
961.123	0.14726286
961.288	0.14699345
961.453	0.14689675
961.618	0.14671213
961.783	0.14680116
961.948	0.14632654
962.113	0.14545555
962.277	0.14461289
962.442	0.14510203
962.607	0.14476075
962.772	0.14419482
962.937	0.14392433
963.102	0.14451319
963.267	0.14496518
963.431	0.14520323
963.596	0.14457506
963.761	0.14494614
963.926	0.14521408
964.09	0.14495527
964.255	0.1450542
964.42	0.14478755
964.584	0.14494289
964.749	0.14443504
964.914	0.14345759
965.078	0.1427858
965.243	0.1424629
965.407	0.14175568
965.572	0.14132643
965.736	0.14101153
965.901	0.14144531
966.065	0.14250523
966.23	0.143302
966.394	0.14397076
966.559	0.14437154
966.723	0.14406216
966.887	0.14379939
967.052	0.14313649
967.216	0.1421393
967.38	0.14115224
967.545	0.14055903
967.709	0.14050474
967.873	0.14119301
968.037	0.14150317
968.202	0.14132504
968.366	0.1415706
968.53	0.14167578
968.694	0.1415827
968.858	0.14098723
969.022	0.140621
969.187	0.13983464
969.351	0.13992204
969.515	0.13976883
969.679	0.13917645
969.843	0.13891811
970.007	0.13878922
970.171	0.13853347
970.335	0.13861219
970.499	0.13887768
970.662	0.1386589
970.826	0.13924101
970.99	0.13928784
971.154	0.13941909
971.318	0.13956163
971.482	0.13902728
971.645	0.13861813
971.809	0.13869772
971.973	0.13870097
972.137	0.13894898
972.3	0.1385547
972.464	0.13817043
972.628	0.13867397
972.791	0.13887176
972.955	0.13877358
973.119	0.13839526
973.282	0.13825254
973.446	0.13832175
973.609	0.13818407
973.773	0.13776543
973.936	0.13735671
974.1	0.13710667
974.263	0.13732068
974.427	0.13696724
974.59	0.1367317
974.754	0.13702732
974.917	0.13707782
975.08	0.13731451
975.244	0.13694001
975.407	0.13658134
975.57	0.13641289
975.734	0.13610317
975.897	0.13569969
976.06	0.13560597
976.223	0.1354167
976.387	0.13605116
976.55	0.13598679
976.713	0.1358745
976.876	0.13636995
977.039	0.13665968
977.202	0.13661091
977.365	0.1360531
977.528	0.13527733
977.692	0.13580036
977.855	0.13555366
978.018	0.1355562
978.181	0.13501241
978.344	0.13479722
978.506	0.13495973
978.669	0.13509798
978.832	0.13424214
978.995	0.13419309
979.158	0.13436491
979.321	0.13439856
979.484	0.13449382
979.646	0.13421849
979.809	0.13461106
979.972	0.1341756
980.135	0.13450114
980.297	0.13370764
980.46	0.13369262
980.623	0.13362923
980.786	0.13335346
980.948	0.13327748
981.111	0.13370482
981.273	0.13306477
981.436	0.13313132
981.599	0.13295491
981.761	0.13284929
981.924	0.1331041
982.086	0.13228974
982.249	0.13251591
982.411	0.13260179
982.573	0.1321366
982.736	0.13261466
982.898	0.13244264
983.061	0.13195775
983.223	0.13164788
983.385	0.1312588
983.548	0.13171128
983.71	0.13172064
983.872	0.13101345
984.034	0.13076932
984.197	0.13082661
984.359	0.13093506
984.521	0.13136734
984.683	0.13119133
984.845	0.13183366
985.008	0.13119717
985.17	0.13135153
985.332	0.1319344
985.494	0.13185014
985.656	0.13158492
985.818	0.13147424
985.98	0.13148818
986.142	0.13140308
986.304	0.13083111
986.466	0.13040032
986.628	0.13023508
986.79	0.12971038
986.952	0.12849189
987.113	0.12812191
987.275	0.12824796
987.437	0.12850442
987.599	0.12838683
987.761	0.12879559
987.922	0.12910119
988.084	0.1294572
988.246	0.12906625
988.408	0.12994592
988.569	0.13003663
988.731	0.13070027
988.893	0.13065133
989.054	0.13027923
989.216	0.13054226
989.377	0.13028644
989.539	0.12894632
989.701	0.12827688
989.862	0.12727373
990.024	0.12651645
990.185	0.12558777
990.347	0.12590913
990.508	0.12542633
990.669	0.12613333
990.831	0.12646179
990.992	0.12702886
991.154	0.12718913
991.315	0.12931439
991.476	0.12921808
991.638	0.13002247
991.799	0.13006634
991.96	0.12996905
992.121	0.12999265
992.283	0.13058413
992.444	0.12903015
992.605	0.12880121
992.766	0.12833206
992.927	0.12808682
993.088	0.12772892
993.249	0.12734991
993.41	0.12631279
993.572	0.12589388
993.733	0.12604551
993.894	0.12557512
994.055	0.12417891
994.216	0.12463285
994.376	0.12380391
994.537	0.1241611
994.698	0.124678
994.859	0.1244124
995.02	0.12517476
995.181	0.12577214
995.342	0.12605925
995.503	0.12625781
995.663	0.12640673
995.824	0.12658959
995.985	0.12671016
996.146	0.12608785
996.306	0.12660017
996.467	0.1258675
996.628	0.12707984
996.788	0.12689741
996.949	0.12649551
997.11	0.12530451
997.27	0.12518887
997.431	0.12502832
997.591	0.12431455
997.752	0.121692
997.912	0.12259644
998.073	0.12232038
998.233	0.12378507
998.394	0.12376468
998.554	0.12418444
998.714	0.12496105
998.875	0.12522993
999.035	0.12340737
999.196	0.12350483
999.356	0.12230762
999.516	0.12308872
999.676	0.12268054
999.837	0.12194045
999.997	0.1228294
1000.157	0.12387958
1000.317	0.12277016
1000.477	0.1230531
1000.638	0.12226756
1000.798	0.12283174
1000.958	0.12445854
1001.118	0.12544792
1001.278	0.12405754
1001.438	0.12361481
1001.598	0.12421841
1001.758	0.12434454
1001.918	0.12324914
1002.078	0.12103884
1002.238	0.12025805
1002.398	0.12035462
1002.558	0.12102243
1002.718	0.11987845
1002.878	0.12018566
1003.037	0.11851209
1003.197	0.11914671
1003.357	0.11834336
1003.517	0.12022897
1003.677	0.12041758
1003.836	0.1202913
1003.996	0.12006985
1004.156	0.12154069
1004.315	0.12159035
1004.475	0.12280892
1004.635	0.12207515
1004.794	0.12284261
1004.954	0.12313837
1005.114	0.12309832
1005.273	0.12355561
1005.433	0.12223842
1005.592	0.12125778
1005.752	0.12153679
1005.911	0.12110866
1006.071	0.12288466
1006.23	0.12211855
1006.389	0.12177247
1006.549	0.12289782
1006.708	0.12221555
1006.868	0.12062977
1007.027	0.12156394
1007.186	0.12025407
1007.345	0.12166449
1007.505	0.12269635
1007.664	0.12301625
1007.823	0.1240591
1007.982	0.12495274
1008.142	0.12469545
1008.301	0.12429071
1008.46	0.12334423
1008.619	0.12030871
1008.778	0.11986991
1008.937	0.11966025
1009.096	0.11907805
1009.255	0.1181118
1009.414	0.11642255
1009.573	0.1163695
1009.732	0.11915258
1009.891	0.12041323
1010.05	0.12110816
1010.209	0.12089296
1010.368	0.12019527
1010.527	0.12190538
1010.686	0.12248841
1010.845	0.11982959
1011.003	0.11913943
1011.162	0.11804852
1011.321	0.11637804
1011.48	0.11775662
1011.638	0.11711013
1011.797	0.1159806
1011.956	0.1182294
1012.115	0.11992813
1012.273	0.12133328
1012.432	0.12240343
1012.59	0.12022554
1012.749	0.12195452
1012.908	0.12089305
1013.066	0.12149754
1013.225	0.11906454
1013.383	0.1186248
1013.542	0.12106263
1013.7	0.12323081
1013.859	0.12230799
1014.017	0.12496107
1014.175	0.12231817
1014.334	0.12282061
1014.492	0.12274181
1014.65	0.1223376
1014.809	0.12270772
1014.967	0.12299796
1015.125	0.12359091
1015.284	0.12765794
1015.442	0.12800929
1015.6	0.12988031
1015.758	0.12734055
1015.916	0.1267673
1016.075	0.12608994
1016.233	0.1232448
1016.391	0.121138
1016.549	0.12207038
1016.707	0.12158465
1016.865	0.12261264
1017.023	0.11953731
1017.181	0.11902425
1017.339	0.11922743
1017.497	0.11888376
1017.655	0.11879437
1017.813	0.11585226
1017.971	0.11764418
1018.129	0.11897611
1018.286	0.12120568
1018.444	0.11838683
1018.602	0.11869356
1018.76	0.11655015
1018.918	0.11821548
1019.075	0.11548957
1019.233	0.11351112
1019.391	0.11246416
1019.549	0.11616569
1019.706	0.11644716
1019.864	0.11650769
1020.022	0.11636857
1020.179	0.11914353
1020.337	0.12284228
1020.494	0.11978214
1020.652	0.11922297
1020.809	0.11878094
1020.967	0.11984751
1021.124	0.11932237
1021.282	0.11835002
1021.439	0.11694118
1021.597	0.11889504
1021.754	0.11855092
1021.911	0.12225584
1022.069	0.12091484
1022.226	0.11811299
1022.384	0.11677867
1022.541	0.11302331
1022.698	0.11073593
1022.855	0.11196673
1023.013	0.10994863
1023.17	0.10830024
1023.327	0.11367475
1023.484	0.11542716
1023.641	0.12114292
1023.798	0.12685921
1023.956	0.12899417
1024.113	0.12426707
1024.27	0.12346283
1024.427	0.12434759
1024.584	0.12186315
1024.741	0.12104967
1024.898	0.1177104
1025.055	0.11249697
1025.212	0.11220565
1025.369	0.1119739
1025.525	0.10745756
1025.682	0.10982949
1025.839	0.10796396
1025.996	0.11064678
1026.153	0.11176006
1026.31	0.11574814
1026.466	0.1202812
1026.623	0.12369842
1026.78	0.1271076
1026.937	0.1279206
1027.093	0.12652193
1027.25	0.13434958
1027.407	0.12964413
1027.563	0.12712425
1027.72	0.12757396
1027.876	0.12257121
1028.033	0.12845488
1028.19	0.12828115
1028.346	0.12442227
1028.503	0.12768819
1028.659	0.13299696
1028.816	0.13152973
1028.972	0.13552366
1029.128	0.13367769
1029.285	0.134329
1029.441	0.13117483
1029.598	0.12833937
1029.754	0.12776217
1029.91	0.12606137
1030.067	0.12225006
1030.223	0.12265753
1030.379	0.12074732
1030.535	0.12644462
1030.691	0.13026396
1030.848	0.13255879
1031.004	0.13876162
1031.16	0.14272276
1031.316	0.14717351
1031.472	0.15359238
1031.628	0.15104911
1031.784	0.14661306
1031.94	0.14486934
1032.096	0.14062723
1032.252	0.13581095
1032.408	0.1338097
1032.564	0.13599782
1032.72	0.13218206
1032.876	0.13000452
1033.032	0.12919496
1033.188	0.12636749
1033.344	0.13256728
1033.5	0.131486
1033.655	0.12421799
1033.811	0.12756102
1033.967	0.13967459
