Data from 0_1_mm_pl_70pc_Absorbance__0__16-13-25-650.txt Node

Date: Fri Feb 24 16:13:25 CET 2023
User: Ange
Spectrometer: FLMT08341
Trigger mode: 0
Integration Time (sec): 1.000000E-2
Scans to average: 400
Electric dark correction enabled: true
Nonlinearity correction enabled: false
Boxcar width: 3
XAxis mode: Wavelengths
Number of Pixels in Spectrum: 3648
>>>>>Begin Spectral Data<<<<<
345.271	0.01114038
345.487	0.02208531
345.704	0.02892287
345.921	0.02407163
346.137	0.01967255
346.354	-0.00167031
346.571	-0.02781609
346.787	0.04171216
347.004	0.03743995
347.22	0.04608225
347.437	0.072575
347.653	0.114782
347.87	0.0747401
348.086	0.74193702
348.303	-0.48998874
348.519	0.54035527
348.736	0.50290648
348.952	0.50594392
349.169	0.51646499
349.385	0.53532925
349.601	0.53077313
349.818	0.51772102
350.034	0.50996807
350.251	0.50563584
350.467	0.50860889
350.683	0.49782465
350.9	0.4947195
351.116	0.48933086
351.332	0.48507288
351.549	0.5030545
351.765	0.52071738
351.981	0.53022621
352.197	0.54709482
352.414	0.57172331
352.63	0.58357334
352.846	0.60332218
353.062	0.59037152
353.278	0.57750446
353.495	0.59334645
353.711	0.59571731
353.927	0.59716901
354.143	0.60007658
354.359	0.58906281
354.575	0.58737777
354.792	0.60526047
355.008	0.59143945
355.224	0.58656114
355.44	0.58048952
355.656	0.57963564
355.872	0.59485239
356.088	0.63091368
356.304	0.63034027
356.52	0.63229281
356.736	0.63589819
356.952	0.64473569
357.168	0.64784952
357.384	0.65309885
357.6	0.62957902
357.816	0.64209054
358.032	0.66115532
358.248	0.68648166
358.464	0.68454869
358.679	0.69274144
358.895	0.69310942
359.111	0.71059093
359.327	0.69219871
359.543	0.68878872
359.759	0.69163604
359.974	0.69473176
360.19	0.69078597
360.406	0.69221473
360.622	0.6848562
360.838	0.68401419
361.053	0.69072189
361.269	0.69266209
361.485	0.69709314
361.701	0.70298195
361.916	0.69421525
362.132	0.69635787
362.348	0.70675973
362.563	0.70775587
362.779	0.69994802
362.995	0.70532163
363.21	0.71564394
363.426	0.72226639
363.641	0.72490527
363.857	0.73056866
364.073	0.72741881
364.288	0.72327827
364.504	0.73682229
364.719	0.73349169
364.935	0.7306269
365.15	0.73371385
365.366	0.73664243
365.581	0.74719387
365.797	0.74960298
366.012	0.73404742
366.228	0.72662894
366.443	0.74379711
366.658	0.7449139
366.874	0.73370007
367.089	0.73943894
367.305	0.74434141
367.52	0.74977388
367.735	0.75091038
367.951	0.73868002
368.166	0.73934518
368.381	0.75422271
368.597	0.74411786
368.812	0.7491329
369.027	0.75145343
369.243	0.75672439
369.458	0.77672015
369.673	0.78200114
369.888	0.78144457
370.104	0.77672084
370.319	0.77991663
370.534	0.77591235
370.749	0.77732081
370.964	0.77309202
371.179	0.76794607
371.395	0.75998724
371.61	0.76917841
371.825	0.75804557
372.04	0.76186841
372.255	0.75249905
372.47	0.74475043
372.685	0.73670444
372.9	0.73414513
373.115	0.72576933
373.33	0.73018828
373.545	0.72796886
373.76	0.73368163
373.975	0.72936598
374.19	0.72715197
374.405	0.73021478
374.62	0.73966783
374.835	0.74447704
375.05	0.74468186
375.265	0.74265767
375.48	0.7435719
375.695	0.75621694
375.91	0.74898301
376.125	0.73418641
376.339	0.72242356
376.554	0.72014378
376.769	0.71949187
376.984	0.71847793
377.199	0.71743643
377.414	0.7149578
377.628	0.72252484
377.843	0.72752706
378.058	0.72711998
378.273	0.72848653
378.487	0.72797075
378.702	0.72773258
378.917	0.73154786
379.131	0.72588203
379.346	0.7179725
379.561	0.71247538
379.775	0.70560736
379.99	0.69787876
380.205	0.68722753
380.419	0.6792959
380.634	0.67024085
380.848	0.67368037
381.063	0.67264325
381.278	0.67815961
381.492	0.67441113
381.707	0.67885922
381.921	0.67622777
382.136	0.68385112
382.35	0.67722282
382.565	0.67257267
382.779	0.66897567
382.994	0.67004228
383.208	0.66353498
383.422	0.66685273
383.637	0.66135318
383.851	0.66297028
384.066	0.66419513
384.28	0.66365269
384.494	0.66158523
384.709	0.66232648
384.923	0.66068718
385.137	0.6545715
385.352	0.65100021
385.566	0.64929519
385.78	0.64543329
385.995	0.64197978
386.209	0.63594293
386.423	0.63533245
386.637	0.63458579
386.852	0.6296099
387.066	0.62494741
387.28	0.61825733
387.494	0.61943715
387.708	0.61862832
387.923	0.61364486
388.137	0.61470663
388.351	0.61391045
388.565	0.61448311
388.779	0.61505404
388.993	0.61635671
389.207	0.61429914
389.421	0.61369576
389.635	0.60747966
389.85	0.60485248
390.064	0.60100831
390.278	0.59874977
390.492	0.59527773
390.706	0.5933271
390.92	0.58921264
391.134	0.59074545
391.348	0.59317009
391.561	0.58973551
391.775	0.5855566
391.989	0.57988533
392.203	0.57848853
392.417	0.5773355
392.631	0.57705484
392.845	0.5709436
393.059	0.57180546
393.273	0.56890268
393.486	0.56419015
393.7	0.55795852
393.914	0.55728521
394.128	0.5516041
394.342	0.54811322
394.555	0.54224569
394.769	0.54039709
394.983	0.54023671
395.197	0.54111108
395.41	0.53787047
395.624	0.53647799
395.838	0.53396182
396.051	0.53593381
396.265	0.53228379
396.479	0.530281
396.692	0.52713333
396.906	0.52253154
397.12	0.51961273
397.333	0.51957061
397.547	0.51445928
397.76	0.5144601
397.974	0.51238386
398.187	0.51062971
398.401	0.51035074
398.614	0.5084507
398.828	0.5055064
399.041	0.5041554
399.255	0.50120224
399.468	0.49809853
399.682	0.49620906
399.895	0.49442897
400.109	0.49196389
400.322	0.4894446
400.536	0.48484647
400.749	0.48398515
400.962	0.48301116
401.176	0.4800269
401.389	0.47707863
401.602	0.47240656
401.816	0.47071381
402.029	0.470181
402.242	0.46655879
402.456	0.46397084
402.669	0.46108407
402.882	0.45734179
403.095	0.45752873
403.309	0.45500911
403.522	0.45417262
403.735	0.45186054
403.948	0.44984119
404.161	0.45068054
404.375	0.44977066
404.588	0.44849285
404.801	0.4469047
405.014	0.44385701
405.227	0.44362469
405.44	0.44228999
405.653	0.44011289
405.866	0.43694432
406.079	0.43463568
406.293	0.43230405
406.506	0.43040338
406.719	0.42813731
406.932	0.42599317
407.145	0.42290506
407.358	0.42372601
407.571	0.42095178
407.784	0.41991897
407.996	0.41828743
408.209	0.41542069
408.422	0.41289639
408.635	0.41163889
408.848	0.40943926
409.061	0.40722133
409.274	0.40458662
409.487	0.40261692
409.7	0.40154714
409.912	0.40062945
410.125	0.39877002
410.338	0.39650417
410.551	0.39514769
410.764	0.39384684
410.976	0.39251483
411.189	0.39093063
411.402	0.38889241
411.615	0.38781197
411.827	0.38672042
412.04	0.38549615
412.253	0.38371178
412.465	0.38183493
412.678	0.37979428
412.891	0.3790235
413.103	0.37611052
413.316	0.37417007
413.529	0.37317255
413.741	0.37198066
413.954	0.37077444
414.166	0.36980332
414.379	0.36770089
414.591	0.36698655
414.804	0.36534652
415.016	0.36398672
415.229	0.36257773
415.441	0.36097446
415.654	0.36010007
415.866	0.35955778
416.079	0.35873994
416.291	0.35743512
416.504	0.35670859
416.716	0.35562916
416.928	0.35478888
417.141	0.35275103
417.353	0.35122637
417.566	0.34913092
417.778	0.34799842
417.99	0.34536895
418.203	0.3433117
418.415	0.34171907
418.627	0.34110722
418.839	0.3398745
419.052	0.33941506
419.264	0.3383061
419.476	0.33760119
419.688	0.33677096
419.901	0.33562494
420.113	0.33409808
420.325	0.33247038
420.537	0.33090467
420.749	0.32983066
420.961	0.32885001
421.174	0.3275248
421.386	0.32597662
421.598	0.32479331
421.81	0.32384538
422.022	0.32243874
422.234	0.3212875
422.446	0.31998248
422.658	0.31901994
422.87	0.31812528
423.082	0.31706517
423.294	0.31606025
423.506	0.31513583
423.718	0.31418253
423.93	0.31281179
424.142	0.31148841
424.354	0.31052364
424.566	0.30921321
424.778	0.30793944
424.99	0.30698969
425.202	0.30539631
425.414	0.30473784
425.625	0.304179
425.837	0.30268008
426.049	0.30230502
426.261	0.30132803
426.473	0.29999548
426.684	0.29937992
426.896	0.29862413
427.108	0.29757387
427.32	0.29723415
427.531	0.29571852
427.743	0.29490076
427.955	0.29456155
428.167	0.29373511
428.378	0.2927157
428.59	0.29169937
428.802	0.29064519
429.013	0.28974228
429.225	0.28869244
429.436	0.28777117
429.648	0.28697324
429.86	0.28609783
430.071	0.28545822
430.283	0.28463573
430.494	0.28374941
430.706	0.28296274
430.917	0.28192967
431.129	0.28094661
431.34	0.2800134
431.552	0.27918515
431.763	0.27818889
431.975	0.27776307
432.186	0.27684693
432.398	0.27592104
432.609	0.27461133
432.821	0.27396888
433.032	0.27311029
433.243	0.2724775
433.455	0.27135293
433.666	0.27083366
433.877	0.27038492
434.089	0.26982191
434.3	0.26882528
434.511	0.26802186
434.723	0.26720959
434.934	0.26644727
435.145	0.26528745
435.356	0.26445684
435.568	0.26372387
435.779	0.26310542
435.99	0.26214361
436.201	0.26137479
436.412	0.26059665
436.624	0.26026154
436.835	0.25980404
437.046	0.25946935
437.257	0.25858064
437.468	0.25824081
437.679	0.2577412
437.89	0.25722004
438.101	0.25645887
438.312	0.25565215
438.523	0.25478275
438.734	0.25419167
438.945	0.25355417
439.156	0.25281662
439.367	0.25230262
439.578	0.25204378
439.789	0.25110887
440	0.2506768
440.211	0.25007646
440.422	0.24952271
440.633	0.24892783
440.844	0.24808481
441.055	0.24713531
441.266	0.24679669
441.477	0.24600109
441.687	0.24559057
441.898	0.24484911
442.109	0.24408999
442.32	0.24353743
442.531	0.24276894
442.741	0.24182533
442.952	0.241254
443.163	0.24060122
443.374	0.2398199
443.584	0.23924952
443.795	0.23878914
444.006	0.2384375
444.216	0.23801881
444.427	0.23742804
444.638	0.23690734
444.848	0.23649945
445.059	0.23589282
445.27	0.2352625
445.48	0.23455161
445.691	0.23412305
445.901	0.23346102
446.112	0.23284084
446.323	0.23226637
446.533	0.23176462
446.744	0.23110255
446.954	0.2305148
447.165	0.22999491
447.375	0.22978873
447.586	0.22947108
447.796	0.22900132
448.006	0.22855519
448.217	0.22840427
448.427	0.22796055
448.638	0.2274037
448.848	0.22657874
449.058	0.22602335
449.269	0.22550004
449.479	0.22491655
449.689	0.22426572
449.9	0.22396946
450.11	0.2234303
450.32	0.22329038
450.531	0.22260596
450.741	0.22198728
450.951	0.22177854
451.161	0.2211923
451.372	0.22048464
451.582	0.22030734
451.792	0.21947344
452.002	0.21914556
452.212	0.21882547
452.422	0.21817903
452.633	0.2177516
452.843	0.21728691
453.053	0.21641696
453.263	0.2162185
453.473	0.21565941
453.683	0.21526012
453.893	0.21477846
454.103	0.21440569
454.313	0.21398426
454.523	0.21376576
454.733	0.21320865
454.943	0.21294258
455.153	0.21254381
455.363	0.21213782
455.573	0.21164425
455.783	0.21148913
455.993	0.21096836
456.203	0.21075521
456.413	0.21036259
456.623	0.20978943
456.833	0.20957659
457.042	0.20920818
457.252	0.20882244
457.462	0.2083459
457.672	0.20776373
457.882	0.20733396
458.091	0.20695988
458.301	0.20635425
458.511	0.20610583
458.721	0.20562623
458.931	0.20557672
459.14	0.20529061
459.35	0.2050529
459.56	0.20483606
459.769	0.20463767
459.979	0.20411447
460.189	0.20385622
460.398	0.20342499
460.608	0.203224
460.817	0.20284714
461.027	0.20256561
461.237	0.20239661
461.446	0.20230032
461.656	0.20211106
461.865	0.20181956
462.075	0.20149719
462.284	0.2013317
462.494	0.20107622
462.703	0.20048188
462.913	0.20027365
463.122	0.20000246
463.332	0.19976548
463.541	0.19962155
463.751	0.19917121
463.96	0.19887823
464.169	0.19874166
464.379	0.1984706
464.588	0.19827959
464.797	0.19794757
465.007	0.19769031
465.216	0.19754001
465.425	0.19729921
465.635	0.19705766
465.844	0.1968566
466.053	0.19649
466.263	0.19631172
466.472	0.19606873
466.681	0.19595535
466.89	0.195806
467.099	0.19571558
467.309	0.19549044
467.518	0.19535821
467.727	0.19513845
467.936	0.19493485
468.145	0.19455574
468.354	0.19447545
468.563	0.19431849
468.772	0.19417313
468.982	0.19387294
469.191	0.19374015
469.4	0.19345825
469.609	0.193478
469.818	0.1931934
470.027	0.1930342
470.236	0.19264269
470.445	0.1925267
470.654	0.19217636
470.863	0.19205096
471.072	0.19189158
471.28	0.19165973
471.489	0.19141661
471.698	0.19134538
471.907	0.19128915
472.116	0.19138858
472.325	0.19124249
472.534	0.19104341
472.743	0.19092988
472.951	0.19085325
473.16	0.19073756
473.369	0.19054661
473.578	0.19030004
473.786	0.19026471
473.995	0.19004462
474.204	0.18994034
474.413	0.18975961
474.621	0.18967104
474.83	0.18958292
475.039	0.18948475
475.247	0.18930236
475.456	0.1893435
475.665	0.1891718
475.873	0.18912202
476.082	0.1889697
476.291	0.18886225
476.499	0.18876325
476.708	0.18865177
476.916	0.18846189
477.125	0.18843382
477.333	0.18828766
477.542	0.18821887
477.75	0.18809338
477.959	0.18802169
478.167	0.1879931
478.376	0.18794113
478.584	0.1878737
478.793	0.1879086
479.001	0.18790911
479.209	0.18792499
479.418	0.18793444
479.626	0.18785233
479.834	0.18779574
480.043	0.187859
480.251	0.18783136
480.459	0.18782973
480.668	0.18777617
480.876	0.18782169
481.084	0.18782272
481.293	0.18783579
481.501	0.18774735
481.709	0.18772188
481.917	0.18769079
482.125	0.18766891
482.334	0.18760655
482.542	0.18764276
482.75	0.18770632
482.958	0.18774648
483.166	0.18775729
483.374	0.18773284
483.583	0.18779311
483.791	0.18777226
483.999	0.18772198
484.207	0.18770383
484.415	0.1877427
484.623	0.18775196
484.831	0.18774011
485.039	0.18775151
485.247	0.18775321
485.455	0.18783264
485.663	0.18782433
485.871	0.18789158
486.079	0.18784882
486.287	0.18792021
486.495	0.18794305
486.702	0.18796965
486.91	0.18794782
487.118	0.18799226
487.326	0.18805718
487.534	0.18817942
487.742	0.18826195
487.95	0.18825299
488.157	0.18840904
488.365	0.18854825
488.573	0.18866545
488.781	0.18873186
488.988	0.18886363
489.196	0.18893845
489.404	0.18913541
489.612	0.18915566
489.819	0.1891845
490.027	0.18930876
490.235	0.18936668
490.442	0.18953325
490.65	0.18967637
490.857	0.1897943
491.065	0.19000102
491.273	0.19017311
491.48	0.19027685
491.688	0.19043783
491.895	0.1905514
492.103	0.19064757
492.31	0.19078243
492.518	0.19088933
492.725	0.1910199
492.933	0.19112694
493.14	0.19125256
493.348	0.19134917
493.555	0.19154624
493.763	0.19166014
493.97	0.19180122
494.177	0.19194663
494.385	0.19199874
494.592	0.19211053
494.8	0.19227378
495.007	0.19240246
495.214	0.19256391
495.422	0.19272292
495.629	0.19285845
495.836	0.19305576
496.043	0.19322158
496.251	0.1933383
496.458	0.19352336
496.665	0.19370187
496.872	0.19387952
497.08	0.19412177
497.287	0.19431232
497.494	0.19447662
497.701	0.19467382
497.908	0.19481023
498.115	0.19494038
498.322	0.19503647
498.53	0.19516055
498.737	0.19536718
498.944	0.19552717
499.151	0.19570859
499.358	0.19600331
499.565	0.19616029
499.772	0.19644902
499.979	0.19671508
500.186	0.19694015
500.393	0.19721277
500.6	0.19741085
500.807	0.19752026
501.014	0.1978266
501.221	0.19802396
501.427	0.19822025
501.634	0.19842778
501.841	0.19863687
502.048	0.19883094
502.255	0.19902061
502.462	0.19920683
502.669	0.19944753
502.875	0.19965454
503.082	0.19987759
503.289	0.20012958
503.496	0.20035962
503.702	0.20064308
503.909	0.20087633
504.116	0.20113661
504.323	0.20140077
504.529	0.20171143
504.736	0.20201569
504.943	0.20228208
505.149	0.20255428
505.356	0.20277689
505.563	0.20303036
505.769	0.20329691
505.976	0.20353604
506.182	0.20375876
506.389	0.20405036
506.595	0.20434692
506.802	0.20465678
507.008	0.20489315
507.215	0.20517534
507.421	0.20548389
507.628	0.20577767
507.834	0.20606984
508.041	0.20632006
508.247	0.20659203
508.454	0.20690897
508.66	0.20716223
508.866	0.20741809
509.073	0.20766073
509.279	0.20793318
509.486	0.20824594
509.692	0.20852501
509.898	0.20883187
510.105	0.20921559
510.311	0.20955238
510.517	0.20991342
510.723	0.2102694
510.93	0.21053889
511.136	0.21092042
511.342	0.2111992
511.548	0.21148941
511.754	0.21179931
511.961	0.212081
512.167	0.21231466
512.373	0.21260376
512.579	0.21296635
512.785	0.21334625
512.991	0.21364922
513.197	0.21397899
513.404	0.21431424
513.61	0.21472691
513.816	0.21513458
514.022	0.21539981
514.228	0.21570435
514.434	0.21599807
514.64	0.21635789
514.846	0.21666978
515.052	0.21698214
515.258	0.21726633
515.464	0.21751727
515.669	0.21786287
515.875	0.21825212
516.081	0.21857708
516.287	0.21892682
516.493	0.21928517
516.699	0.21958366
516.905	0.2199929
517.111	0.22029019
517.316	0.22059849
517.522	0.22087782
517.728	0.2212651
517.934	0.22164731
518.139	0.22205497
518.345	0.22244471
518.551	0.22279156
518.757	0.22317107
518.962	0.22358792
519.168	0.22387434
519.374	0.22413346
519.579	0.22454261
519.785	0.22492555
519.991	0.22535188
520.196	0.22569953
520.402	0.22607018
520.607	0.22656447
520.813	0.227024
521.018	0.22735694
521.224	0.22766558
521.429	0.22805782
521.635	0.22838457
521.84	0.22868333
522.046	0.22898474
522.251	0.22928111
522.457	0.22962012
522.662	0.23009885
522.868	0.23046817
523.073	0.23089207
523.279	0.23132106
523.484	0.23171955
523.689	0.23214075
523.895	0.23259396
524.1	0.23291122
524.305	0.23332799
524.511	0.2337682
524.716	0.23418403
524.921	0.23461295
525.126	0.23503457
525.332	0.23543762
525.537	0.23587436
525.742	0.23626818
525.947	0.23668027
526.153	0.2370165
526.358	0.23744646
526.563	0.23777361
526.768	0.23817243
526.973	0.23858679
527.178	0.23899106
527.383	0.23938689
527.588	0.23978758
527.794	0.2401223
527.999	0.24056708
528.204	0.2409214
528.409	0.24129376
528.614	0.24165793
528.819	0.24197053
529.024	0.24242587
529.229	0.24285033
529.434	0.24327259
529.639	0.24365364
529.843	0.24406459
530.048	0.2444242
530.253	0.24485906
530.458	0.24529003
530.663	0.24560068
530.868	0.24601239
531.073	0.24640737
531.278	0.24675146
531.482	0.24718262
531.687	0.24759149
531.892	0.24797982
532.097	0.24839226
532.302	0.24881872
532.506	0.24924768
532.711	0.24963095
532.916	0.25006785
533.12	0.25052366
533.325	0.25088617
533.53	0.25137531
533.734	0.25168314
533.939	0.25212327
534.144	0.25261517
534.348	0.25297045
534.553	0.25337003
534.757	0.25378182
534.962	0.25417912
535.167	0.25465375
535.371	0.25503374
535.576	0.25545258
535.78	0.25593362
535.985	0.25632324
536.189	0.25672535
536.394	0.25714182
536.598	0.25753806
536.803	0.25794004
537.007	0.2583026
537.211	0.258698
537.416	0.25909173
537.62	0.25948321
537.825	0.25985056
538.029	0.26030952
538.233	0.26066568
538.438	0.26108668
538.642	0.2614635
538.846	0.26186265
539.05	0.26227727
539.255	0.26267196
539.459	0.26300044
539.663	0.26342754
539.867	0.26381211
540.072	0.26419964
540.276	0.26455417
540.48	0.26495468
540.684	0.2653591
540.888	0.26587407
541.092	0.2662928
541.297	0.26664863
541.501	0.26702975
541.705	0.26739132
541.909	0.26773896
542.113	0.26812587
542.317	0.26844847
542.521	0.26884826
542.725	0.26931036
542.929	0.26973145
543.133	0.27018297
543.337	0.2706095
543.541	0.27096852
543.745	0.27133183
543.949	0.27171462
544.153	0.27202278
544.357	0.27232131
544.56	0.27273189
544.764	0.27317151
544.968	0.27356074
545.172	0.27389584
545.376	0.27422089
545.58	0.27458657
545.783	0.27503858
545.987	0.27539651
546.191	0.27568737
546.395	0.27603538
546.598	0.27646422
546.802	0.27683279
547.006	0.27719098
547.21	0.27745895
547.413	0.27783073
547.617	0.2782839
547.821	0.2787012
548.024	0.27904482
548.228	0.27941595
548.431	0.27980007
548.635	0.28026909
548.839	0.28054385
549.042	0.28084271
549.246	0.28110736
549.449	0.28142642
549.653	0.28178221
549.856	0.28208089
550.06	0.28235998
550.263	0.28271209
550.467	0.28302339
550.67	0.28340855
550.874	0.28367379
551.077	0.28400132
551.28	0.2844073
551.484	0.28472378
551.687	0.28505283
551.891	0.28540136
552.094	0.28569346
552.297	0.28605745
552.501	0.28640806
552.704	0.28666099
552.907	0.28693355
553.11	0.28724637
553.314	0.28759765
553.517	0.28790409
553.72	0.28823655
553.923	0.28854866
554.127	0.2889176
554.33	0.2892095
554.533	0.28955547
554.736	0.28973402
554.939	0.29002802
555.142	0.29034341
555.345	0.29057592
555.549	0.29089037
555.752	0.29122055
555.955	0.29142661
556.158	0.29183017
556.361	0.29216625
556.564	0.29245741
556.767	0.29277076
556.97	0.29306905
557.173	0.29336367
557.376	0.29373892
557.579	0.29396953
557.782	0.29423061
557.984	0.2944531
558.187	0.29480775
558.39	0.29498949
558.593	0.29529795
558.796	0.29543952
558.999	0.29564711
559.202	0.29587441
559.404	0.29610743
559.607	0.2962954
559.81	0.29656513
560.013	0.2966653
560.216	0.29696061
560.418	0.29719547
560.621	0.29739096
560.824	0.29764147
561.026	0.29789994
561.229	0.29801686
561.432	0.29829701
561.634	0.29847031
561.837	0.29868094
562.04	0.29885947
562.242	0.29911809
562.445	0.29923582
562.647	0.29950224
562.85	0.29966254
563.053	0.29987623
563.255	0.30008858
563.458	0.3004298
563.66	0.30061728
563.863	0.30085834
564.065	0.30105127
564.268	0.30127757
564.47	0.30154638
564.672	0.30170914
564.875	0.30185083
565.077	0.30196392
565.28	0.30214978
565.482	0.30235802
565.684	0.30255524
565.887	0.30262232
566.089	0.30281733
566.291	0.30298961
566.494	0.30315232
566.696	0.30325658
566.898	0.30336983
567.1	0.30345108
567.303	0.30358991
567.505	0.30371773
567.707	0.30376091
567.909	0.30385554
568.111	0.30395734
568.314	0.30408897
568.516	0.30431368
568.718	0.30449075
568.92	0.30459834
569.122	0.30468185
569.324	0.30483306
569.526	0.30494626
569.728	0.30506125
569.93	0.30507803
570.132	0.30513044
570.334	0.30530036
570.536	0.30543795
570.738	0.30546941
570.94	0.30554236
571.142	0.30570366
571.344	0.3057765
571.546	0.30583626
571.748	0.3058308
571.95	0.30586819
572.152	0.30597636
572.354	0.30610302
572.555	0.30610582
572.757	0.30626521
572.959	0.306354
573.161	0.30642433
573.363	0.30647369
573.564	0.30664157
573.766	0.30667387
573.968	0.30679955
574.17	0.306726
574.371	0.30673063
574.573	0.30680112
574.775	0.30685377
574.976	0.30676553
575.178	0.30679919
575.38	0.3066861
575.581	0.30670422
575.783	0.3067964
575.985	0.30676494
576.186	0.30679651
576.388	0.30689349
576.589	0.30686577
576.791	0.30696695
576.992	0.30701219
577.194	0.30702969
577.395	0.30710291
577.597	0.30715098
577.798	0.30709549
578	0.30714205
578.201	0.30714681
578.402	0.30722104
578.604	0.30714424
578.805	0.30713338
579.007	0.30711093
579.208	0.30713822
579.409	0.30709498
579.611	0.3070134
579.812	0.30696517
580.013	0.30697509
580.215	0.30686577
580.416	0.3068021
580.617	0.3066814
580.818	0.30671103
581.019	0.30667443
581.221	0.30666516
581.422	0.30664598
581.623	0.30667548
581.824	0.30657289
582.025	0.3066051
582.226	0.30652185
582.428	0.30658736
582.629	0.30647049
582.83	0.30640963
583.031	0.30633769
583.232	0.30639216
583.433	0.30638232
583.634	0.30631229
583.835	0.306131
584.036	0.3060487
584.237	0.30596238
584.438	0.30587729
584.639	0.30573943
584.84	0.30566168
585.041	0.30556707
585.242	0.30551933
585.442	0.30545897
585.643	0.30542649
585.844	0.30534061
586.045	0.30529872
586.246	0.30511176
586.447	0.3050662
586.647	0.30495249
586.848	0.30485442
587.049	0.30472042
587.25	0.3045741
587.45	0.30440988
587.651	0.30435256
587.852	0.30424081
588.053	0.30426362
588.253	0.30425481
588.454	0.3041841
588.655	0.30413633
588.855	0.30409612
589.056	0.30400697
589.256	0.30394338
589.457	0.30380344
589.658	0.30358946
589.858	0.30347339
590.059	0.30335198
590.259	0.30327561
590.46	0.30316147
590.66	0.30302371
590.861	0.30292819
591.061	0.3028662
591.262	0.30278764
591.462	0.30273943
591.662	0.30260252
591.863	0.30249553
592.063	0.30240979
592.264	0.30233248
592.464	0.30223602
592.664	0.30213038
592.865	0.30206329
593.065	0.30190171
593.265	0.3018861
593.465	0.3017429
593.666	0.30162881
593.866	0.30148633
594.066	0.30138494
594.266	0.3011508
594.467	0.30104995
594.667	0.30083748
594.867	0.30079663
595.067	0.30059215
595.267	0.30047198
595.467	0.3003806
595.668	0.30032176
595.868	0.30025955
596.068	0.30016964
596.268	0.29993611
596.468	0.29988687
596.668	0.29984197
596.868	0.29969993
597.068	0.29955326
597.268	0.29943068
597.468	0.29925222
597.668	0.29912904
597.868	0.298947
598.068	0.29874618
598.268	0.29855937
598.467	0.29850998
598.667	0.29827977
598.867	0.29815515
599.067	0.29808304
599.267	0.29795437
599.467	0.29783165
599.667	0.29769985
599.866	0.29750773
600.066	0.29747684
600.266	0.29735968
600.466	0.29727179
600.665	0.29715517
600.865	0.29709044
601.065	0.29702616
601.264	0.29689234
601.464	0.29668431
601.664	0.29662679
601.863	0.2964324
602.063	0.29633554
602.263	0.29602565
602.462	0.2959016
602.662	0.2957797
602.861	0.29575488
603.061	0.29561355
603.26	0.29555148
603.46	0.29533524
603.659	0.29534505
603.859	0.2951443
604.058	0.29502167
604.258	0.29494438
604.457	0.29495864
604.657	0.29468464
604.856	0.29456003
605.056	0.29452766
605.255	0.29446615
605.454	0.29442345
605.654	0.29418968
605.853	0.29396795
606.052	0.29397289
606.252	0.29395118
606.451	0.2937873
606.65	0.29375624
606.849	0.29353249
607.049	0.29348876
607.248	0.2933695
607.447	0.29324491
607.646	0.29316308
607.845	0.29310948
608.045	0.2928754
608.244	0.29292016
608.443	0.29276605
608.642	0.29276627
608.841	0.29266054
609.04	0.29252933
609.239	0.29244091
609.438	0.29234194
609.637	0.29229083
609.836	0.29228295
610.035	0.2921246
610.234	0.29217344
610.433	0.29216089
610.632	0.29207225
610.831	0.29216691
611.03	0.29200275
611.229	0.2920662
611.428	0.29208377
611.627	0.29195956
611.826	0.29196261
612.025	0.29200505
612.224	0.29186626
612.422	0.2918996
612.621	0.29180644
612.82	0.29176914
613.019	0.29173569
613.218	0.29171084
613.416	0.29158177
613.615	0.29161071
613.814	0.29160046
614.012	0.29157172
614.211	0.29141145
614.41	0.2914388
614.608	0.29137578
614.807	0.29136583
615.006	0.29144738
615.204	0.29142132
615.403	0.29144891
615.602	0.29162047
615.8	0.29171577
615.999	0.29170976
616.197	0.29170037
616.396	0.29168083
616.594	0.29164144
616.793	0.29166431
616.991	0.29155654
617.19	0.29132381
617.388	0.29138459
617.586	0.29143683
617.785	0.29135424
617.983	0.2913832
618.182	0.29124305
618.38	0.29123828
618.578	0.29133935
618.777	0.29134689
618.975	0.29135495
619.173	0.29142334
619.372	0.29145848
619.57	0.29151143
619.768	0.2915832
619.966	0.29164075
620.165	0.29154963
620.363	0.29164439
620.561	0.29155973
620.759	0.2915992
620.957	0.29170875
621.155	0.29179506
621.354	0.29180062
621.552	0.29201205
621.75	0.29192751
621.948	0.29208687
622.146	0.29215455
622.344	0.29214973
622.542	0.29218305
622.74	0.29226783
622.938	0.29212921
623.136	0.29227997
623.334	0.29233553
623.532	0.29221929
623.73	0.29225978
623.928	0.29233628
624.126	0.29243431
624.324	0.29270586
624.522	0.29265313
624.719	0.29269278
624.917	0.29293705
625.115	0.29290525
625.313	0.2929943
625.511	0.29303662
625.708	0.29286027
625.906	0.29294951
626.104	0.29298517
626.302	0.29308878
626.499	0.29328057
626.697	0.29331828
626.895	0.29331862
627.093	0.29350352
627.29	0.29368294
627.488	0.29384094
627.686	0.29392548
627.883	0.29399949
628.081	0.29402667
628.278	0.29436465
628.476	0.2944523
628.673	0.29454988
628.871	0.29463913
629.068	0.29469752
629.266	0.29487338
629.463	0.29487151
629.661	0.29481461
629.858	0.29484766
630.056	0.29489675
630.253	0.29491446
630.451	0.29505218
630.648	0.29515016
630.845	0.29536628
631.043	0.29547881
631.24	0.29574904
631.438	0.29593222
631.635	0.29611567
631.832	0.29614928
632.029	0.29627356
632.227	0.29646734
632.424	0.29663354
632.621	0.29668602
632.818	0.2967256
633.016	0.29687339
633.213	0.29698442
633.41	0.29716585
633.607	0.29719919
633.804	0.29728935
634.001	0.29737423
634.199	0.29761982
634.396	0.29776506
634.593	0.29787835
634.79	0.29799045
634.987	0.29822605
635.184	0.29838046
635.381	0.29861322
635.578	0.29879779
635.775	0.29893323
635.972	0.29911572
636.169	0.29921468
636.366	0.29923803
636.563	0.2993472
636.76	0.29936968
636.957	0.29945129
637.153	0.2994316
637.35	0.29962653
637.547	0.29976055
637.744	0.29991607
637.941	0.30005675
638.138	0.3003002
638.334	0.30032698
638.531	0.30060305
638.728	0.3007283
638.925	0.30100087
639.121	0.30115179
639.318	0.30130854
639.515	0.30137619
639.711	0.30163586
639.908	0.30168592
640.105	0.30179204
640.301	0.30180718
640.498	0.30194657
640.695	0.30215058
640.891	0.30229314
641.088	0.30234395
641.284	0.30254916
641.481	0.30268674
641.677	0.30276478
641.874	0.30286782
642.07	0.3029955
642.267	0.30326345
642.463	0.30346845
642.66	0.30370242
642.856	0.3038006
643.053	0.30389082
643.249	0.3041063
643.445	0.3041693
643.642	0.30424203
643.838	0.30438087
644.034	0.30446221
644.231	0.30461216
644.427	0.30488072
644.623	0.30502012
644.82	0.30528
645.016	0.30541691
645.212	0.30546033
645.408	0.30559484
645.604	0.30589189
645.801	0.30603235
645.997	0.30618445
646.193	0.30620121
646.389	0.30644278
646.585	0.30663077
646.781	0.30683102
646.977	0.30692444
647.173	0.30705692
647.37	0.30714866
647.566	0.30740486
647.762	0.30747114
647.958	0.30772502
648.154	0.30780491
648.35	0.30797015
648.546	0.30812786
648.742	0.30845444
648.937	0.30843936
649.133	0.3087144
649.329	0.30895533
649.525	0.3091347
649.721	0.30929738
649.917	0.30959082
650.113	0.30956332
650.309	0.30989514
650.504	0.30986733
650.7	0.30983856
650.896	0.30998926
651.092	0.31002645
651.287	0.31001307
651.483	0.31033401
651.679	0.31039179
651.875	0.31070613
652.07	0.31082819
652.266	0.31100721
652.462	0.31122199
652.657	0.31141982
652.853	0.31146146
653.048	0.31157064
653.244	0.31153659
653.44	0.31168565
653.635	0.31168035
653.831	0.31183157
654.026	0.31201927
654.222	0.31215588
654.417	0.31242648
654.613	0.31260813
654.808	0.31277855
655.004	0.31306807
655.199	0.31317667
655.394	0.31319998
655.59	0.31340888
655.785	0.31340624
655.98	0.31353922
656.176	0.31360627
656.371	0.31373307
656.566	0.31392285
656.762	0.31400971
656.957	0.3140729
657.152	0.31421424
657.348	0.31437565
657.543	0.31454414
657.738	0.31471875
657.933	0.31475238
658.128	0.31494784
658.324	0.31499556
658.519	0.31516029
658.714	0.3153117
658.909	0.31539283
659.104	0.31549638
659.299	0.31563365
659.494	0.31572387
659.689	0.31591743
659.884	0.31601266
660.079	0.31600757
660.274	0.31616676
660.469	0.31629021
660.664	0.31647635
660.859	0.31659518
661.054	0.31669241
661.249	0.31678774
661.444	0.31696713
661.639	0.31697967
661.834	0.3169315
662.029	0.3169898
662.224	0.3170196
662.418	0.31715956
662.613	0.31726775
662.808	0.31732994
663.003	0.31747802
663.198	0.31766897
663.392	0.31769683
663.587	0.31799752
663.782	0.31801121
663.977	0.31808629
664.171	0.31819504
664.366	0.31833112
664.561	0.31843486
664.755	0.31861487
664.95	0.31855349
665.144	0.31864297
665.339	0.31880807
665.534	0.31892414
665.728	0.31904695
665.923	0.31915124
666.117	0.31923435
666.312	0.31935488
666.506	0.31958647
666.701	0.31961569
666.895	0.31965622
667.09	0.31968923
667.284	0.31978673
667.479	0.31984997
667.673	0.31987395
667.867	0.31990301
668.062	0.31994692
668.256	0.32006723
668.45	0.32021754
668.645	0.32025684
668.839	0.32034384
669.033	0.32048253
669.228	0.32050658
669.422	0.32069292
669.616	0.32076526
669.81	0.32084892
670.004	0.32083983
670.199	0.32092039
670.393	0.32091437
670.587	0.32095123
670.781	0.32095654
670.975	0.32107335
671.169	0.3210588
671.363	0.32116839
671.558	0.32117328
671.752	0.3213482
671.946	0.32153736
672.14	0.32160036
672.334	0.32155857
672.528	0.32169335
672.722	0.32162487
672.916	0.32167522
673.11	0.32155264
673.304	0.32157927
673.497	0.32153598
673.691	0.32166685
673.885	0.32155645
674.079	0.32171966
674.273	0.32170865
674.467	0.32184769
674.661	0.32180275
674.854	0.32189231
675.048	0.32192081
675.242	0.32209342
675.436	0.32212064
675.629	0.32220048
675.823	0.32219047
676.017	0.32227945
676.211	0.32229357
676.404	0.32230437
676.598	0.3222912
676.792	0.32237023
676.985	0.32248815
677.179	0.32256716
677.372	0.32257008
677.566	0.32276544
677.76	0.32285638
677.953	0.32294007
678.147	0.32301134
678.34	0.32309133
678.534	0.32309884
678.727	0.32326741
678.921	0.32329335
679.114	0.32318554
679.307	0.32322611
679.501	0.32323764
679.694	0.32322328
679.888	0.32329229
680.081	0.3232547
680.274	0.32316239
680.468	0.32333264
680.661	0.32334823
680.854	0.32345543
681.048	0.32350531
681.241	0.32355026
681.434	0.32353756
681.627	0.32367052
681.821	0.32366594
682.014	0.32379144
682.207	0.32370134
682.4	0.3236566
682.593	0.32368709
682.786	0.32364744
682.98	0.32355658
683.173	0.32357019
683.366	0.32349913
683.559	0.32348718
683.752	0.32357728
683.945	0.32361709
684.138	0.32373154
684.331	0.32368137
684.524	0.32374937
684.717	0.32371079
684.91	0.32383912
685.103	0.32382052
685.296	0.32382057
685.489	0.32381674
685.682	0.32384267
685.874	0.32384583
686.067	0.3238593
686.26	0.32376989
686.453	0.32372321
686.646	0.32363932
686.839	0.32361129
687.031	0.32363963
687.224	0.32351326
687.417	0.32360482
687.61	0.32363083
687.802	0.32364714
687.995	0.32376522
688.188	0.32378253
688.38	0.32376236
688.573	0.32380787
688.766	0.32365814
688.958	0.32352741
689.151	0.32345634
689.343	0.3233549
689.536	0.323296
689.729	0.32329624
689.921	0.32331158
690.114	0.32330328
690.306	0.32336997
690.499	0.3233945
690.691	0.32341441
690.884	0.32340873
691.076	0.32345254
691.268	0.323414
691.461	0.32334759
691.653	0.32331591
691.846	0.32328209
692.038	0.32320067
692.23	0.32309521
692.423	0.32303423
692.615	0.32295977
692.807	0.32296194
692.999	0.32296264
693.192	0.32289062
693.384	0.32290124
693.576	0.32280927
693.768	0.32279489
693.961	0.32272788
694.153	0.3227525
694.345	0.32263666
694.537	0.32264878
694.729	0.32259024
694.921	0.32265454
695.113	0.3226493
695.305	0.32266354
695.498	0.32262126
695.69	0.32268971
695.882	0.32259203
696.074	0.32258149
696.266	0.32249236
696.458	0.32236793
696.65	0.32238272
696.842	0.32229101
697.033	0.32219877
697.225	0.32216945
697.417	0.32218762
697.609	0.32219519
697.801	0.3221758
697.993	0.3221287
698.185	0.32209853
698.376	0.32211616
698.568	0.32215161
698.76	0.32208811
698.952	0.32208002
699.144	0.32205398
699.335	0.32199939
699.527	0.32196594
699.719	0.32186654
699.91	0.32186901
700.102	0.32178491
700.294	0.32176068
700.485	0.3218029
700.677	0.32171008
700.869	0.321702
701.06	0.32179912
701.252	0.32168619
701.443	0.32166693
701.635	0.32163319
701.826	0.32154632
702.018	0.32159868
702.209	0.32164611
702.401	0.32150009
702.592	0.32155283
702.784	0.32152283
702.975	0.32150078
703.166	0.32141117
703.358	0.32126797
703.549	0.32121986
703.741	0.32123501
703.932	0.32115701
704.123	0.32114539
704.315	0.32115153
704.506	0.32124338
704.697	0.3213388
704.888	0.32132753
705.08	0.32131168
705.271	0.32129046
705.462	0.32122634
705.653	0.32113095
705.844	0.32103252
706.035	0.32100822
706.227	0.32088317
706.418	0.32075003
706.609	0.32070136
706.8	0.32069648
706.991	0.32066193
707.182	0.32054287
707.373	0.32036209
707.564	0.32041046
707.755	0.32041327
707.946	0.3204197
708.137	0.32033003
708.328	0.32026191
708.519	0.32030259
708.71	0.32037197
708.901	0.3202222
709.092	0.32021098
709.283	0.32014705
709.473	0.32015325
709.664	0.32023126
709.855	0.3201759
710.046	0.32014125
710.237	0.32015312
710.427	0.32013931
710.618	0.32008622
710.809	0.32001249
711	0.31991762
711.19	0.31989155
711.381	0.319922
711.572	0.31993862
711.762	0.31991295
711.953	0.31987092
712.144	0.31984844
712.334	0.31982186
712.525	0.31988067
712.715	0.31983433
712.906	0.31982382
713.097	0.31975899
713.287	0.31978269
713.478	0.31981026
713.668	0.31987536
713.859	0.31981404
714.049	0.31977962
714.239	0.31975558
714.43	0.31980006
714.62	0.31980601
714.811	0.31975366
715.001	0.3197258
715.191	0.31973569
715.382	0.3197012
715.572	0.31972713
715.762	0.31967823
715.953	0.3196968
716.143	0.31971181
716.333	0.31958503
716.523	0.31949753
716.714	0.31951048
716.904	0.31941785
717.094	0.31952513
717.284	0.31943957
717.474	0.31948972
717.664	0.31957256
717.855	0.31961426
718.045	0.31961909
718.235	0.31967146
718.425	0.31963596
718.615	0.31964613
718.805	0.31969445
718.995	0.31972349
719.185	0.31977098
719.375	0.31978376
719.565	0.31984917
719.755	0.31980073
719.945	0.31984514
720.135	0.31983635
720.325	0.31981198
720.515	0.3198277
720.704	0.31989636
720.894	0.31983601
721.084	0.31981733
721.274	0.31989374
721.464	0.31988766
721.654	0.31991632
721.843	0.31995636
722.033	0.3199437
722.223	0.31997386
722.413	0.32008005
722.602	0.32003564
722.792	0.3200617
722.982	0.32014476
723.171	0.32017565
723.361	0.32020071
723.55	0.32028342
723.74	0.32025186
723.93	0.32020473
724.119	0.32022216
724.309	0.32017264
724.498	0.32015111
724.688	0.32013738
724.877	0.32010733
725.067	0.32009328
725.256	0.32019239
725.446	0.3201843
725.635	0.32015087
725.825	0.32009216
726.014	0.32003191
726.203	0.31996661
726.393	0.31993454
726.582	0.31984056
726.771	0.31983168
726.961	0.31979275
727.15	0.31970093
727.339	0.31963545
727.529	0.319615
727.718	0.31955551
727.907	0.31953073
728.096	0.31947331
728.286	0.31942986
728.475	0.31958093
728.664	0.3196029
728.853	0.31957071
729.042	0.31958643
729.231	0.31965936
729.42	0.31963205
729.609	0.31969177
729.799	0.31956879
729.988	0.31963631
730.177	0.31960786
730.366	0.31963549
730.555	0.31952671
730.744	0.31951974
730.933	0.31947275
731.122	0.31946976
731.31	0.31943329
731.499	0.31941583
731.688	0.319381
731.877	0.31935561
732.066	0.3193409
732.255	0.31931765
732.444	0.31931354
732.632	0.31926225
732.821	0.31928086
733.01	0.31932661
733.199	0.31933051
733.388	0.31928211
733.576	0.31922403
733.765	0.31924056
733.954	0.31919944
734.142	0.31916132
734.331	0.31913675
734.52	0.31917349
734.708	0.31917831
734.897	0.31919287
735.086	0.3191738
735.274	0.31919833
735.463	0.31923763
735.651	0.31916708
735.84	0.31914456
736.028	0.3191898
736.217	0.31926971
736.405	0.31924045
736.594	0.31926441
736.782	0.31928004
736.971	0.31925133
737.159	0.31918848
737.347	0.31911744
737.536	0.31904519
737.724	0.31905865
737.912	0.31899845
738.101	0.31892618
738.289	0.31904097
738.477	0.3191439
738.666	0.31917819
738.854	0.31919847
739.042	0.31921318
739.23	0.31924104
739.418	0.31927226
739.607	0.31922465
739.795	0.31921985
739.983	0.31931912
740.171	0.31934757
740.359	0.31936636
740.547	0.31938979
740.735	0.3195126
740.923	0.31961763
741.112	0.31967951
741.3	0.31969107
741.488	0.31969921
741.676	0.31985925
741.864	0.31992762
742.052	0.32000381
742.239	0.31991281
742.427	0.31987406
742.615	0.31984745
742.803	0.31993182
742.991	0.31982341
743.179	0.31987715
743.367	0.31983993
743.555	0.3199576
743.742	0.32002055
743.93	0.32009938
744.118	0.32009939
744.306	0.32019599
744.494	0.3202127
744.681	0.32026817
744.869	0.32031893
745.057	0.32035788
745.244	0.32036706
745.432	0.32042195
745.62	0.32040121
745.807	0.3204217
745.995	0.32039382
746.182	0.32041355
746.37	0.32043174
746.558	0.32044337
746.745	0.32040504
746.933	0.32048329
747.12	0.32049291
747.308	0.32063848
747.495	0.32067607
747.683	0.32075666
747.87	0.32082891
748.057	0.32096568
748.245	0.32098135
748.432	0.32109306
748.62	0.32106146
748.807	0.32106385
748.994	0.3210793
749.182	0.3210482
749.369	0.3210122
749.556	0.32102733
749.743	0.32104241
749.931	0.32105788
750.118	0.32116075
750.305	0.32116902
750.492	0.32122245
750.68	0.32128423
750.867	0.32129422
751.054	0.32127516
751.241	0.32126436
751.428	0.32120822
751.615	0.3211692
751.802	0.32119406
751.989	0.32118972
752.176	0.32129803
752.363	0.32145336
752.55	0.32153645
752.737	0.32155159
752.924	0.32162605
753.111	0.3217071
753.298	0.32186496
753.485	0.32188622
753.672	0.32185683
753.859	0.32195522
754.046	0.32203349
754.233	0.32209173
754.42	0.3221421
754.606	0.32210779
754.793	0.32215114
754.98	0.32216412
755.167	0.32213549
755.353	0.32219107
755.54	0.32232707
755.727	0.3224075
755.914	0.32248576
756.1	0.32252478
756.287	0.32259614
756.474	0.32268891
756.66	0.32283383
756.847	0.32291568
757.033	0.32295257
757.22	0.32305414
757.407	0.32322249
757.593	0.32335565
757.78	0.32339953
757.966	0.32345991
758.153	0.32347553
758.339	0.32355781
758.526	0.32352927
758.712	0.32346363
758.898	0.32345856
759.085	0.32345292
759.271	0.32340676
759.458	0.32341568
759.644	0.32346536
759.83	0.32353265
760.017	0.32369389
760.203	0.32378101
760.389	0.323869
760.576	0.32393782
760.762	0.32398043
760.948	0.32395611
761.134	0.32401348
761.32	0.32397679
761.507	0.32396098
761.693	0.3240542
761.879	0.32406557
762.065	0.32415478
762.251	0.32421976
762.437	0.32429225
762.623	0.3243546
762.809	0.32436176
762.995	0.32439275
763.181	0.32448455
763.367	0.32448911
763.553	0.32455467
763.739	0.32463417
763.925	0.32470049
764.111	0.32486169
764.297	0.32497757
764.483	0.32501819
764.669	0.32512594
764.855	0.32518173
765.041	0.32518314
765.227	0.32519293
765.412	0.32521664
765.598	0.32521426
765.784	0.32530041
765.97	0.32535825
766.156	0.32543125
766.341	0.32549638
766.527	0.32555386
766.713	0.32560442
766.898	0.32567834
767.084	0.32572187
767.27	0.32564991
767.455	0.32557062
767.641	0.32560986
767.827	0.32562947
768.012	0.32564344
768.198	0.32567364
768.383	0.3256608
768.569	0.3257955
768.754	0.32600708
768.94	0.32609492
769.125	0.32624337
769.311	0.32629878
769.496	0.32634806
769.682	0.32648013
769.867	0.32661316
770.052	0.32667464
770.238	0.32672285
770.423	0.32677197
770.608	0.32689366
770.794	0.32698041
770.979	0.32697965
771.164	0.32698836
771.35	0.32697092
771.535	0.32701295
771.72	0.32696579
771.905	0.32697311
772.09	0.32695849
772.276	0.32707727
772.461	0.32709439
772.646	0.3271716
772.831	0.32721083
773.016	0.32731157
773.201	0.32735851
773.386	0.32738486
773.571	0.32733558
773.756	0.32731355
773.941	0.32728046
774.126	0.32730591
774.311	0.32726411
774.496	0.32727911
774.681	0.32733317
774.866	0.32739673
775.051	0.32746665
775.236	0.32754626
775.421	0.32754354
775.606	0.32756327
775.791	0.3274916
775.976	0.32756348
776.16	0.32759034
776.345	0.32765584
776.53	0.32774229
776.715	0.32790184
776.899	0.32803975
777.084	0.32820481
777.269	0.32824231
777.454	0.32826684
777.638	0.32827876
777.823	0.32833974
778.008	0.32825679
778.192	0.32831638
778.377	0.32828722
778.561	0.32830501
778.746	0.3283296
778.931	0.32839772
779.115	0.32835839
779.3	0.32841542
779.484	0.32837838
779.669	0.32842716
779.853	0.32847497
780.037	0.32858039
780.222	0.3286513
780.406	0.32868484
780.591	0.32883895
780.775	0.32894294
780.959	0.32904779
781.144	0.32907754
781.328	0.32906668
781.512	0.32904187
781.697	0.32908371
781.881	0.32900838
782.065	0.32903444
782.249	0.32895972
782.434	0.32895353
782.618	0.3290521
782.802	0.32907249
782.986	0.32913992
783.17	0.32920959
783.354	0.32920272
783.539	0.32930123
783.723	0.32929481
783.907	0.32929941
784.091	0.32930671
784.275	0.32936277
784.459	0.32935959
784.643	0.32939551
784.827	0.32937114
785.011	0.32937543
785.195	0.32938976
785.379	0.32947137
785.563	0.32938897
785.747	0.32942364
785.93	0.32956694
786.114	0.32957507
786.298	0.32969647
786.482	0.32968509
786.666	0.32972894
786.85	0.32981764
787.033	0.32988156
787.217	0.32972489
787.401	0.32977247
787.585	0.32975751
787.768	0.32981285
787.952	0.32977097
788.136	0.3298046
788.319	0.3297616
788.503	0.3297383
788.687	0.32973407
788.87	0.32975749
789.054	0.32971856
789.237	0.32968235
789.421	0.32963451
789.605	0.32956097
789.788	0.32954913
789.972	0.32950117
790.155	0.32937048
790.338	0.3293633
790.522	0.32934428
790.705	0.32927991
790.889	0.32926693
791.072	0.3293616
791.256	0.32942259
791.439	0.32952376
791.622	0.32953761
791.806	0.32972411
791.989	0.32978608
792.172	0.32990168
792.355	0.32999527
792.539	0.33005231
792.722	0.33010423
792.905	0.33014994
793.088	0.33001392
793.271	0.32999387
793.455	0.32996812
793.638	0.32987472
793.821	0.32979718
794.004	0.32974082
794.187	0.32980591
794.37	0.3299789
794.553	0.33009983
794.736	0.33017976
794.919	0.33024963
795.102	0.33034708
795.285	0.3304748
795.468	0.33039277
795.651	0.33028489
795.834	0.33027917
796.017	0.3302011
796.2	0.33013856
796.383	0.33013168
796.566	0.33006784
796.749	0.33004091
796.931	0.32997225
797.114	0.32987199
797.297	0.32979583
797.48	0.32975676
797.663	0.32968956
797.845	0.32967373
798.028	0.32966416
798.211	0.3296386
798.393	0.32955577
798.576	0.32963655
798.759	0.32952918
798.941	0.32945213
799.124	0.32938727
799.307	0.32941909
799.489	0.32953664
799.672	0.32962495
799.854	0.32960306
800.037	0.3297234
800.219	0.32979964
800.402	0.32986551
800.584	0.32981131
800.767	0.32968396
800.949	0.32972066
801.132	0.3297599
801.314	0.32979746
801.496	0.32976209
801.679	0.32970343
801.861	0.32970594
802.043	0.32972237
802.226	0.3297039
802.408	0.32970122
802.59	0.32967424
802.772	0.32974136
802.955	0.32977134
803.137	0.32976579
803.319	0.32974584
803.501	0.32964682
803.684	0.32959581
803.866	0.32951579
804.048	0.32941408
804.23	0.32940999
804.412	0.32945817
804.594	0.32941674
804.776	0.32947764
804.958	0.32950243
805.14	0.32951995
805.322	0.32957302
805.504	0.32954844
805.686	0.32952077
805.868	0.3296397
806.05	0.32955599
806.232	0.32947354
806.414	0.32952766
806.596	0.32953137
806.778	0.3294847
806.96	0.32944189
807.141	0.32933374
807.323	0.32936872
807.505	0.32931258
807.687	0.32918364
807.869	0.3290383
808.05	0.32895989
808.232	0.32893882
808.414	0.32892599
808.595	0.32889984
808.777	0.32889432
808.959	0.32896007
809.14	0.32909664
809.322	0.32913012
809.504	0.32895625
809.685	0.32894689
809.867	0.3288865
810.048	0.32887371
810.23	0.32879124
810.411	0.32869555
810.593	0.32863967
810.774	0.3286908
810.956	0.32859913
811.137	0.32849192
811.319	0.32831436
811.5	0.32816567
811.681	0.32809891
811.863	0.32801546
812.044	0.32794948
812.225	0.32797007
812.407	0.32793451
812.588	0.32802415
812.769	0.32809424
812.951	0.32800157
813.132	0.32802951
813.313	0.32808926
813.494	0.32793134
813.675	0.32793831
813.857	0.32786783
814.038	0.32781072
814.219	0.32775458
814.4	0.32754204
814.581	0.32745689
814.762	0.32741782
814.943	0.32737037
815.124	0.3272966
815.305	0.32721031
815.486	0.32719351
815.667	0.32726281
815.848	0.32723317
816.029	0.32720544
816.21	0.32717411
816.391	0.32719226
816.572	0.32715635
816.753	0.32710333
816.934	0.32694231
817.115	0.32682895
817.295	0.32677758
817.476	0.32653654
817.657	0.32631958
817.838	0.32618665
818.019	0.32599859
818.199	0.32599084
818.38	0.32586822
818.561	0.32571077
818.741	0.32579056
818.922	0.32578699
819.103	0.32576715
819.283	0.32581389
819.464	0.32583426
819.645	0.32585038
819.825	0.32585494
820.006	0.32576214
820.186	0.32575623
820.367	0.32577645
820.547	0.32575761
820.728	0.32564669
820.908	0.32562765
821.089	0.32568077
821.269	0.32565295
821.45	0.32563356
821.63	0.32548334
821.81	0.32546361
821.991	0.32545884
822.171	0.32530977
822.351	0.32526689
822.532	0.32520549
822.712	0.32507581
822.892	0.32498136
823.072	0.32484303
823.253	0.32478993
823.433	0.32481037
823.613	0.32470378
823.793	0.32468329
823.973	0.32461015
824.154	0.32459252
824.334	0.32452369
824.514	0.3244117
824.694	0.32436226
824.874	0.3241607
825.054	0.32403689
825.234	0.32390286
825.414	0.32366237
825.594	0.32350879
825.774	0.32332137
825.954	0.32316646
826.134	0.32307422
826.314	0.32289521
826.494	0.32290289
826.674	0.32281996
826.854	0.32277897
827.033	0.32270109
827.213	0.32268148
827.393	0.32266397
827.573	0.32273888
827.753	0.32263476
827.932	0.32272877
828.112	0.32270913
828.292	0.32271817
828.472	0.32245098
828.651	0.3223854
828.831	0.32211828
829.011	0.32199881
829.19	0.32180997
829.37	0.32177559
829.549	0.32168388
829.729	0.32166481
829.909	0.32151692
830.088	0.3214952
830.268	0.32128231
830.447	0.32114645
830.627	0.32093866
830.806	0.32077186
830.986	0.32057859
831.165	0.32053953
831.344	0.32038623
831.524	0.32040264
831.703	0.32036328
831.883	0.320176
832.062	0.32016753
832.241	0.32017182
832.421	0.32000944
832.6	0.3199511
832.779	0.31987002
832.958	0.31977065
833.138	0.31966749
833.317	0.31961962
833.496	0.31948953
833.675	0.31938818
833.854	0.31936262
834.034	0.31921274
834.213	0.31906946
834.392	0.31904357
834.571	0.31872443
834.75	0.3186869
834.929	0.31857876
835.108	0.31843719
835.287	0.31842424
835.466	0.3182894
835.645	0.31815207
835.824	0.3180076
836.003	0.31785554
836.182	0.31763581
836.361	0.31752455
836.54	0.31728696
836.719	0.31727475
836.897	0.31709934
837.076	0.31705916
837.255	0.31686049
837.434	0.31692816
837.613	0.31677456
837.791	0.31668449
837.97	0.31651823
838.149	0.31647648
838.328	0.31629856
838.506	0.31621807
838.685	0.31593824
838.864	0.31587266
839.042	0.31571365
839.221	0.31565221
839.4	0.31552213
839.578	0.31539013
839.757	0.31521246
839.935	0.31522306
840.114	0.31510605
840.292	0.315037
840.471	0.31493514
840.649	0.31487861
840.828	0.31488486
841.006	0.31483955
841.185	0.31465725
841.363	0.3146263
841.541	0.3145337
841.72	0.31449552
841.898	0.31431214
842.076	0.31412646
842.255	0.31401231
842.433	0.31389782
842.611	0.31361511
842.789	0.31339602
842.968	0.31324048
843.146	0.31311448
843.324	0.31306041
843.502	0.31297247
843.68	0.31298305
843.859	0.31293211
844.037	0.31290264
844.215	0.31263543
844.393	0.31248777
844.571	0.31234601
844.749	0.31209853
844.927	0.31173953
845.105	0.31143319
845.283	0.31129362
845.461	0.31124254
845.639	0.31112513
845.817	0.31099207
845.995	0.31112877
846.173	0.31124883
846.351	0.31131721
846.529	0.31121923
846.706	0.31101436
846.884	0.31087357
847.062	0.3107232
847.24	0.31034643
847.418	0.31002186
847.595	0.30976054
847.773	0.30954323
847.951	0.30938705
848.129	0.30918448
848.306	0.30903072
848.484	0.3088605
848.662	0.30880284
848.839	0.3087989
849.017	0.30874528
849.194	0.30866253
849.372	0.30861625
849.549	0.30845133
849.727	0.3083235
849.905	0.30800103
850.082	0.30764426
850.26	0.30740758
850.437	0.30725461
850.614	0.3071231
850.792	0.30700386
850.969	0.30711318
851.147	0.30720895
851.324	0.30724939
851.501	0.30714371
851.679	0.30699235
851.856	0.30682904
852.033	0.30674171
852.211	0.30644914
852.388	0.30610949
852.565	0.30593572
852.742	0.30585031
852.92	0.30567641
853.097	0.30549189
853.274	0.30537068
853.451	0.30510772
853.628	0.30496523
853.805	0.30479579
853.982	0.30460048
854.159	0.3045192
854.336	0.30436555
854.514	0.30413273
854.691	0.30394641
854.868	0.30391432
855.045	0.30362993
855.221	0.30353717
855.398	0.3033625
855.575	0.30324019
855.752	0.3030067
855.929	0.30298416
856.106	0.30270259
856.283	0.30273968
856.46	0.30261313
856.637	0.30250243
856.813	0.30241411
856.99	0.30233164
857.167	0.30226764
857.344	0.30223592
857.52	0.30203194
857.697	0.30176811
857.874	0.30157641
858.05	0.30142208
858.227	0.30135473
858.404	0.30123771
858.58	0.30119926
858.757	0.30112465
858.933	0.3011457
859.11	0.30106945
859.287	0.30083735
859.463	0.30053604
859.64	0.30031875
859.816	0.29991768
859.993	0.29967948
860.169	0.29942885
860.345	0.29912832
860.522	0.29901735
860.698	0.2988796
860.875	0.2986475
861.051	0.29857064
861.227	0.29834375
861.404	0.2982189
861.58	0.29819085
861.756	0.29795873
861.932	0.297972
862.109	0.29773455
862.285	0.29769183
862.461	0.29766449
862.637	0.29741297
862.813	0.29722276
862.99	0.29704247
863.166	0.29677645
863.342	0.29692753
863.518	0.29674333
863.694	0.29669001
863.87	0.29661327
864.046	0.29648842
864.222	0.29654979
864.398	0.29659309
864.574	0.29617194
864.75	0.29605978
864.926	0.29584012
865.102	0.29580422
865.278	0.29558203
865.454	0.29530186
865.63	0.29483551
865.805	0.2946047
865.981	0.29431711
866.157	0.29405275
866.333	0.29362355
866.509	0.29361369
866.684	0.29362157
866.86	0.29376416
867.036	0.29395704
867.212	0.29393902
867.387	0.29390884
867.563	0.29398602
867.739	0.29378004
867.914	0.29347029
868.09	0.29313978
868.265	0.29278431
868.441	0.29264968
868.617	0.29239224
868.792	0.2920352
868.968	0.29180151
869.143	0.29178453
869.319	0.29181806
869.494	0.29169595
869.67	0.29154236
869.845	0.29140976
870.02	0.29134467
870.196	0.29128465
870.371	0.29114943
870.546	0.29082894
870.722	0.29073563
870.897	0.29044747
871.072	0.29038267
871.248	0.2902094
871.423	0.28983806
871.598	0.28956578
871.773	0.2893235
871.949	0.28910743
872.124	0.28911811
872.299	0.28888238
872.474	0.28889091
872.649	0.28886561
872.824	0.28873399
872.999	0.28857637
873.174	0.28845846
873.349	0.28819644
873.524	0.2879669
873.699	0.28777898
873.874	0.28760985
874.049	0.28739411
874.224	0.28732641
874.399	0.28708812
874.574	0.28714537
874.749	0.28710908
874.924	0.28676728
875.099	0.28658117
875.274	0.28645421
875.449	0.28639158
875.623	0.28625451
875.798	0.28581893
875.973	0.28565836
876.148	0.28556887
876.322	0.28550076
876.497	0.28528725
876.672	0.28502246
876.846	0.28485283
877.021	0.28472876
877.196	0.28420362
877.37	0.28390609
877.545	0.28371836
877.72	0.28350479
877.894	0.28332781
878.069	0.28297624
878.243	0.28253508
878.418	0.28251499
878.592	0.28230797
878.767	0.28188861
878.941	0.28167209
879.116	0.28139714
879.29	0.28132013
879.464	0.2812547
879.639	0.28108761
879.813	0.28110381
879.987	0.2810953
880.162	0.28093586
880.336	0.28083915
880.51	0.28081892
880.685	0.28077882
880.859	0.28071556
881.033	0.28043855
881.207	0.28024229
881.381	0.28014324
881.556	0.27993102
881.73	0.27956666
881.904	0.27954127
882.078	0.27926884
882.252	0.27916711
882.426	0.27887419
882.6	0.27872153
882.774	0.27859503
882.948	0.2785058
883.122	0.27808307
883.296	0.27792711
883.47	0.2777752
883.644	0.27791727
883.818	0.27754813
883.992	0.27736306
884.166	0.27718639
884.34	0.27722807
884.514	0.27735449
884.687	0.27732937
884.861	0.27702346
885.035	0.27719784
885.209	0.27728037
885.382	0.27739943
885.556	0.2773481
885.73	0.27708506
885.904	0.27703408
886.077	0.27694731
886.251	0.276727
886.425	0.27650945
886.598	0.27623694
886.772	0.27579836
886.945	0.27546233
887.119	0.27493926
887.292	0.2747708
887.466	0.27462748
887.64	0.27431146
887.813	0.27415399
887.986	0.27420353
888.16	0.27432729
888.333	0.27422766
888.507	0.27406477
888.68	0.27381345
888.854	0.27373963
889.027	0.27345889
889.2	0.2732581
889.374	0.2728962
889.547	0.27287425
889.72	0.27284604
889.893	0.27270893
890.067	0.27251175
890.24	0.27231791
890.413	0.27210255
890.586	0.27184103
890.759	0.27180245
890.933	0.27156518
891.106	0.27149859
891.279	0.27144661
891.452	0.27147113
891.625	0.27135291
891.798	0.27131382
891.971	0.27101155
892.144	0.2707906
892.317	0.27061002
892.49	0.27027013
892.663	0.27006284
892.836	0.26983213
893.009	0.26962683
893.182	0.26922443
893.355	0.26907964
893.527	0.26884763
893.7	0.26889745
893.873	0.26860368
894.046	0.26832959
894.219	0.26826247
894.391	0.26824139
894.564	0.2680663
894.737	0.26793698
894.91	0.26764915
895.082	0.26739213
895.255	0.26736185
895.428	0.26706795
895.6	0.26685558
895.773	0.26666926
895.945	0.26642674
896.118	0.26618733
896.291	0.26612685
896.463	0.26605463
896.636	0.26593402
896.808	0.26592173
896.981	0.26575254
897.153	0.2655586
897.326	0.26559657
897.498	0.26560669
897.67	0.26538759
897.843	0.26539998
898.015	0.26540385
898.187	0.26543114
898.36	0.26513013
898.532	0.26479682
898.704	0.26457234
898.877	0.26434186
899.049	0.26413469
899.221	0.26394165
899.393	0.26366992
899.566	0.26378296
899.738	0.2639769
899.91	0.26396865
900.082	0.2638896
900.254	0.26365107
900.426	0.26331371
900.598	0.26310064
900.77	0.26284607
900.942	0.2623868
901.114	0.26205488
901.286	0.26188937
901.458	0.26173274
901.63	0.26161025
901.802	0.26142615
901.974	0.26125015
902.146	0.26111298
902.318	0.26101271
902.49	0.26086979
902.662	0.26081034
902.834	0.26062922
903.005	0.26074775
903.177	0.2608189
903.349	0.26082626
903.521	0.26062185
903.693	0.26055873
903.864	0.2603779
904.036	0.26029223
904.208	0.25973713
904.379	0.25939068
904.551	0.25916424
904.723	0.2589367
904.894	0.25861904
905.066	0.25849151
905.237	0.25827689
905.409	0.25835348
905.58	0.25827935
905.752	0.25801071
905.923	0.25791632
906.095	0.25761898
906.266	0.25730703
906.438	0.25711615
906.609	0.25687861
906.78	0.25657967
906.952	0.25653797
907.123	0.25623921
907.295	0.25629566
907.466	0.25622912
907.637	0.2561715
907.808	0.25609705
907.98	0.2559989
908.151	0.25569554
908.322	0.25574807
908.493	0.25565699
908.665	0.25568404
908.836	0.25552829
909.007	0.25540993
909.178	0.25533741
909.349	0.25522605
909.52	0.25512915
909.691	0.2549317
909.862	0.254668
910.033	0.25454017
910.204	0.25427539
910.375	0.25412195
910.546	0.25400801
910.717	0.25365529
910.888	0.25344225
911.059	0.25328951
911.23	0.25306683
911.401	0.2529282
911.572	0.25276064
911.742	0.25260133
911.913	0.25249134
912.084	0.25221992
912.255	0.25210886
912.426	0.25181444
912.596	0.25166996
912.767	0.25159887
912.938	0.25160047
913.108	0.25150261
913.279	0.25155662
913.45	0.25140726
913.62	0.25161448
913.791	0.25169239
913.962	0.25160951
914.132	0.25134899
914.303	0.25118772
914.473	0.25107259
914.644	0.25085882
914.814	0.25055617
914.985	0.25024693
915.155	0.25004451
915.326	0.24979828
915.496	0.24972121
915.666	0.24952699
915.837	0.24946868
916.007	0.24907285
916.177	0.24876051
916.348	0.24859038
916.518	0.24867941
916.688	0.2485637
916.858	0.24840511
917.029	0.2480814
917.199	0.24811067
917.369	0.2481006
917.539	0.24801044
917.709	0.24790505
917.88	0.24763574
918.05	0.2472503
918.22	0.24719009
918.39	0.24696077
918.56	0.24675366
918.73	0.24647182
918.9	0.24597967
919.07	0.24576856
919.24	0.24587476
919.41	0.24571436
919.58	0.24560783
919.75	0.24555306
919.92	0.24523333
920.09	0.24533128
920.26	0.24519082
920.429	0.24505122
920.599	0.24491391
920.769	0.24481298
920.939	0.2445145
921.109	0.24450831
921.278	0.24406441
921.448	0.24401817
921.618	0.24383385
921.787	0.24375797
921.957	0.24358588
922.127	0.24346691
922.296	0.24348065
922.466	0.24355805
922.636	0.24354675
922.805	0.24363388
922.975	0.24355928
923.144	0.24371796
923.314	0.24375254
923.483	0.24378277
923.653	0.2436572
923.822	0.24355914
923.992	0.24325999
924.161	0.24311462
924.331	0.24265814
924.5	0.24252241
924.669	0.24203027
924.839	0.24189137
925.008	0.24161801
925.177	0.24121993
925.347	0.24112811
925.516	0.24124181
925.685	0.24107152
925.854	0.2412675
926.023	0.24123301
926.193	0.24112267
926.362	0.24117439
926.531	0.24115308
926.7	0.24097647
926.869	0.24110108
927.038	0.24069745
927.207	0.24057173
927.376	0.24060465
927.545	0.24056165
927.715	0.24017825
927.884	0.23999739
928.052	0.23974533
928.221	0.23947756
928.39	0.23917321
928.559	0.23888237
928.728	0.23861181
928.897	0.23864385
929.066	0.23849951
929.235	0.23817716
929.404	0.23808943
929.572	0.23785623
929.741	0.23797778
929.91	0.23808934
930.079	0.23770682
930.247	0.23764911
930.416	0.23766422
930.585	0.23769787
930.753	0.23776287
930.922	0.23745778
931.091	0.23722882
931.259	0.23714584
931.428	0.23713989
931.596	0.23707929
931.765	0.2369418
931.934	0.23690822
932.102	0.23624306
932.27	0.23613063
932.439	0.235829
932.607	0.235339
932.776	0.23534095
932.944	0.23535246
933.113	0.23523034
933.281	0.23540707
933.449	0.23488723
933.618	0.23484443
933.786	0.23491602
933.954	0.23467984
934.123	0.23422668
934.291	0.234103
934.459	0.2338603
934.627	0.23404391
934.795	0.23424256
934.964	0.23406204
935.132	0.23343856
935.3	0.23312242
935.468	0.23259862
935.636	0.23274299
935.804	0.23237732
935.972	0.23198406
936.14	0.23176931
936.308	0.231763
936.476	0.23232534
936.644	0.2324271
936.812	0.23207345
936.98	0.23220354
937.148	0.23196589
937.316	0.23133319
937.484	0.23153142
937.652	0.23051672
937.82	0.23092186
937.987	0.23086501
938.155	0.23097691
938.323	0.23076249
938.491	0.23054269
938.658	0.23084293
938.826	0.23086909
938.994	0.23006583
939.162	0.23008566
939.329	0.23017236
939.497	0.23071351
939.665	0.23149169
939.832	0.23151303
940	0.23177975
940.167	0.23223887
940.335	0.23210677
940.502	0.23053323
940.67	0.2299139
940.837	0.23011067
941.005	0.22905123
941.172	0.22873382
941.34	0.228227
941.507	0.22945925
941.674	0.2317184
941.842	0.23191306
942.009	0.2331067
942.177	0.23167891
942.344	0.23335829
942.511	0.23380271
942.678	0.23401177
942.846	0.23214133
943.013	0.23290068
943.18	0.23185345
943.347	0.23460378
943.514	0.23345885
943.682	0.23501354
943.849	0.23279989
944.016	0.23264501
944.183	0.2324159
944.35	0.23136953
944.517	0.23191241
944.684	0.23374538
944.851	0.22898708
945.018	0.2294278
945.185	0.22954535
945.352	0.22919484
945.519	0.22912685
945.686	0.22732057
945.853	0.22895807
946.02	0.23103973
946.187	0.23061366
946.353	0.23300438
946.52	0.23286782
946.687	0.2327151
946.854	0.23228984
947.021	0.22878881
947.187	0.22912542
947.354	0.22814547
947.521	0.22677871
947.687	0.22562757
947.854	0.22652111
948.021	0.22606932
948.187	0.22607798
948.354	0.22519946
948.52	0.22556852
948.687	0.22602477
948.854	0.22701029
949.02	0.22506962
949.187	0.22446876
949.353	0.22451153
949.52	0.22409487
949.686	0.22515882
949.852	0.22539103
950.019	0.22604678
950.185	0.22789733
950.352	0.22862487
950.518	0.2279816
950.684	0.22812899
950.851	0.22715073
951.017	0.22523551
951.183	0.22390099
951.349	0.22325199
951.516	0.22104918
951.682	0.22086409
951.848	0.22065217
952.014	0.2200202
952.18	0.22048308
952.346	0.22053855
952.512	0.21978243
952.679	0.22165793
952.845	0.22113247
953.011	0.22057195
953.177	0.22092624
953.343	0.21942175
953.509	0.21991743
953.675	0.22000636
953.841	0.21936044
954.007	0.21991294
954.172	0.22088897
954.338	0.22069004
954.504	0.22107626
954.67	0.21913805
954.836	0.21965179
955.002	0.21943829
955.167	0.21951739
955.333	0.21771759
955.499	0.21743657
955.665	0.21734085
955.83	0.2182503
955.996	0.21728565
956.162	0.21768694
956.327	0.21688055
956.493	0.21716681
956.659	0.21795206
956.824	0.21740448
956.99	0.21687897
957.155	0.21733457
957.321	0.2165011
957.486	0.21604322
957.652	0.2164821
957.817	0.21605792
957.983	0.21619392
958.148	0.21621643
958.314	0.21577965
958.479	0.21502918
958.644	0.2153005
958.81	0.21539831
958.975	0.21505291
959.14	0.21523828
959.306	0.21465808
959.471	0.21406653
959.636	0.21358827
959.801	0.21405234
959.967	0.21375325
960.132	0.21346537
960.297	0.21310983
960.462	0.21414695
960.627	0.21402731
960.792	0.21482916
960.957	0.21404291
961.123	0.21395846
961.288	0.21351431
961.453	0.21360087
961.618	0.21286014
961.783	0.21321046
961.948	0.21217187
962.113	0.21176345
962.277	0.21062772
962.442	0.21097928
962.607	0.21090422
962.772	0.21044689
962.937	0.20946021
963.102	0.21012295
963.267	0.21075322
963.431	0.21149468
963.596	0.2112646
963.761	0.2105215
963.926	0.21047011
964.09	0.21080447
964.255	0.21115403
964.42	0.21077124
964.584	0.21078644
964.749	0.20997438
964.914	0.21006106
965.078	0.20982347
965.243	0.20899634
965.407	0.20813417
965.572	0.20735722
965.736	0.20698934
965.901	0.20769213
966.065	0.20843852
966.23	0.20815803
966.394	0.20936494
966.559	0.20955344
966.723	0.21005556
966.887	0.20966247
967.052	0.20883212
967.216	0.20770916
967.38	0.20721482
967.545	0.20677367
967.709	0.2071408
967.873	0.20750898
968.037	0.20738092
968.202	0.20773811
968.366	0.20840142
968.53	0.20937847
968.694	0.20897154
968.858	0.2080981
969.022	0.20695232
969.187	0.20660383
969.351	0.20615516
969.515	0.20569657
969.679	0.20458411
969.843	0.20415237
970.007	0.20391055
970.171	0.20434068
970.335	0.20451535
970.499	0.20438025
970.662	0.2041722
970.826	0.20428127
970.99	0.20477938
971.154	0.20532762
971.318	0.20505023
971.482	0.20436151
971.645	0.20501331
971.809	0.20565829
971.973	0.20613919
972.137	0.20572601
972.3	0.20515161
972.464	0.20548874
972.628	0.20678674
972.791	0.20673954
972.955	0.2059775
973.119	0.20574092
973.282	0.20514448
973.446	0.20501246
973.609	0.20441108
973.773	0.20390643
973.936	0.20303291
974.1	0.20280517
974.263	0.20210605
974.427	0.20254302
974.59	0.20254647
974.754	0.20215371
974.917	0.20197644
975.08	0.20235119
975.244	0.20200656
975.407	0.20218863
975.57	0.20173538
975.734	0.20133367
975.897	0.20142357
976.06	0.20135916
976.223	0.20102621
976.387	0.20113968
976.55	0.20091786
976.713	0.20090167
976.876	0.20105866
977.039	0.20078767
977.202	0.20071255
977.365	0.2002982
977.528	0.20045393
977.692	0.2008991
977.855	0.1998511
978.018	0.19966864
978.181	0.19972684
978.344	0.1992027
978.506	0.19948508
978.669	0.19867876
978.832	0.19793534
978.995	0.19847683
979.158	0.19867622
979.321	0.19823921
979.484	0.19765073
979.646	0.19700286
979.809	0.19805716
979.972	0.19787288
980.135	0.19860745
980.297	0.19823866
980.46	0.19829709
980.623	0.19842169
980.786	0.19826967
980.948	0.19726929
981.111	0.19700754
981.273	0.19654291
981.436	0.19641873
981.599	0.19671244
981.761	0.19673528
981.924	0.19741284
982.086	0.19761946
982.249	0.19782949
982.411	0.1978903
982.573	0.19802429
982.736	0.19857305
982.898	0.19834002
983.061	0.19791066
983.223	0.19757212
983.385	0.19721548
983.548	0.19751518
983.71	0.19723867
983.872	0.19631845
984.034	0.19624054
984.197	0.19480783
984.359	0.1946447
984.521	0.19537766
984.683	0.19491411
984.845	0.19512638
985.008	0.19459392
985.17	0.19505082
985.332	0.19654042
985.494	0.19588568
985.656	0.19591655
985.818	0.19495943
985.98	0.19519899
986.142	0.19460556
986.304	0.19377092
986.466	0.19319517
986.628	0.19353844
986.79	0.19349891
986.952	0.19353535
987.113	0.19220773
987.275	0.19243229
987.437	0.19279167
987.599	0.19244169
987.761	0.19273175
987.922	0.19148415
988.084	0.19180707
988.246	0.19266473
988.408	0.19328292
988.569	0.19334209
988.731	0.19449709
988.893	0.19438491
989.054	0.19567267
989.216	0.19559647
989.377	0.19428505
989.539	0.19375387
989.701	0.19299802
989.862	0.19152661
990.024	0.1903489
990.185	0.18835208
990.347	0.18851793
990.508	0.18813004
990.669	0.18856719
990.831	0.18899968
990.992	0.19029489
991.154	0.19093413
991.315	0.19365966
991.476	0.19359192
991.638	0.19500408
991.799	0.19406167
991.96	0.19435959
992.121	0.19365063
992.283	0.19443752
992.444	0.19293226
992.605	0.1916943
992.766	0.19079274
992.927	0.19116861
993.088	0.19171177
993.249	0.19139956
993.41	0.19019717
993.572	0.1902567
993.733	0.19130317
993.894	0.19189527
994.055	0.19062074
994.216	0.18957028
994.376	0.18806973
994.537	0.18881549
994.698	0.18819972
994.859	0.18721462
995.02	0.18783428
995.181	0.18741664
995.342	0.18823367
995.503	0.18894912
995.663	0.18823734
995.824	0.18751372
995.985	0.19003105
996.146	0.18963564
996.306	0.19100024
996.467	0.19062707
996.628	0.1918603
996.788	0.19181049
996.949	0.19389834
997.11	0.19100322
997.27	0.18959633
997.431	0.18904982
997.591	0.18636142
997.752	0.18406816
997.912	0.18445744
998.073	0.18339268
998.233	0.18530926
998.394	0.18610518
998.554	0.18725486
998.714	0.1887069
998.875	0.18934857
999.035	0.18792556
999.196	0.18735717
999.356	0.18605361
999.516	0.18627654
999.676	0.18653979
999.837	0.18675565
999.997	0.18620004
1000.157	0.1869981
1000.317	0.18542083
1000.477	0.18478103
1000.638	0.18271023
1000.798	0.18345328
1000.958	0.1838716
1001.118	0.18458901
1001.278	0.18398567
1001.438	0.18553683
1001.598	0.1861504
1001.758	0.18741869
1001.918	0.18551678
1002.078	0.18255241
1002.238	0.18289211
1002.398	0.18377095
1002.558	0.18257866
1002.718	0.18161223
1002.878	0.18145843
1003.037	0.1787351
1003.197	0.18028518
1003.357	0.17887283
1003.517	0.18047972
1003.677	0.1787075
1003.836	0.17796613
1003.996	0.17789095
1004.156	0.17993802
1004.315	0.18052167
1004.475	0.18160157
1004.635	0.18103811
1004.794	0.18343101
1004.954	0.18543634
1005.114	0.18475446
1005.273	0.18522322
1005.433	0.1836013
1005.592	0.18449546
1005.752	0.18174628
1005.911	0.18156064
1006.071	0.18152195
1006.23	0.18023883
1006.389	0.17963719
1006.549	0.17978046
1006.708	0.17780971
1006.868	0.17741741
1007.027	0.17770853
1007.186	0.17778916
1007.345	0.18127998
1007.505	0.18189417
1007.664	0.18474221
1007.823	0.18420437
1007.982	0.18751439
1008.142	0.18751339
1008.301	0.18694168
1008.46	0.1843692
1008.619	0.18016722
1008.778	0.17781851
1008.937	0.178837
1009.096	0.176603
1009.255	0.17668315
1009.414	0.17358725
1009.573	0.17479717
1009.732	0.18009285
1009.891	0.17979988
1010.05	0.18110122
1010.209	0.17991304
1010.368	0.17994369
1010.527	0.18233202
1010.686	0.18356726
1010.845	0.17921255
1011.003	0.1818403
1011.162	0.18162303
1011.321	0.1806539
1011.48	0.18271829
1011.638	0.1825578
1011.797	0.18098013
1011.956	0.18339728
1012.115	0.18112584
1012.273	0.18003629
1012.432	0.1818844
1012.59	0.17611128
1012.749	0.17572873
1012.908	0.17395455
1013.066	0.17437489
1013.225	0.17385993
1013.383	0.17436246
1013.542	0.17383219
1013.7	0.17777635
1013.859	0.18126609
1014.017	0.1835546
1014.175	0.18036217
1014.334	0.18301164
1014.492	0.1838447
1014.65	0.18487766
1014.809	0.18596799
1014.967	0.18335979
1015.125	0.18450527
1015.284	0.19007802
1015.442	0.188063
1015.6	0.18628296
1015.758	0.18444767
1015.916	0.18062316
1016.075	0.17866764
1016.233	0.17400158
1016.391	0.17535148
1016.549	0.17778483
1016.707	0.17797845
1016.865	0.17890814
1017.023	0.17794801
1017.181	0.17884222
1017.339	0.18068366
1017.497	0.17687446
1017.655	0.17193641
1017.813	0.17342448
1017.971	0.17447053
1018.129	0.17999421
1018.286	0.18137877
1018.444	0.17845223
1018.602	0.17909361
1018.76	0.18155155
1018.918	0.17992818
1019.075	0.18122431
1019.233	0.17945
1019.391	0.17905026
1019.549	0.1848737
1019.706	0.18747142
1019.864	0.18528009
1020.022	0.18543131
1020.179	0.18370474
1020.337	0.18103902
1020.494	0.17586415
1020.652	0.17125899
1020.809	0.17121982
1020.967	0.17224126
1021.124	0.17162
1021.282	0.17484042
1021.439	0.17571384
1021.597	0.18178909
1021.754	0.18109121
1021.911	0.18076507
1022.069	0.17728295
1022.226	0.17639733
1022.384	0.17323888
1022.541	0.17056368
1022.698	0.16973499
1022.855	0.17414716
1023.013	0.17207364
1023.17	0.17276628
1023.327	0.17390236
1023.484	0.17291117
1023.641	0.17738044
1023.798	0.18587944
1023.956	0.19159282
1024.113	0.18648754
1024.27	0.18771093
1024.427	0.18830219
1024.584	0.18926656
1024.741	0.18238502
1024.898	0.17144792
1025.055	0.16236607
1025.212	0.16065469
1025.369	0.15875329
1025.525	0.15828125
1025.682	0.16268498
1025.839	0.16826209
1025.996	0.17015912
1026.153	0.17522096
1026.31	0.18357152
1026.466	0.19530078
1026.623	0.20071004
1026.78	0.19769053
1026.937	0.19892337
1027.093	0.19898043
1027.25	0.20571308
1027.407	0.1975325
1027.563	0.19183633
1027.72	0.19163802
1027.876	0.18605759
1028.033	0.18273928
1028.19	0.1831209
1028.346	0.16776822
1028.503	0.17113296
1028.659	0.17536473
1028.816	0.17511687
1028.972	0.18251964
1029.128	0.1908051
1029.285	0.19043858
1029.441	0.19695758
1029.598	0.19264293
1029.754	0.19212604
1029.91	0.18836443
1030.067	0.17932707
1030.223	0.17884363
1030.379	0.17778625
1030.535	0.18567343
1030.691	0.19505824
1030.848	0.19420213
1031.004	0.19397188
1031.16	0.20950863
1031.316	0.21029487
1031.472	0.21814358
1031.628	0.21145375
1031.784	0.20637916
1031.94	0.20811752
1032.096	0.20667487
1032.252	0.1929201
1032.408	0.19377474
1032.564	0.18987473
1032.72	0.19670135
1032.876	0.19375364
1033.032	0.18708977
1033.188	0.19041819
1033.344	0.19814726
1033.5	0.19713054
1033.655	0.1978821
1033.811	0.19266455
1033.967	0.20427752
