Data from 0_1_mm_pl_60pc_Absorbance__0__16-12-41-139.txt Node

Date: Fri Feb 24 16:12:41 CET 2023
User: Ange
Spectrometer: FLMT08341
Trigger mode: 0
Integration Time (sec): 1.000000E-2
Scans to average: 400
Electric dark correction enabled: true
Nonlinearity correction enabled: false
Boxcar width: 3
XAxis mode: Wavelengths
Number of Pixels in Spectrum: 3648
>>>>>Begin Spectral Data<<<<<
345.271	-0.0341832
345.487	-0.02761801
345.704	-0.01401756
345.921	-0.01713926
346.137	-0.01356263
346.354	-0.00739038
346.571	-0.01492066
346.787	-0.00053392
347.004	0.06450381
347.22	0.04079528
347.437	0.08544802
347.653	0.11360538
347.87	-0.2081508
348.086	-0.25106733
348.303	0.53622416
348.519	0.47963704
348.736	0.48172261
348.952	0.49452516
349.169	0.5098736
349.385	0.54125275
349.601	0.53965863
349.818	0.53352968
350.034	0.52781723
350.251	0.52037352
350.467	0.52521986
350.683	0.50972779
350.9	0.50459143
351.116	0.50163591
351.332	0.49598934
351.549	0.51088571
351.765	0.52712165
351.981	0.53528536
352.197	0.55507499
352.414	0.58004139
352.63	0.59044261
352.846	0.61099395
353.062	0.59755953
353.278	0.58256734
353.495	0.59741741
353.711	0.60001787
353.927	0.5983566
354.143	0.59887172
354.359	0.58625775
354.575	0.58798546
354.792	0.60839708
355.008	0.59564701
355.224	0.59048319
355.44	0.58587483
355.656	0.58251734
355.872	0.59539137
356.088	0.63088991
356.304	0.63232758
356.52	0.63448534
356.736	0.64229757
356.952	0.64768306
357.168	0.64920029
357.384	0.65509634
357.6	0.63004795
357.816	0.64115801
358.032	0.65588914
358.248	0.67341318
358.464	0.6712336
358.679	0.67993899
358.895	0.68062606
359.111	0.69167199
359.327	0.67501902
359.543	0.67676047
359.759	0.6813671
359.974	0.68377759
360.19	0.6844118
360.406	0.68395942
360.622	0.67919905
360.838	0.67680643
361.053	0.67850716
361.269	0.68096243
361.485	0.68570135
361.701	0.69150953
361.916	0.6860097
362.132	0.68846552
362.348	0.69656775
362.563	0.69929968
362.779	0.68862576
362.995	0.69220005
363.21	0.69793831
363.426	0.70109034
363.641	0.70397526
363.857	0.7117729
364.073	0.70483355
364.288	0.69834018
364.504	0.70909655
364.719	0.70820473
364.935	0.70881081
365.15	0.71078454
365.366	0.71029398
365.581	0.72374183
365.797	0.72875333
366.012	0.717227
366.228	0.70464037
366.443	0.71526137
366.658	0.71227028
366.874	0.70073624
367.089	0.70337788
367.305	0.70660887
367.52	0.70672002
367.735	0.70726049
367.951	0.69684502
368.166	0.69911763
368.381	0.71467582
368.597	0.7030943
368.812	0.70784464
369.027	0.71178737
369.243	0.71715175
369.458	0.7376017
369.673	0.74074243
369.888	0.7338746
370.104	0.72915278
370.319	0.72943846
370.534	0.72614779
370.749	0.72542119
370.964	0.72041745
371.179	0.71489907
371.395	0.71098668
371.61	0.71813251
371.825	0.70938967
372.04	0.70913615
372.255	0.7024669
372.47	0.69304369
372.685	0.68586123
372.9	0.68424202
373.115	0.67842149
373.33	0.67729582
373.545	0.67599004
373.76	0.68119232
373.975	0.67705016
374.19	0.67569463
374.405	0.6741678
374.62	0.68044264
374.835	0.68760065
375.05	0.68666051
375.265	0.684677
375.48	0.68662699
375.695	0.69902954
375.91	0.69446417
376.125	0.68133889
376.339	0.66794626
376.554	0.66601491
376.769	0.6630823
376.984	0.65919664
377.199	0.6543212
377.414	0.65173812
377.628	0.65677064
377.843	0.66098923
378.058	0.65898947
378.273	0.66026933
378.487	0.66085421
378.702	0.65874752
378.917	0.65803243
379.131	0.65255938
379.346	0.64310366
379.561	0.63844985
379.775	0.63188211
379.99	0.62470125
380.205	0.61613664
380.419	0.6090221
380.634	0.59938573
380.848	0.6024406
381.063	0.60093929
381.278	0.60326484
381.492	0.59776369
381.707	0.60111974
381.921	0.59924461
382.136	0.60509808
382.35	0.59885886
382.565	0.59260738
382.779	0.58913726
382.994	0.58935498
383.208	0.58184138
383.422	0.58425086
383.637	0.58040535
383.851	0.58265605
384.066	0.58370744
384.28	0.58192174
384.494	0.57971574
384.709	0.58013779
384.923	0.57718361
385.137	0.57043902
385.352	0.56681896
385.566	0.56537841
385.78	0.56159992
385.995	0.55862457
386.209	0.55427481
386.423	0.55382155
386.637	0.55515124
386.852	0.54958478
387.066	0.54485979
387.28	0.54024164
387.494	0.53968666
387.708	0.53734128
387.923	0.53257532
388.137	0.53186205
388.351	0.53135124
388.565	0.53185258
388.779	0.53185328
388.993	0.53273771
389.207	0.53149879
389.421	0.53028173
389.635	0.5254147
389.85	0.52289297
390.064	0.51943629
390.278	0.51653044
390.492	0.51301662
390.706	0.51029562
390.92	0.50731296
391.134	0.50764396
391.348	0.50903964
391.561	0.50537901
391.775	0.50136767
391.989	0.49634668
392.203	0.49576891
392.417	0.49496787
392.631	0.49260275
392.845	0.48667231
393.059	0.48682926
393.273	0.48384583
393.486	0.48041108
393.7	0.47465575
393.914	0.47300545
394.128	0.4698937
394.342	0.46751479
394.555	0.46221366
394.769	0.46102862
394.983	0.46101981
395.197	0.46138296
395.41	0.45835289
395.624	0.45717814
395.838	0.45483395
396.051	0.45619272
396.265	0.45320824
396.479	0.45138298
396.692	0.44867207
396.906	0.44488589
397.12	0.44200599
397.333	0.44141986
397.547	0.43800889
397.76	0.43830645
397.974	0.43644176
398.187	0.43547006
398.401	0.43533029
398.614	0.4333776
398.828	0.43120938
399.041	0.42983539
399.255	0.42654707
399.468	0.42430764
399.682	0.42200852
399.895	0.42078751
400.109	0.41826854
400.322	0.41567778
400.536	0.41213021
400.749	0.412132
400.962	0.4102117
401.176	0.4077827
401.389	0.40498364
401.602	0.40167897
401.816	0.40107465
402.029	0.4004138
402.242	0.39651707
402.456	0.39471733
402.669	0.39216937
402.882	0.38844584
403.095	0.38885688
403.309	0.38655644
403.522	0.38535879
403.735	0.38380554
403.948	0.38218217
404.161	0.38305404
404.375	0.38282844
404.588	0.38144221
404.801	0.37982113
405.014	0.37696974
405.227	0.37682203
405.44	0.37615348
405.653	0.37470128
405.866	0.37237049
406.079	0.3704425
406.293	0.3688986
406.506	0.36756743
406.719	0.36535327
406.932	0.36302262
407.145	0.36041361
407.358	0.36079884
407.571	0.35864547
407.784	0.35730966
407.996	0.35605179
408.209	0.35376158
408.422	0.35164869
408.635	0.35005018
408.848	0.34811056
409.061	0.34630307
409.274	0.34433138
409.487	0.34264147
409.7	0.34203594
409.912	0.34116002
410.125	0.33991135
410.338	0.33823611
410.551	0.33730714
410.764	0.33641379
410.976	0.33559043
411.189	0.33418329
411.402	0.33287099
411.615	0.33186957
411.827	0.33107945
412.04	0.33001227
412.253	0.32881759
412.465	0.32747463
412.678	0.32607869
412.891	0.32521698
413.103	0.32292614
413.316	0.32172855
413.529	0.32106002
413.741	0.31983399
413.954	0.31860576
414.166	0.3177221
414.379	0.31619945
414.591	0.31570129
414.804	0.3137105
415.016	0.3126936
415.229	0.31161652
415.441	0.31024857
415.654	0.30966135
415.866	0.30881832
416.079	0.30822656
416.291	0.30719497
416.504	0.30625344
416.716	0.30543409
416.928	0.30484725
417.141	0.30332592
417.353	0.30258128
417.566	0.30072183
417.778	0.30012638
417.99	0.29812792
418.203	0.29657167
418.415	0.29545293
418.627	0.29469475
418.839	0.29389791
419.052	0.29374901
419.264	0.29288013
419.476	0.29255747
419.688	0.29191388
419.901	0.29096559
420.113	0.29017884
420.325	0.28887677
420.537	0.28780402
420.749	0.28704735
420.961	0.28617724
421.174	0.28526874
421.386	0.28420549
421.598	0.28287304
421.81	0.282008
422.022	0.28078862
422.234	0.27989683
422.446	0.27895837
422.658	0.2780443
422.87	0.27757476
423.082	0.27690204
423.294	0.27607975
423.506	0.27560924
423.718	0.27477527
423.93	0.27351743
424.142	0.27246249
424.354	0.27135676
424.566	0.27042751
424.778	0.26981713
424.99	0.2689441
425.202	0.2678185
425.414	0.26742123
425.625	0.26714848
425.837	0.26606446
426.049	0.26582934
426.261	0.26492433
426.473	0.26413776
426.684	0.26360096
426.896	0.26295596
427.108	0.26206031
427.32	0.26174701
427.531	0.26089177
427.743	0.26016553
427.955	0.25980978
428.167	0.25896336
428.378	0.25818409
428.59	0.25757363
428.802	0.25701911
429.013	0.25614579
429.225	0.2554283
429.436	0.2544915
429.648	0.25431554
429.86	0.25370257
430.071	0.25292526
430.283	0.25234193
430.494	0.25179959
430.706	0.25132872
430.917	0.250807
431.129	0.24993723
431.34	0.24936395
431.552	0.24908726
431.763	0.24828073
431.975	0.2478785
432.186	0.2472889
432.398	0.24660014
432.609	0.24563583
432.821	0.2450991
433.032	0.24428318
433.243	0.24368797
433.455	0.24299465
433.666	0.24243932
433.877	0.24224384
434.089	0.24185555
434.3	0.24119557
434.511	0.24041727
434.723	0.23998859
434.934	0.23918391
435.145	0.23848303
435.356	0.23765281
435.568	0.23715503
435.779	0.23660764
435.99	0.23626352
436.201	0.23575287
436.412	0.23526936
436.624	0.23477309
436.835	0.23441761
437.046	0.23424066
437.257	0.23366773
437.468	0.23322138
437.679	0.23281463
437.89	0.23238867
438.101	0.2320304
438.312	0.23159283
438.523	0.23102572
438.734	0.23088841
438.945	0.23051617
439.156	0.23002011
439.367	0.22992437
439.578	0.22966351
439.789	0.22901285
440	0.22866121
440.211	0.22804053
440.422	0.22778038
440.633	0.2274864
440.844	0.22669701
441.055	0.22605352
441.266	0.22582404
441.477	0.22503018
441.687	0.22469394
441.898	0.22420926
442.109	0.22359434
442.32	0.22332578
442.531	0.22288682
442.741	0.22224449
442.952	0.22208281
443.163	0.22174
443.374	0.22113064
443.584	0.2209173
443.795	0.22063948
444.006	0.22032506
444.216	0.22017843
444.427	0.21967656
444.638	0.21928181
444.848	0.21894349
445.059	0.21846675
445.27	0.21811346
445.48	0.21767592
445.691	0.21728413
445.901	0.21696405
446.112	0.21647586
446.323	0.21614318
446.533	0.21579961
446.744	0.2152618
446.954	0.21488021
447.165	0.2145486
447.375	0.21440724
447.586	0.21434612
447.796	0.21419769
448.006	0.21382975
448.217	0.21368622
448.427	0.21345671
448.638	0.21284681
448.848	0.21220357
449.058	0.21167882
449.269	0.21115425
449.479	0.21075784
449.689	0.21029328
449.9	0.20991696
450.11	0.20968838
450.32	0.20970963
450.531	0.20922105
450.741	0.20885327
450.951	0.20865489
451.161	0.208295
451.372	0.20808754
451.582	0.20809357
451.792	0.20749028
452.002	0.20727475
452.212	0.20685546
452.422	0.20660682
452.633	0.20623821
452.843	0.20589382
453.053	0.20508437
453.263	0.20485802
453.473	0.20450055
453.683	0.20439047
453.893	0.20385575
454.103	0.20379668
454.313	0.20336908
454.523	0.20333419
454.733	0.20322959
454.943	0.20313846
455.153	0.20291737
455.363	0.20273836
455.573	0.20239916
455.783	0.20237087
455.993	0.20203858
456.203	0.20189044
456.413	0.20159673
456.623	0.20124915
456.833	0.20123296
457.042	0.20097333
457.252	0.20075627
457.462	0.20045462
457.672	0.20008223
457.882	0.19989028
458.091	0.19971333
458.301	0.19922423
458.511	0.19899368
458.721	0.19868081
458.931	0.19870334
459.14	0.19840998
459.35	0.19831169
459.56	0.19822214
459.769	0.19815775
459.979	0.19797885
460.189	0.19794606
460.398	0.197693
460.608	0.19764877
460.817	0.1973591
461.027	0.19726112
461.237	0.19710745
461.446	0.19694461
461.656	0.1967815
461.865	0.19674035
462.075	0.19661603
462.284	0.1966158
462.494	0.19646439
462.703	0.1962637
462.913	0.19627416
463.122	0.19614415
463.332	0.1958194
463.541	0.19576254
463.751	0.19553664
463.96	0.19540582
464.169	0.19530117
464.379	0.19527368
464.588	0.19526921
464.797	0.19532977
465.007	0.19509346
465.216	0.19513969
465.425	0.19502827
465.635	0.19494988
465.844	0.19476148
466.053	0.1945645
466.263	0.19442676
466.472	0.1944009
466.681	0.19432457
466.89	0.19421573
467.099	0.19427032
467.309	0.19419306
467.518	0.19411583
467.727	0.19413764
467.936	0.19408333
468.145	0.19385265
468.354	0.19379743
468.563	0.19359508
468.772	0.19343267
468.982	0.19321402
469.191	0.19309479
469.4	0.19292983
469.609	0.19308214
469.818	0.19308804
470.027	0.19319829
470.236	0.19306401
470.445	0.19313045
470.654	0.19303932
470.863	0.19303967
471.072	0.19295748
471.28	0.19281251
471.489	0.19271989
471.698	0.19281237
471.907	0.19278926
472.116	0.19281629
472.325	0.1927491
472.534	0.19264493
472.743	0.1927151
472.951	0.19268349
473.16	0.19259209
473.369	0.19259177
473.578	0.19255557
473.786	0.19259558
473.995	0.19260199
474.204	0.19252555
474.413	0.19241229
474.621	0.19255608
474.83	0.19255988
475.039	0.19258781
475.247	0.19254758
475.456	0.1926225
475.665	0.19273334
475.873	0.19282929
476.082	0.19270733
476.291	0.19274851
476.499	0.19273307
476.708	0.1927735
476.916	0.19271726
477.125	0.19264968
477.333	0.19272812
477.542	0.19278757
477.75	0.19275395
477.959	0.19287343
478.167	0.19289637
478.376	0.1928883
478.584	0.19301576
478.793	0.1929739
479.001	0.1930157
479.209	0.19308122
479.418	0.19305492
479.626	0.19309304
479.834	0.19319868
480.043	0.19326036
480.251	0.19331229
480.459	0.1934658
480.668	0.19354584
480.876	0.19366194
481.084	0.19380722
481.293	0.19386051
481.501	0.19393317
481.709	0.19415735
481.917	0.19425028
482.125	0.19433542
482.334	0.1944558
482.542	0.19460511
482.75	0.1948112
482.958	0.19489957
483.166	0.19500103
483.374	0.19505681
483.583	0.19523021
483.791	0.19531078
483.999	0.1953803
484.207	0.19550816
484.415	0.19571068
484.623	0.19579319
484.831	0.19598654
485.039	0.19608262
485.247	0.19623665
485.455	0.1963143
485.663	0.19634583
485.871	0.19646705
486.079	0.1965187
486.287	0.19668178
486.495	0.19680175
486.702	0.19683816
486.91	0.19700407
487.118	0.19717548
487.326	0.19724044
487.534	0.19743256
487.742	0.19759587
487.95	0.19776173
488.157	0.19796196
488.365	0.19814897
488.573	0.19828868
488.781	0.19844966
488.988	0.19865109
489.196	0.19886502
489.404	0.19911406
489.612	0.19931237
489.819	0.19949723
490.027	0.19976173
490.235	0.19993678
490.442	0.20024946
490.65	0.20040179
490.857	0.20058077
491.065	0.20088512
491.273	0.20113457
491.48	0.20131597
491.688	0.20157895
491.895	0.20168368
492.103	0.20182134
492.31	0.20203728
492.518	0.20219297
492.725	0.20245864
492.933	0.20266043
493.14	0.20291174
493.348	0.20310936
493.555	0.20333853
493.763	0.20355879
493.97	0.2038221
494.177	0.20395903
494.385	0.20416187
494.592	0.20437794
494.8	0.20468378
495.007	0.20499951
495.214	0.20527821
495.422	0.20549397
495.629	0.20580045
495.836	0.20608603
496.043	0.20634754
496.251	0.20656705
496.458	0.20681606
496.665	0.20705341
496.872	0.20731021
497.08	0.20757193
497.287	0.2078398
497.494	0.20811787
497.701	0.20838499
497.908	0.20857525
498.115	0.20879262
498.322	0.2089761
498.53	0.20922361
498.737	0.20945122
498.944	0.2096427
499.151	0.20993811
499.358	0.21027773
499.565	0.21057913
499.772	0.21089916
499.979	0.21116522
500.186	0.21148977
500.393	0.21184386
500.6	0.2120871
500.807	0.21235892
501.014	0.21262265
501.221	0.21296931
501.427	0.21325151
501.634	0.21354937
501.841	0.2138003
502.048	0.21412512
502.255	0.21434568
502.462	0.21466099
502.669	0.21499129
502.875	0.21531299
503.082	0.21565013
503.289	0.21594613
503.496	0.2162422
503.702	0.21660614
503.909	0.21689783
504.116	0.2172326
504.323	0.2176079
504.529	0.21797311
504.736	0.21837276
504.943	0.2187343
505.149	0.2190996
505.356	0.21948361
505.563	0.21982319
505.769	0.22015173
505.976	0.22045052
506.182	0.22083063
506.389	0.22118127
506.595	0.22152587
506.802	0.22186909
507.008	0.22218778
507.215	0.22258455
507.421	0.22298991
507.628	0.22329955
507.834	0.22368869
508.041	0.22405812
508.247	0.22442386
508.454	0.22483846
508.66	0.2251058
508.866	0.22537467
509.073	0.22574852
509.279	0.22605951
509.486	0.22646482
509.692	0.22681983
509.898	0.22713904
510.105	0.22756322
510.311	0.22800889
510.517	0.22843713
510.723	0.22888042
510.93	0.22923559
511.136	0.22967305
511.342	0.23010036
511.548	0.23053948
511.754	0.23094332
511.961	0.23133415
512.167	0.23165378
512.373	0.2320292
512.579	0.23248041
512.785	0.23298319
512.991	0.23331634
513.197	0.23373337
513.404	0.23409505
513.61	0.23455161
513.816	0.2349948
514.022	0.23534855
514.228	0.23561624
514.434	0.2360321
514.64	0.23646433
514.846	0.23689711
515.052	0.23735642
515.258	0.23777692
515.464	0.23812147
515.669	0.23860958
515.875	0.2390937
516.081	0.23946019
516.287	0.23989209
516.493	0.2402897
516.699	0.2407054
516.905	0.24119327
517.111	0.24149429
517.316	0.24185399
517.522	0.242269
517.728	0.24270084
517.934	0.24314099
518.139	0.24358065
518.345	0.24398555
518.551	0.24455401
518.757	0.24500463
518.962	0.2454563
519.168	0.24592072
519.374	0.24629127
519.579	0.24672372
519.785	0.24718567
519.991	0.24763295
520.196	0.24808833
520.402	0.24859855
520.607	0.24904546
520.813	0.24957671
521.018	0.25004165
521.224	0.25047246
521.429	0.25091073
521.635	0.25128221
521.84	0.25163259
522.046	0.25208733
522.251	0.25247354
522.457	0.2528715
522.662	0.25335107
522.868	0.2537994
523.073	0.25432258
523.279	0.25475868
523.484	0.25520323
523.689	0.25571939
523.895	0.25623932
524.1	0.25672156
524.305	0.25712868
524.511	0.2576202
524.716	0.25815898
524.921	0.2586214
525.126	0.259047
525.332	0.25950776
525.537	0.25992963
525.742	0.26042454
525.947	0.2609031
526.153	0.26133439
526.358	0.26180048
526.563	0.26222578
526.768	0.26269666
526.973	0.26323652
527.178	0.26371769
527.383	0.26412157
527.588	0.26460845
527.794	0.26499237
527.999	0.26550482
528.204	0.2658916
528.409	0.26628518
528.614	0.26672295
528.819	0.26717314
529.024	0.26762519
529.229	0.26814201
529.434	0.26858679
529.639	0.26906635
529.843	0.26951845
530.048	0.26998732
530.253	0.27045192
530.458	0.27091809
530.663	0.27130372
530.868	0.27184374
531.073	0.27231367
531.278	0.27277691
531.482	0.27324474
531.687	0.27376895
531.892	0.27423188
532.097	0.27469507
532.302	0.27511644
532.506	0.2755915
532.711	0.27605803
532.916	0.27653611
533.12	0.27698398
533.325	0.27746353
533.53	0.27800856
533.734	0.27848623
533.939	0.278972
534.144	0.27949793
534.348	0.27992886
534.553	0.28038521
534.757	0.28082284
534.962	0.28134681
535.167	0.28181279
535.371	0.28227815
535.576	0.28272841
535.78	0.28324665
535.985	0.28372335
536.189	0.28418587
536.394	0.28467074
536.598	0.28511182
536.803	0.28557691
537.007	0.28604133
537.211	0.28655743
537.416	0.28704221
537.62	0.28747581
537.825	0.28786404
538.029	0.28840662
538.233	0.28885323
538.438	0.28930725
538.642	0.28970589
538.846	0.29013156
539.05	0.29063656
539.255	0.29113073
539.459	0.29153075
539.663	0.29199196
539.867	0.29241985
540.072	0.29290457
540.276	0.29338584
540.48	0.29388233
540.684	0.29437335
540.888	0.29492954
541.092	0.29543164
541.297	0.2959233
541.501	0.29637771
541.705	0.29679152
541.909	0.2971239
542.113	0.29748931
542.317	0.2978725
542.521	0.29830981
542.725	0.29880221
542.929	0.29926785
543.133	0.29978951
543.337	0.30032987
543.541	0.30079616
543.745	0.30123682
543.949	0.30168543
544.153	0.30203613
544.357	0.30236615
544.56	0.30281175
544.764	0.30334608
544.968	0.30379452
545.172	0.30415938
545.376	0.30455099
545.58	0.30503968
545.783	0.30555549
545.987	0.30594365
546.191	0.30624443
546.395	0.30667889
546.598	0.30720882
546.802	0.30765365
547.006	0.30801692
547.21	0.30837288
547.413	0.30879617
547.617	0.30931505
547.821	0.30972824
548.024	0.31016361
548.228	0.31051901
548.431	0.31099868
548.635	0.31145289
548.839	0.31180491
549.042	0.31218759
549.246	0.31254931
549.449	0.31286326
549.653	0.31331247
549.856	0.31368555
550.06	0.31409318
550.263	0.31456148
550.467	0.31491516
550.67	0.31531727
550.874	0.31561518
551.077	0.31595886
551.28	0.31636316
551.484	0.31674189
551.687	0.31710777
551.891	0.31754213
552.094	0.31788473
552.297	0.31836765
552.501	0.31882596
552.704	0.3191783
552.907	0.31949124
553.11	0.31983922
553.314	0.32015587
553.517	0.3205298
553.72	0.32086702
553.923	0.32119703
554.127	0.32152613
554.33	0.32184039
554.533	0.32223261
554.736	0.32252133
554.939	0.32285661
555.142	0.32320304
555.345	0.3235324
555.549	0.32388102
555.752	0.32424155
555.955	0.32451496
556.158	0.32496289
556.361	0.32534711
556.564	0.32568369
556.767	0.32603625
556.97	0.32640868
557.173	0.3268074
557.376	0.32718513
557.579	0.327421
557.782	0.32773135
557.984	0.32804308
558.187	0.32836395
558.39	0.32861843
558.593	0.32891999
558.796	0.32909733
558.999	0.32939697
559.202	0.32965376
559.404	0.32988563
559.607	0.33014357
559.81	0.33042661
560.013	0.33061431
560.216	0.33097136
560.418	0.33126453
560.621	0.3315324
560.824	0.33187918
561.026	0.33217886
561.229	0.33236561
561.432	0.33270184
561.634	0.33289158
561.837	0.33308791
562.04	0.33330455
562.242	0.33356501
562.445	0.33376943
562.647	0.33406737
562.85	0.33423737
563.053	0.33448518
563.255	0.33474448
563.458	0.33508921
563.66	0.33529736
563.863	0.33559098
564.065	0.33580893
564.268	0.33606479
564.47	0.33637052
564.672	0.33657936
564.875	0.33671996
565.077	0.33688375
565.28	0.33702241
565.482	0.33727363
565.684	0.33746765
565.887	0.33760809
566.089	0.33781487
566.291	0.33802972
566.494	0.33816279
566.696	0.33831936
566.898	0.33846628
567.1	0.3385831
567.303	0.3387489
567.505	0.33891144
567.707	0.3390554
567.909	0.3392406
568.111	0.33942645
568.314	0.33956036
568.516	0.33982189
568.718	0.33996383
568.92	0.34008289
569.122	0.34013088
569.324	0.34030772
569.526	0.34040385
569.728	0.34061753
569.93	0.34071676
570.132	0.34087339
570.334	0.34109638
570.536	0.34129998
570.738	0.34136942
570.94	0.34149134
571.142	0.34162619
571.344	0.34166995
571.546	0.34167122
571.748	0.34171706
571.95	0.3417929
572.152	0.34194324
572.354	0.34204845
572.555	0.34206287
572.757	0.34224345
572.959	0.34240779
573.161	0.34244724
573.363	0.34248761
573.564	0.34264044
573.766	0.34269546
573.968	0.34285423
574.17	0.34279937
574.371	0.34280022
574.573	0.34284758
574.775	0.34289763
574.976	0.34283712
575.178	0.34294686
575.38	0.34286236
575.581	0.34293696
575.783	0.34301184
575.985	0.34304617
576.186	0.34312714
576.388	0.34320309
576.589	0.34313338
576.791	0.34323256
576.992	0.34326799
577.194	0.34332721
577.395	0.3433834
577.597	0.34345263
577.798	0.34346154
578	0.34354482
578.201	0.34362588
578.402	0.34363953
578.604	0.34357092
578.805	0.34360794
579.007	0.34356133
579.208	0.34358684
579.409	0.34345952
579.611	0.34338676
579.812	0.34341691
580.013	0.34347816
580.215	0.34333733
580.416	0.34329375
580.617	0.34314659
580.818	0.34322826
581.019	0.34315637
581.221	0.34311175
581.422	0.3430696
581.623	0.34313952
581.824	0.34300805
582.025	0.34306623
582.226	0.34303468
582.428	0.3430996
582.629	0.34300191
582.83	0.34298756
583.031	0.34283072
583.232	0.34289201
583.433	0.34288417
583.634	0.34279955
583.835	0.34261744
584.036	0.3425449
584.237	0.34241683
584.438	0.34242499
584.639	0.34234344
584.84	0.34226902
585.041	0.34214355
585.242	0.34207876
585.442	0.34199436
585.643	0.3420303
585.844	0.34192026
586.045	0.34183606
586.246	0.3416642
586.447	0.34160809
586.647	0.34158368
586.848	0.3415207
587.049	0.34131177
587.25	0.34118696
587.45	0.34110321
587.651	0.34102992
587.852	0.3408892
588.053	0.34085169
588.253	0.34078866
588.454	0.34070208
588.655	0.34066506
588.855	0.34058511
589.056	0.34050468
589.256	0.34049819
589.457	0.34036251
589.658	0.34024883
589.858	0.34010875
590.059	0.34002596
590.259	0.33991411
590.46	0.33979187
590.66	0.33966707
590.861	0.3395975
591.061	0.33948032
591.262	0.33947659
591.462	0.33943685
591.662	0.33930509
591.863	0.33920859
592.063	0.339142
592.264	0.33900274
592.464	0.3389318
592.664	0.33877627
592.865	0.33871603
593.065	0.33855762
593.265	0.33858355
593.465	0.33841063
593.666	0.33834196
593.866	0.3382144
594.066	0.33815111
594.266	0.33783822
594.467	0.33773927
594.667	0.33749987
594.867	0.33749119
595.067	0.33728817
595.267	0.33715913
595.467	0.337084
595.668	0.33705103
595.868	0.33698239
596.068	0.33688492
596.268	0.33669059
596.468	0.33667372
596.668	0.33656635
596.868	0.33643242
597.068	0.33629575
597.268	0.33619457
597.468	0.33604061
597.668	0.33593971
597.868	0.33573183
598.068	0.33559544
598.268	0.33542261
598.467	0.33539897
598.667	0.3352049
598.867	0.33503376
599.067	0.33489362
599.267	0.33475797
599.467	0.33461912
599.667	0.33444472
599.866	0.33428045
600.066	0.33421599
600.266	0.33412113
600.466	0.3340128
600.665	0.33392766
600.865	0.3338508
601.065	0.3337864
601.264	0.33362016
601.464	0.33346693
601.664	0.3334264
601.863	0.33329765
602.063	0.33322775
602.263	0.3329904
602.462	0.33290167
602.662	0.33279572
602.861	0.33272996
603.061	0.33261281
603.26	0.33248337
603.46	0.33230143
603.659	0.33231089
603.859	0.33214935
604.058	0.3320073
604.258	0.33192693
604.457	0.33189873
604.657	0.33174905
604.856	0.33153426
605.056	0.33149229
605.255	0.33143747
605.454	0.33139972
605.654	0.33121459
605.853	0.3310473
606.052	0.33100823
606.252	0.33103038
606.451	0.3308914
606.65	0.330857
606.849	0.33068807
607.049	0.33065967
607.248	0.3305615
607.447	0.33045775
607.646	0.33034675
607.845	0.33027285
608.045	0.33005592
608.244	0.330109
608.443	0.32996632
608.642	0.32993161
608.841	0.32984905
609.04	0.32975328
609.239	0.32968581
609.438	0.32957405
609.637	0.32951553
609.836	0.32948056
610.035	0.32939818
610.234	0.32941998
610.433	0.32945239
610.632	0.32937589
610.831	0.32951683
611.03	0.32940345
611.229	0.32951908
611.428	0.32951015
611.627	0.32945671
611.826	0.3294138
612.025	0.32951189
612.224	0.32936451
612.422	0.32933389
612.621	0.32924899
612.82	0.32926303
613.019	0.32918281
613.218	0.3292323
613.416	0.32904281
613.615	0.32913235
613.814	0.32918288
614.012	0.32917766
614.211	0.32899818
614.41	0.32910034
614.608	0.32905089
614.807	0.329089
615.006	0.32909895
615.204	0.32907745
615.403	0.32908259
615.602	0.32925378
615.8	0.32934338
615.999	0.32929592
616.197	0.32931893
616.396	0.329399
616.594	0.32938114
616.793	0.32942508
616.991	0.32934888
617.19	0.32912808
617.388	0.32924872
617.586	0.32929835
617.785	0.32917738
617.983	0.32922333
618.182	0.32913061
618.38	0.32914479
618.578	0.32925262
618.777	0.32927588
618.975	0.32933875
619.173	0.32944333
619.372	0.32951263
619.57	0.32958956
619.768	0.32969644
619.966	0.3297545
620.165	0.32970487
620.363	0.32976825
620.561	0.3297103
620.759	0.32973785
620.957	0.32987109
621.155	0.32995605
621.354	0.32998927
621.552	0.33024411
621.75	0.33018671
621.948	0.3303945
622.146	0.33047543
622.344	0.3305104
622.542	0.33054428
622.74	0.33065
622.938	0.33051688
623.136	0.33070341
623.334	0.33076556
623.532	0.3307136
623.73	0.33075601
623.928	0.33089463
624.126	0.33100626
624.324	0.33127633
624.522	0.331265
624.719	0.33129653
624.917	0.33155076
625.115	0.33156661
625.313	0.33163151
625.511	0.33177782
625.708	0.33163331
625.906	0.33170725
626.104	0.3317579
626.302	0.33197422
626.499	0.3322079
626.697	0.33229248
626.895	0.33224562
627.093	0.33245396
627.29	0.33270389
627.488	0.33290835
627.686	0.33292345
627.883	0.33297243
628.081	0.33303638
628.278	0.33346145
628.476	0.33355837
628.673	0.33370016
628.871	0.33383035
629.068	0.33394726
629.266	0.33417732
629.463	0.33423932
629.661	0.33414459
629.858	0.33420321
630.056	0.33424675
630.253	0.33429243
630.451	0.33441884
630.648	0.33447038
630.845	0.33467485
631.043	0.33486081
631.24	0.33517599
631.438	0.33537283
631.635	0.33559654
631.832	0.33566654
632.029	0.33588327
632.227	0.336117
632.424	0.3362593
632.621	0.33633536
632.818	0.33637281
633.016	0.33654077
633.213	0.33669243
633.41	0.33686276
633.607	0.33694812
633.804	0.33711255
634.001	0.33727647
634.199	0.33760083
634.396	0.33775184
634.593	0.33786202
634.79	0.33804924
634.987	0.33829362
635.184	0.33843927
635.381	0.33866996
635.578	0.33886759
635.775	0.33902771
635.972	0.3392754
636.169	0.33940027
636.366	0.33945027
636.563	0.33959962
636.76	0.33963012
636.957	0.33973105
637.153	0.33976378
637.35	0.33998821
637.547	0.34009666
637.744	0.34029148
637.941	0.34050464
638.138	0.34078937
638.334	0.34089069
638.531	0.34124485
638.728	0.3413702
638.925	0.34168139
639.121	0.34190442
639.318	0.3420551
639.515	0.34213551
639.711	0.3423962
639.908	0.34232429
640.105	0.34246719
640.301	0.34255611
640.498	0.34269345
640.695	0.34293428
640.891	0.34314837
641.088	0.34324628
641.284	0.34358475
641.481	0.34374652
641.677	0.34384396
641.874	0.34395524
642.07	0.34414459
642.267	0.3444437
642.463	0.34468456
642.66	0.34494869
642.856	0.34510094
643.053	0.34521349
643.249	0.34543133
643.445	0.34550913
643.642	0.34557992
643.838	0.34575339
644.034	0.34585903
644.231	0.34601668
644.427	0.34630955
644.623	0.34651885
644.82	0.34673565
645.016	0.34690226
645.212	0.34696804
645.408	0.34715669
645.604	0.34753464
645.801	0.34770691
645.997	0.34790788
646.193	0.34796238
646.389	0.34821284
646.585	0.34839654
646.781	0.34863258
646.977	0.34873788
647.173	0.34886832
647.37	0.34897835
647.566	0.34926762
647.762	0.34937428
647.958	0.34966574
648.154	0.34973125
648.35	0.34985871
648.546	0.35001598
648.742	0.35033206
648.937	0.35036972
649.133	0.35065221
649.329	0.35094053
649.525	0.35117341
649.721	0.35140808
649.917	0.35177715
650.113	0.35179745
650.309	0.35218942
650.504	0.35221875
650.7	0.35222261
650.896	0.35234515
651.092	0.35240446
651.287	0.35242859
651.483	0.35280417
651.679	0.3528668
651.875	0.35313001
652.07	0.35328471
652.266	0.35348607
652.462	0.35371609
652.657	0.35391917
652.853	0.35389443
653.048	0.35405319
653.244	0.35409125
653.44	0.35424767
653.635	0.35431181
653.831	0.35452588
654.026	0.35474296
654.222	0.35496577
654.417	0.35526108
654.613	0.35549344
654.808	0.35564141
655.004	0.35597091
655.199	0.35605799
655.394	0.35612367
655.59	0.35632848
655.785	0.35635952
655.98	0.35654335
656.176	0.35663199
656.371	0.3567116
656.566	0.35691829
656.762	0.35699345
656.957	0.35706221
657.152	0.35718402
657.348	0.35731987
657.543	0.357544
657.738	0.35773859
657.933	0.35782544
658.128	0.35799642
658.324	0.3581053
658.519	0.35832591
658.714	0.35849491
658.909	0.35858678
659.104	0.35872514
659.299	0.35892425
659.494	0.35909421
659.689	0.3593149
659.884	0.35938106
660.079	0.35943135
660.274	0.35963646
660.469	0.35978955
660.664	0.35993345
660.859	0.36005109
661.054	0.36012177
661.249	0.36026268
661.444	0.3604062
661.639	0.3604397
661.834	0.36042657
662.029	0.36049494
662.224	0.36057143
662.418	0.36073376
662.613	0.36086085
662.808	0.36094156
663.003	0.36115668
663.198	0.3613517
663.392	0.36141814
663.587	0.36178374
663.782	0.36182689
663.977	0.36190637
664.171	0.36208414
664.366	0.36219175
664.561	0.36227554
664.755	0.36250802
664.95	0.36243327
665.144	0.36260077
665.339	0.36279906
665.534	0.36291315
665.728	0.36304078
665.923	0.3631789
666.117	0.36320302
666.312	0.36329933
666.506	0.36350042
666.701	0.36349658
666.895	0.36358986
667.09	0.36364206
667.284	0.36375264
667.479	0.36386245
667.673	0.36396446
667.867	0.36403327
668.062	0.36414097
668.256	0.36426489
668.45	0.36443564
668.645	0.36455417
668.839	0.36466063
669.033	0.36478679
669.228	0.36485591
669.422	0.36504802
669.616	0.36509512
669.81	0.36518481
670.004	0.36515354
670.199	0.36526847
670.393	0.36533566
670.587	0.36538611
670.781	0.36542491
670.975	0.3655125
671.169	0.36551071
671.363	0.36567987
671.558	0.36575011
671.752	0.36589774
671.946	0.36604382
672.14	0.36611193
672.334	0.36615849
672.528	0.36638571
672.722	0.36630923
672.916	0.36634305
673.11	0.36622131
673.304	0.36626465
673.497	0.3661832
673.691	0.36630057
673.885	0.36612201
674.079	0.36629787
674.273	0.36631117
674.467	0.36645127
674.661	0.36647911
674.854	0.36664139
675.048	0.36668244
675.242	0.3668508
675.436	0.36689678
675.629	0.36692523
675.823	0.36695554
676.017	0.3670075
676.211	0.36697648
676.404	0.36700686
676.598	0.36701704
676.792	0.36706468
676.985	0.36721998
677.179	0.36731892
677.372	0.36731857
677.566	0.3675674
677.76	0.3676568
677.953	0.36780826
678.147	0.3679148
678.34	0.36803276
678.534	0.36805815
678.727	0.36822125
678.921	0.36821958
679.114	0.36815316
679.307	0.36818358
679.501	0.36821878
679.694	0.36817917
679.888	0.36823488
680.081	0.36828999
680.274	0.36825487
680.468	0.36842622
680.661	0.36842666
680.854	0.36853353
681.048	0.36860344
681.241	0.36863654
681.434	0.36862309
681.627	0.36875334
681.821	0.36878478
682.014	0.36894721
682.207	0.36889955
682.4	0.36891419
682.593	0.36895819
682.786	0.36889929
682.98	0.36882358
683.173	0.36879963
683.366	0.36869734
683.559	0.36870505
683.752	0.36876604
683.945	0.3688301
684.138	0.36894894
684.331	0.36892846
684.524	0.36900563
684.717	0.36898145
684.91	0.36906099
685.103	0.36902893
685.296	0.36906344
685.489	0.36903206
685.682	0.36907344
685.874	0.3691435
686.067	0.36915665
686.26	0.36904119
686.453	0.3689749
686.646	0.36885346
686.839	0.36883716
687.031	0.36885454
687.224	0.36870927
687.417	0.36885509
687.61	0.36891561
687.802	0.36894605
687.995	0.36909351
688.188	0.36915992
688.38	0.36909467
688.573	0.36914906
688.766	0.36901064
688.958	0.36895006
689.151	0.36893509
689.343	0.36884644
689.536	0.36880371
689.729	0.36877649
689.921	0.36877554
690.114	0.3687439
690.306	0.36873692
690.499	0.36875462
690.691	0.36877514
690.884	0.36875704
691.076	0.36890438
691.268	0.36881821
691.461	0.36870747
691.653	0.36871445
691.846	0.36867697
692.038	0.36860992
692.23	0.36849879
692.423	0.3684631
692.615	0.36849458
692.807	0.36857003
692.999	0.36860905
693.192	0.36856321
693.384	0.36857945
693.576	0.36851601
693.768	0.36846644
693.961	0.36836994
694.153	0.36836785
694.345	0.36824898
694.537	0.36828859
694.729	0.36822894
694.921	0.36830307
695.113	0.36834656
695.305	0.36840133
695.498	0.36834497
695.69	0.36841067
695.882	0.36831274
696.074	0.36829531
696.266	0.36825604
696.458	0.36809362
696.65	0.36800291
696.842	0.36797308
697.033	0.36788954
697.225	0.3678019
697.417	0.36783351
697.609	0.36778447
697.801	0.36779165
697.993	0.36784535
698.185	0.36782813
698.376	0.36781656
698.568	0.36786551
698.76	0.367837
698.952	0.36780062
699.144	0.36776983
699.335	0.36771614
699.527	0.36769391
699.719	0.36763076
699.91	0.36766998
700.102	0.36757177
700.294	0.36756675
700.485	0.36756082
700.677	0.36745805
700.869	0.36744969
701.06	0.36753757
701.252	0.36738767
701.443	0.3673915
701.635	0.36739256
701.826	0.36740721
702.018	0.36750599
702.209	0.36750185
702.401	0.36736817
702.592	0.36744385
702.784	0.36736126
702.975	0.36732331
703.166	0.36724646
703.358	0.36707755
703.549	0.36705306
703.741	0.36705001
703.932	0.36702197
704.123	0.36700729
704.315	0.36700659
704.506	0.36708582
704.697	0.36718726
704.888	0.36727029
705.08	0.36726216
705.271	0.3672554
705.462	0.36721607
705.653	0.36723679
705.844	0.36709784
706.035	0.36706919
706.227	0.36687471
706.418	0.36676171
706.609	0.36675234
706.8	0.36677794
706.991	0.36664666
707.182	0.3665994
707.373	0.36646978
707.564	0.36646926
707.755	0.3664483
707.946	0.36639499
708.137	0.36632703
708.328	0.36626798
708.519	0.36625542
708.71	0.36628936
708.901	0.36618903
709.092	0.3662061
709.283	0.36612828
709.473	0.36611923
709.664	0.36622329
709.855	0.36614362
710.046	0.3661241
710.237	0.36610478
710.427	0.36609074
710.618	0.36607206
710.809	0.36598181
711	0.36587997
711.19	0.36585214
711.381	0.36587976
711.572	0.36594423
711.762	0.36598325
711.953	0.36591569
712.144	0.3659454
712.334	0.36590602
712.525	0.36601482
712.715	0.36597618
712.906	0.36595604
713.097	0.36587629
713.287	0.36595295
713.478	0.36596811
713.668	0.36609501
713.859	0.3660314
714.049	0.36595169
714.239	0.36592126
714.43	0.36595693
714.62	0.3659054
714.811	0.36585149
715.001	0.36580621
715.191	0.36583512
715.382	0.36585883
715.572	0.36594348
715.762	0.36590227
715.953	0.36595322
716.143	0.36596044
716.333	0.36583703
716.523	0.36576947
716.714	0.36581553
716.904	0.36568695
717.094	0.36579998
717.284	0.36579222
717.474	0.36586669
717.664	0.36599467
717.855	0.36607249
718.045	0.36605442
718.235	0.36616109
718.425	0.36610924
718.615	0.36613284
718.805	0.36614522
718.995	0.36611365
719.185	0.36613622
719.375	0.36613261
719.565	0.36619986
719.755	0.36621626
719.945	0.36618681
720.135	0.36626674
720.325	0.36637467
720.515	0.36640571
720.704	0.36647651
720.894	0.36642078
721.084	0.36640059
721.274	0.36646187
721.464	0.3664018
721.654	0.36636711
721.843	0.36641162
722.033	0.36648444
722.223	0.36650203
722.413	0.36661782
722.602	0.36665225
722.792	0.36677662
722.982	0.36686349
723.171	0.36692029
723.361	0.36695615
723.55	0.36709323
723.74	0.3670477
723.93	0.36700127
724.119	0.3669862
724.309	0.36690953
724.498	0.36686446
724.688	0.3668146
724.877	0.36674873
725.067	0.36679324
725.256	0.36693119
725.446	0.36694077
725.635	0.36689188
725.825	0.36684333
726.014	0.36681565
726.203	0.36674321
726.393	0.36668455
726.582	0.36657136
726.771	0.36650805
726.961	0.3665388
727.15	0.36648072
727.339	0.36641475
727.529	0.36646152
727.718	0.36643179
727.907	0.36641948
728.096	0.36640806
728.286	0.36633003
728.475	0.36639845
728.664	0.36646623
728.853	0.36647557
729.042	0.36649011
729.231	0.36653831
729.42	0.36656234
729.609	0.36666072
729.799	0.36659283
729.988	0.36657713
730.177	0.36648483
730.366	0.36645076
730.555	0.3663833
730.744	0.36631425
730.933	0.36631226
731.122	0.36635455
731.31	0.36635705
731.499	0.36639809
731.688	0.36644683
731.877	0.3664176
732.066	0.36642859
732.255	0.36636133
732.444	0.36636561
732.632	0.36634736
732.821	0.36633856
733.01	0.36637452
733.199	0.36637657
733.388	0.36635823
733.576	0.36634526
733.765	0.36633832
733.954	0.36634573
734.142	0.36633767
734.331	0.36635692
734.52	0.36639669
734.708	0.3664212
734.897	0.36651598
735.086	0.36648426
735.274	0.36642303
735.463	0.36642633
735.651	0.36630118
735.84	0.36629772
736.028	0.36634367
736.217	0.3663676
736.405	0.36637415
736.594	0.36646591
736.782	0.36644295
736.971	0.36651766
737.159	0.36645567
737.347	0.36641974
737.536	0.36635286
737.724	0.36640076
737.912	0.36637771
738.101	0.36640374
738.289	0.36647043
738.477	0.36656355
738.666	0.36661066
738.854	0.36661425
739.042	0.36669646
739.23	0.36670076
739.418	0.36668283
739.607	0.36661466
739.795	0.36661227
739.983	0.36665109
740.171	0.36673927
740.359	0.36672326
740.547	0.36670104
740.735	0.3668395
740.923	0.36697512
741.112	0.3670654
741.3	0.36704547
741.488	0.36703949
741.676	0.36714586
741.864	0.36729031
742.052	0.36735627
742.239	0.36728294
742.427	0.36725617
742.615	0.36731415
742.803	0.36737738
742.991	0.36735697
743.179	0.36737012
743.367	0.36736162
743.555	0.36745521
743.742	0.36750108
743.93	0.36760566
744.118	0.36766896
744.306	0.36773701
744.494	0.36776636
744.681	0.36782625
744.869	0.36788976
745.057	0.36798281
745.244	0.36800113
745.432	0.36805558
745.62	0.36801451
745.807	0.36806239
745.995	0.36803748
746.182	0.36795686
746.37	0.36797711
746.558	0.36799118
746.745	0.36791701
746.933	0.36795412
747.12	0.36801458
747.308	0.36820566
747.495	0.36841199
747.683	0.36853738
747.87	0.36854248
748.057	0.36868111
748.245	0.36882897
748.432	0.36894105
748.62	0.36887242
748.807	0.36883585
748.994	0.36883303
749.182	0.36884822
749.369	0.36883284
749.556	0.36882051
749.743	0.36878719
749.931	0.36879971
750.118	0.36886415
750.305	0.36885151
750.492	0.3689234
750.68	0.36900318
750.867	0.36903833
751.054	0.36909432
751.241	0.36909865
751.428	0.36906241
751.615	0.36911109
751.802	0.3691284
751.989	0.36916337
752.176	0.3692219
752.363	0.36934565
752.55	0.3695038
752.737	0.36956423
752.924	0.36959485
753.111	0.36968678
753.298	0.36978554
753.485	0.36984087
753.672	0.36977987
753.859	0.36987815
754.046	0.37000621
754.233	0.37008481
754.42	0.37017889
754.606	0.37009528
754.793	0.3700909
754.98	0.37010917
755.167	0.3700324
755.353	0.37007186
755.54	0.37016063
755.727	0.37018092
755.914	0.37031045
756.1	0.37044435
756.287	0.37054128
756.474	0.37066429
756.66	0.37078173
756.847	0.37092914
757.033	0.37098166
757.22	0.37108481
757.407	0.37119665
757.593	0.37131165
757.78	0.37133719
757.966	0.37143018
758.153	0.3714289
758.339	0.37149593
758.526	0.37149322
758.712	0.3714534
758.898	0.37149362
759.085	0.37147163
759.271	0.37145096
759.458	0.37143557
759.644	0.37155776
759.83	0.37167074
760.017	0.37182157
760.203	0.37185761
760.389	0.37201606
760.576	0.37203387
760.762	0.37208266
760.948	0.37204139
761.134	0.3720887
761.32	0.37205585
761.507	0.37205774
761.693	0.37216153
761.879	0.37225348
762.065	0.37232883
762.251	0.37243616
762.437	0.37249155
762.623	0.37252744
762.809	0.37259632
762.995	0.3725846
763.181	0.37257493
763.367	0.37258478
763.553	0.37259667
763.739	0.37270732
763.925	0.37283211
764.111	0.37300462
764.297	0.37318171
764.483	0.37336935
764.669	0.37351585
764.855	0.37361274
765.041	0.37361255
765.227	0.37359512
765.412	0.37361341
765.598	0.37359476
765.784	0.3735918
765.97	0.37367729
766.156	0.37370475
766.341	0.3737679
766.527	0.37379165
766.713	0.37380054
766.898	0.37391053
767.084	0.37399378
767.27	0.37397265
767.455	0.37401642
767.641	0.37410109
767.827	0.37423859
768.012	0.37431504
768.198	0.37430032
768.383	0.37431961
768.569	0.37443567
768.754	0.37456538
768.94	0.3746664
769.125	0.37476111
769.311	0.37484323
769.496	0.3748682
769.682	0.37494817
769.867	0.37498397
770.052	0.37506413
770.238	0.37510672
770.423	0.37511402
770.608	0.37521092
770.794	0.37535455
770.979	0.37540495
771.164	0.37548963
771.35	0.37553937
771.535	0.37552283
771.72	0.37551165
771.905	0.37550676
772.09	0.37550099
772.276	0.37551
772.461	0.37544718
772.646	0.37542258
772.831	0.37548721
773.016	0.37563722
773.201	0.3757029
773.386	0.37578366
773.571	0.37571425
773.756	0.37573086
773.941	0.37567504
774.126	0.37576449
774.311	0.37568346
774.496	0.3756726
774.681	0.37563616
774.866	0.37580003
775.051	0.37586569
775.236	0.37599349
775.421	0.37587618
775.606	0.37587603
775.791	0.37584848
775.976	0.37586246
776.16	0.37587576
776.345	0.37592267
776.53	0.37602016
776.715	0.37618809
776.899	0.37631112
777.084	0.37648598
777.269	0.37657778
777.454	0.37660426
777.638	0.37668517
777.823	0.37669472
778.008	0.37663517
778.192	0.3766659
778.377	0.37658202
778.561	0.37657114
778.746	0.37655568
778.931	0.376553
779.115	0.3766425
779.3	0.37668189
779.484	0.37673162
779.669	0.37674962
779.853	0.37681653
780.037	0.37701732
780.222	0.3771559
780.406	0.37709766
780.591	0.37722019
780.775	0.37726558
780.959	0.37734897
781.144	0.37730427
781.328	0.37725757
781.512	0.37713431
781.697	0.37713779
781.881	0.37706394
782.065	0.37709912
782.249	0.37701397
782.434	0.37708367
782.618	0.37712955
782.802	0.37721151
782.986	0.37729674
783.17	0.37741189
783.354	0.37746237
783.539	0.37760622
783.723	0.37761764
783.907	0.37756889
784.091	0.37756816
784.275	0.37756348
784.459	0.37754294
784.643	0.37748735
784.827	0.37742473
785.011	0.37737097
785.195	0.3773684
785.379	0.37738618
785.563	0.37734297
785.747	0.37733363
785.93	0.37749397
786.114	0.3774421
786.298	0.37756849
786.482	0.37763399
786.666	0.37767675
786.85	0.37773063
787.033	0.37774501
787.217	0.37753978
787.401	0.37761072
787.585	0.37759196
787.768	0.37761797
787.952	0.37753765
788.136	0.3775518
788.319	0.37748797
788.503	0.37746401
788.687	0.37749038
788.87	0.37746261
789.054	0.37735219
789.237	0.37734197
789.421	0.37722804
789.605	0.37720421
789.788	0.3772146
789.972	0.37720425
790.155	0.37706967
790.338	0.37705043
790.522	0.37702615
790.705	0.37702381
790.889	0.37693939
791.072	0.37697525
791.256	0.37695452
791.439	0.37705715
791.622	0.37709398
791.806	0.37724265
791.989	0.37734517
792.172	0.37749188
792.355	0.3775705
792.539	0.3776593
792.722	0.37773395
792.905	0.37772409
793.088	0.3776102
793.271	0.37755918
793.455	0.37751662
793.638	0.3774109
793.821	0.37727442
794.004	0.37719956
794.187	0.37725539
794.37	0.37731544
794.553	0.3774059
794.736	0.37744487
794.919	0.37753818
795.102	0.37762427
795.285	0.37763347
795.468	0.37753263
795.651	0.37745939
795.834	0.37737481
796.017	0.3773338
796.2	0.37719175
796.383	0.37714247
796.566	0.37714568
796.749	0.37713848
796.931	0.37708892
797.114	0.37692833
797.297	0.37678839
797.48	0.376757
797.663	0.37671127
797.845	0.37666768
798.028	0.37669578
798.211	0.37659845
798.393	0.37660548
798.576	0.3766979
798.759	0.376616
798.941	0.37651563
799.124	0.37645793
799.307	0.37647196
799.489	0.37657104
799.672	0.37654556
799.854	0.37645009
800.037	0.37650255
800.219	0.37649425
800.402	0.37650817
800.584	0.37636333
800.767	0.37624203
800.949	0.37627326
801.132	0.37636562
801.314	0.3764069
801.496	0.3764176
801.679	0.3762817
801.861	0.37629009
802.043	0.37627942
802.226	0.37630269
802.408	0.37620501
802.59	0.37617291
802.772	0.37614658
802.955	0.37618801
803.137	0.37607765
803.319	0.37604907
803.501	0.37592769
803.684	0.37593992
803.866	0.37581844
804.048	0.37577624
804.23	0.37576146
804.412	0.37588665
804.594	0.37583312
804.776	0.37591848
804.958	0.37584282
805.14	0.37585609
805.322	0.37583519
805.504	0.37579062
805.686	0.37563972
805.868	0.37574263
806.05	0.37555412
806.232	0.37552681
806.414	0.37551916
806.596	0.37550571
806.778	0.3754015
806.96	0.37539706
807.141	0.37517165
807.323	0.3752515
807.505	0.37515197
807.687	0.37507252
807.869	0.37489084
808.05	0.37482505
808.232	0.37473198
808.414	0.37482145
808.595	0.3747256
808.777	0.37474884
808.959	0.37474993
809.14	0.37487444
809.322	0.37492542
809.504	0.37483675
809.685	0.37474426
809.867	0.37467743
810.048	0.37454817
810.23	0.3744658
810.411	0.37432818
810.593	0.37419604
810.774	0.3741781
810.956	0.37407551
811.137	0.37389841
811.319	0.37381022
811.5	0.37359587
811.681	0.37354062
811.863	0.37347238
812.044	0.37338475
812.225	0.37345259
812.407	0.37354317
812.588	0.37352834
812.769	0.37353686
812.951	0.37348525
813.132	0.37345645
813.313	0.37346973
813.494	0.37319603
813.675	0.3730174
813.857	0.37295935
814.038	0.37296701
814.219	0.37280623
814.4	0.3726719
814.581	0.37264705
814.762	0.37268395
814.943	0.37269441
815.124	0.37261926
815.305	0.37256586
815.486	0.37266678
815.667	0.37267556
815.848	0.37257011
816.029	0.37249224
816.21	0.3723581
816.391	0.37236729
816.572	0.3722039
816.753	0.37205507
816.934	0.37183577
817.115	0.37162676
817.295	0.37148555
817.476	0.37121951
817.657	0.37092428
817.838	0.37087607
818.019	0.37062105
818.199	0.3705669
818.38	0.37043822
818.561	0.37037048
818.741	0.3703923
818.922	0.37038774
819.103	0.37025291
819.283	0.37030153
819.464	0.37032657
819.645	0.37034617
819.825	0.37018883
820.006	0.37013824
820.186	0.37009347
820.367	0.37002641
820.547	0.3698529
820.728	0.36961419
820.908	0.3694724
821.089	0.36957955
821.269	0.36949594
821.45	0.36948756
821.63	0.36932983
821.81	0.36937706
821.991	0.36940571
822.171	0.36935023
822.351	0.36918152
822.532	0.36903165
822.712	0.36874348
822.892	0.36865215
823.072	0.36845362
823.253	0.36834644
823.433	0.36829496
823.613	0.36822556
823.793	0.36823384
823.973	0.36824544
824.154	0.36820709
824.334	0.36817623
824.514	0.36805189
824.694	0.36794047
824.874	0.36759935
825.054	0.367504
825.234	0.36726718
825.414	0.36693981
825.594	0.36671038
825.774	0.36651139
825.954	0.36629333
826.134	0.3661684
826.314	0.36594818
826.494	0.36593127
826.674	0.36579246
826.854	0.3655967
827.033	0.36544666
827.213	0.36550678
827.393	0.36557603
827.573	0.3655617
827.753	0.36534669
827.932	0.36547009
828.112	0.3655413
828.292	0.36554339
828.472	0.36522383
828.651	0.36510361
828.831	0.36484196
829.011	0.36475684
829.19	0.36454343
829.37	0.36435926
829.549	0.36426932
829.729	0.36414331
829.909	0.3639666
830.088	0.36385914
830.268	0.3636039
830.447	0.36341839
830.627	0.36320766
830.806	0.36295976
830.986	0.36283165
831.165	0.36275894
831.344	0.36263736
831.524	0.36257553
831.703	0.36244722
831.883	0.36224964
832.062	0.36222111
832.241	0.36211316
832.421	0.36194398
832.6	0.36183359
832.779	0.36171824
832.958	0.36162738
833.138	0.36148398
833.317	0.36133653
833.496	0.36126607
833.675	0.36111076
833.854	0.36110389
834.034	0.36097123
834.213	0.36076033
834.392	0.36080587
834.571	0.36052687
834.75	0.36030467
834.929	0.36015244
835.108	0.35985106
835.287	0.35967986
835.466	0.35951391
835.645	0.35919345
835.824	0.35895455
836.003	0.35873598
836.182	0.35850126
836.361	0.35849123
836.54	0.35836116
836.719	0.35834121
836.897	0.35824355
837.076	0.3581809
837.255	0.3580441
837.434	0.35802139
837.613	0.35777998
837.791	0.35762762
837.97	0.35737201
838.149	0.35723066
838.328	0.35711519
838.506	0.35701394
838.685	0.35670965
838.864	0.3566032
839.042	0.35641904
839.221	0.35638413
839.4	0.35630934
839.578	0.35609623
839.757	0.35587647
839.935	0.35585286
840.114	0.35580014
840.292	0.35568302
840.471	0.35549959
840.649	0.35531937
840.828	0.35525804
841.006	0.35525487
841.185	0.35501158
841.363	0.35483431
841.541	0.35459747
841.72	0.35458392
841.898	0.35446438
842.076	0.3542933
842.255	0.35402792
842.433	0.35396523
842.611	0.35370133
842.789	0.353531
842.968	0.35328565
843.146	0.3529869
843.324	0.35286418
843.502	0.35272615
843.68	0.35261723
843.859	0.35238678
844.037	0.35232878
844.215	0.35200619
844.393	0.35185971
844.571	0.3516213
844.749	0.35150113
844.927	0.35121868
845.105	0.35093848
845.283	0.3506604
845.461	0.35053691
845.639	0.35038377
845.817	0.35021411
845.995	0.35019752
846.173	0.35016428
846.351	0.35021981
846.529	0.35014735
846.706	0.3500561
846.884	0.3498834
847.062	0.34971787
847.24	0.34929509
847.418	0.34893112
847.595	0.34858587
847.773	0.34829853
847.951	0.34802764
848.129	0.34790637
848.306	0.34779653
848.484	0.34763636
848.662	0.34765312
848.839	0.34769391
849.017	0.34770777
849.194	0.34763646
849.372	0.34749942
849.549	0.34717628
849.727	0.34691454
849.905	0.34638232
850.082	0.34594071
850.26	0.34554235
850.437	0.34533074
850.614	0.34512184
850.792	0.34502271
850.969	0.34515942
851.147	0.34535607
851.324	0.34533928
851.501	0.34538026
851.679	0.34519911
851.856	0.34503166
852.033	0.3449598
852.211	0.34460682
852.388	0.34419137
852.565	0.34397576
852.742	0.34381719
852.92	0.34361594
853.097	0.34339366
853.274	0.3431506
853.451	0.34285668
853.628	0.34264961
853.805	0.34244488
853.982	0.34217247
854.159	0.34192122
854.336	0.34165218
854.514	0.34141379
854.691	0.34122712
854.868	0.34115131
855.045	0.34093141
855.221	0.34081512
855.398	0.34071959
855.575	0.34055236
855.752	0.34035776
855.929	0.34033861
856.106	0.34005021
856.283	0.33991595
856.46	0.33975775
856.637	0.33962776
856.813	0.3395541
856.99	0.33939864
857.167	0.3392057
857.344	0.33919935
857.52	0.33900302
857.697	0.33862047
857.874	0.33831603
858.05	0.3381352
858.227	0.33796201
858.404	0.33781247
858.58	0.33764731
858.757	0.33758542
858.933	0.33751912
859.11	0.33744345
859.287	0.33711262
859.463	0.33677364
859.64	0.33658545
859.816	0.33618051
859.993	0.3358518
860.169	0.33569125
860.345	0.33542378
860.522	0.33530795
860.698	0.33521731
860.875	0.33495038
861.051	0.33489709
861.227	0.33475054
861.404	0.33458377
861.58	0.33452999
861.756	0.33438717
861.932	0.33440104
862.109	0.33413702
862.285	0.33398081
862.461	0.3339676
862.637	0.33370112
862.813	0.33340318
862.99	0.33311979
863.166	0.33275326
863.342	0.33285865
863.518	0.33259617
863.694	0.33236142
863.87	0.33217644
864.046	0.33204275
864.222	0.33207651
864.398	0.33209415
864.574	0.33163403
864.75	0.33151169
864.926	0.33133455
865.102	0.33115502
865.278	0.33082301
865.454	0.33047235
865.63	0.32995513
865.805	0.32962048
865.981	0.32933291
866.157	0.32902436
866.333	0.32869784
866.509	0.32866728
866.684	0.32863095
866.86	0.32873992
867.036	0.32889623
867.212	0.32877146
867.387	0.32864999
867.563	0.32868257
867.739	0.32845769
867.914	0.32813178
868.09	0.32768416
868.265	0.32723732
868.441	0.32695814
868.617	0.32663633
868.792	0.32625199
868.968	0.32603712
869.143	0.32596882
869.319	0.32601204
869.494	0.3259259
869.67	0.32592215
869.845	0.32576584
870.02	0.32574718
870.196	0.3255601
870.371	0.32529623
870.546	0.32498582
870.722	0.32480848
870.897	0.32451194
871.072	0.32442661
871.248	0.32420212
871.423	0.32392251
871.598	0.32376582
871.773	0.32348146
871.949	0.32329243
872.124	0.32322971
872.299	0.32295711
872.474	0.32282296
872.649	0.32273833
872.824	0.32242662
872.999	0.32233682
873.174	0.32221698
873.349	0.32189535
873.524	0.3216039
873.699	0.32132885
873.874	0.3211287
874.049	0.32092044
874.224	0.32069098
874.399	0.32019378
874.574	0.32020758
874.749	0.32006215
874.924	0.3198156
875.099	0.31949337
875.274	0.31927366
875.449	0.31917744
875.623	0.31922613
875.798	0.31882081
875.973	0.31870863
876.148	0.31852268
876.322	0.31838072
876.497	0.31813552
876.672	0.31773583
876.846	0.3174807
877.021	0.3171932
877.196	0.31657754
877.37	0.31626225
877.545	0.31605378
877.72	0.31588147
877.894	0.31559703
878.069	0.31522393
878.243	0.314799
878.418	0.31483066
878.592	0.31450054
878.767	0.31411327
878.941	0.31388626
879.116	0.31367127
879.29	0.31334778
879.464	0.31321069
879.639	0.31298339
879.813	0.31298146
879.987	0.31293354
880.162	0.31274007
880.336	0.31261918
880.51	0.31275859
880.685	0.3128069
880.859	0.31269582
881.033	0.3125451
881.207	0.31231961
881.381	0.31220812
881.556	0.31197333
881.73	0.31156849
881.904	0.31136677
882.078	0.31115841
882.252	0.31094699
882.426	0.31058198
882.6	0.31026844
882.774	0.31012756
882.948	0.310034
883.122	0.30959429
883.296	0.3093779
883.47	0.30915725
883.644	0.3092095
883.818	0.30895083
883.992	0.30876653
884.166	0.30864697
884.34	0.30869793
884.514	0.30871255
884.687	0.30861194
884.861	0.30835518
885.035	0.30842985
885.209	0.30844709
885.382	0.30840275
885.556	0.3084321
885.73	0.30820873
885.904	0.30830557
886.077	0.30812518
886.251	0.30793932
886.425	0.30767293
886.598	0.3073908
886.772	0.30682161
886.945	0.30634711
887.119	0.30563466
887.292	0.3054151
887.466	0.30527071
887.64	0.30494015
887.813	0.30465996
887.986	0.30463018
888.16	0.30465968
888.333	0.30448484
888.507	0.30437742
888.68	0.30400203
888.854	0.3038158
889.027	0.30354648
889.2	0.30344847
889.374	0.3031286
889.547	0.30318725
889.72	0.30300749
889.893	0.30278827
890.067	0.30261898
890.24	0.30235441
890.413	0.30205184
890.586	0.30179672
890.759	0.3015931
890.933	0.30134222
891.106	0.30137338
891.279	0.30134147
891.452	0.30138012
891.625	0.30109421
891.798	0.30109925
891.971	0.30090024
892.144	0.30063417
892.317	0.30025086
892.49	0.29986288
892.663	0.29960535
892.836	0.29955883
893.009	0.2992505
893.182	0.29886391
893.355	0.29873302
893.527	0.29849166
893.7	0.29856593
893.873	0.29829023
894.046	0.29787392
894.219	0.29775193
894.391	0.29761384
894.564	0.29746684
894.737	0.2974099
894.91	0.29697902
895.082	0.29674665
895.255	0.29655986
895.428	0.29618215
895.6	0.29587133
895.773	0.29545079
895.945	0.29511625
896.118	0.29492896
896.291	0.29482799
896.463	0.29487217
896.636	0.29485729
896.808	0.29480575
896.981	0.2947605
897.153	0.2945991
897.326	0.29459312
897.498	0.29441435
897.67	0.29426065
897.843	0.29419278
898.015	0.29424496
898.187	0.29428234
898.36	0.29405667
898.532	0.29362648
898.704	0.29342146
898.877	0.29305535
899.049	0.29284657
899.221	0.29261783
899.393	0.29224879
899.566	0.29226135
899.738	0.29238121
899.91	0.29242865
900.082	0.2922771
900.254	0.29201388
900.426	0.29164485
900.598	0.29156487
900.77	0.29111387
900.942	0.29077291
901.114	0.29039733
901.286	0.29019266
901.458	0.29007497
901.63	0.28993626
901.802	0.28962707
901.974	0.28954026
902.146	0.28932268
902.318	0.28917805
902.49	0.28904515
902.662	0.28881968
902.834	0.28861035
903.005	0.28873548
903.177	0.28873799
903.349	0.28869997
903.521	0.28841537
903.693	0.28832183
903.864	0.2880443
904.036	0.28796777
904.208	0.28735403
904.379	0.28692557
904.551	0.28671509
904.723	0.28662855
904.894	0.28627968
905.066	0.28619902
905.237	0.28601397
905.409	0.28597386
905.58	0.28592539
905.752	0.28558138
905.923	0.28522026
906.095	0.28491893
906.266	0.28456939
906.438	0.28423762
906.609	0.28406966
906.78	0.28372744
906.952	0.28367782
907.123	0.28347844
907.295	0.28353872
907.466	0.28343509
907.637	0.28334473
907.808	0.28309715
907.98	0.28294808
908.151	0.2826005
908.322	0.28256138
908.493	0.28235104
908.665	0.28233977
908.836	0.28210172
909.007	0.28204076
909.178	0.28208516
909.349	0.28212552
909.52	0.28205202
909.691	0.28176939
909.862	0.2815466
910.033	0.28145952
910.204	0.281309
910.375	0.2810107
910.546	0.28064133
910.717	0.28040764
910.888	0.28033496
911.059	0.28009639
911.23	0.27986175
911.401	0.27958428
911.572	0.27938637
911.742	0.27929795
911.913	0.279115
912.084	0.27882434
912.255	0.27865597
912.426	0.27841273
912.596	0.27821956
912.767	0.27817957
912.938	0.27805312
913.108	0.27790916
913.279	0.27785394
913.45	0.27770442
913.62	0.27766936
913.791	0.27779086
913.962	0.27762771
914.132	0.2774564
914.303	0.277243
914.473	0.27715811
914.644	0.2769314
914.814	0.27680578
914.985	0.2764571
915.155	0.27625365
915.326	0.27601558
915.496	0.27577502
915.666	0.27545789
915.837	0.27560091
916.007	0.27516817
916.177	0.27473667
916.348	0.27458243
916.518	0.27451549
916.688	0.27442578
916.858	0.27428053
917.029	0.27372711
917.199	0.2737273
917.369	0.27382497
917.539	0.27379313
917.709	0.27364273
917.88	0.27337164
918.05	0.27288629
918.22	0.27276584
918.39	0.27244335
918.56	0.27221715
918.73	0.27171515
918.9	0.27126941
919.07	0.27095108
919.24	0.27115085
919.41	0.27101453
919.58	0.27087256
919.75	0.27072068
919.92	0.27061836
920.09	0.27073467
920.26	0.27065356
920.429	0.27059367
920.599	0.27055506
920.769	0.27063755
920.939	0.27029467
921.109	0.27016083
921.278	0.26978931
921.448	0.26988923
921.618	0.26960201
921.787	0.26941225
921.957	0.26920763
922.127	0.26904259
922.296	0.26917874
922.466	0.26905459
922.636	0.26901447
922.805	0.26907943
922.975	0.26900446
923.144	0.2688655
923.314	0.26889225
923.483	0.26862872
923.653	0.26864378
923.822	0.2683177
923.992	0.26801162
924.161	0.26761816
924.331	0.26728951
924.5	0.26714779
924.669	0.26665954
924.839	0.26629796
925.008	0.26610948
925.177	0.2655162
925.347	0.26542521
925.516	0.26549398
925.685	0.26527396
925.854	0.26544934
926.023	0.26543477
926.193	0.2653306
926.362	0.26555151
926.531	0.26568088
926.7	0.26526391
926.869	0.26534304
927.038	0.26477994
927.207	0.26457081
927.376	0.26439737
927.545	0.2642296
927.715	0.26383782
927.884	0.26382873
928.052	0.26362862
928.221	0.26351441
928.39	0.26328729
928.559	0.26291976
928.728	0.2627703
928.897	0.26266626
929.066	0.26257521
929.235	0.26220887
929.404	0.26206561
929.572	0.26182454
929.741	0.26188132
929.91	0.26176856
930.079	0.2615853
930.247	0.26129959
930.416	0.26143683
930.585	0.26145654
930.753	0.26140904
930.922	0.2613323
931.091	0.26113128
931.259	0.26085507
931.428	0.26114113
931.596	0.26069053
931.765	0.26073814
931.934	0.26070767
932.102	0.26002932
932.27	0.25999046
932.439	0.25964604
932.607	0.25898067
932.776	0.25915788
932.944	0.2588491
933.113	0.25888461
933.281	0.25913284
933.449	0.25846733
933.618	0.25823062
933.786	0.2583328
933.954	0.25771639
934.123	0.25741276
934.291	0.25729493
934.459	0.25698512
934.627	0.25729398
934.795	0.25773136
934.964	0.25740438
935.132	0.25726722
935.3	0.25710821
935.468	0.25647785
935.636	0.25656284
935.804	0.25604985
935.972	0.25566374
936.14	0.25555896
936.308	0.25535716
936.476	0.25557131
936.644	0.25572613
936.812	0.25529252
936.98	0.25536237
937.148	0.25523184
937.316	0.25435029
937.484	0.25505533
937.652	0.25432699
937.82	0.25442328
937.987	0.25420495
938.155	0.25422823
938.323	0.25385715
938.491	0.25364601
938.658	0.25364099
938.826	0.25367326
938.994	0.25303117
939.162	0.25338828
939.329	0.25321538
939.497	0.25348016
939.665	0.25409427
939.832	0.25422058
940	0.25455048
940.167	0.25480366
940.335	0.25436474
940.502	0.25357828
940.67	0.25327306
940.837	0.25378116
941.005	0.25259767
941.172	0.25188431
941.34	0.25210935
941.507	0.25352661
941.674	0.25565177
941.842	0.25643928
942.009	0.25747093
942.177	0.25574982
942.344	0.25688139
942.511	0.25689545
942.678	0.25692323
942.846	0.25505156
943.013	0.25455711
943.18	0.25329219
943.347	0.2549911
943.514	0.25324629
943.682	0.25491887
943.849	0.25228491
944.016	0.25094596
944.183	0.25134433
944.35	0.25129167
944.517	0.25248126
944.684	0.25408214
944.851	0.24817812
945.018	0.24889555
945.185	0.25045123
945.352	0.24958399
945.519	0.24942749
945.686	0.24892238
945.853	0.25145705
946.02	0.25263332
946.187	0.25272392
946.353	0.25407102
946.52	0.25375705
946.687	0.25346404
946.854	0.25262531
947.021	0.24892013
947.187	0.24970444
947.354	0.24873002
947.521	0.24784986
947.687	0.24587537
947.854	0.24569276
948.021	0.24535715
948.187	0.24573488
948.354	0.24602622
948.52	0.24609987
948.687	0.24634305
948.854	0.24828176
949.02	0.24781258
949.187	0.24764948
949.353	0.2475152
949.52	0.24638702
949.686	0.24571593
949.852	0.24520344
950.019	0.24514524
950.185	0.24538186
950.352	0.24555775
950.518	0.24505589
950.684	0.2454363
950.851	0.24584888
951.017	0.24456725
951.183	0.24398652
951.349	0.24383371
951.516	0.24133695
951.682	0.24156143
951.848	0.24073015
952.014	0.24039326
952.18	0.24112393
952.346	0.24114005
952.512	0.24081507
952.679	0.24298857
952.845	0.24285916
953.011	0.24345463
953.177	0.24329914
953.343	0.24177884
953.509	0.24204727
953.675	0.24205219
953.841	0.24056253
954.007	0.24080269
954.172	0.24125273
954.338	0.24067277
954.504	0.24082644
954.67	0.23935926
954.836	0.24018322
955.002	0.24066357
955.167	0.2392624
955.333	0.23726228
955.499	0.23708165
955.665	0.23688251
955.83	0.23791557
955.996	0.23634421
956.162	0.23610966
956.327	0.23619677
956.493	0.23654118
956.659	0.23742033
956.824	0.23632418
956.99	0.23557281
957.155	0.23605779
957.321	0.23609209
957.486	0.23571353
957.652	0.23595775
957.817	0.23573869
957.983	0.23641928
958.148	0.23588735
958.314	0.23541479
958.479	0.23407878
958.644	0.23461795
958.81	0.23443131
958.975	0.23435543
959.14	0.23415755
959.306	0.23376669
959.471	0.23271904
959.636	0.23211425
959.801	0.23263683
959.967	0.23320508
960.132	0.23295334
960.297	0.23268218
960.462	0.23343922
960.627	0.23380784
960.792	0.23479254
960.957	0.23435315
961.123	0.23421303
961.288	0.23341678
961.453	0.23389182
961.618	0.23354715
961.783	0.23353278
961.948	0.23258926
962.113	0.23139531
962.277	0.23002768
962.442	0.23031944
962.607	0.22996399
962.772	0.22975563
962.937	0.22912358
963.102	0.22931599
963.267	0.23002051
963.431	0.23031154
963.596	0.22983533
963.761	0.22940791
963.926	0.22869817
964.09	0.22916933
964.255	0.23007269
964.42	0.23004416
964.584	0.23042585
964.749	0.23010341
964.914	0.22995316
965.078	0.23014147
965.243	0.22946265
965.407	0.22826814
965.572	0.22746341
965.736	0.22757213
965.901	0.2279654
966.065	0.22862759
966.23	0.22865264
966.394	0.22950132
966.559	0.22946332
966.723	0.22952453
966.887	0.22844894
967.052	0.2274679
967.216	0.2264416
967.38	0.22535813
967.545	0.22501345
967.709	0.22568588
967.873	0.22571332
968.037	0.2259926
968.202	0.2264796
968.366	0.22734312
968.53	0.22817137
968.694	0.22745391
968.858	0.22669461
969.022	0.22566761
969.187	0.22526558
969.351	0.22532427
969.515	0.22479445
969.679	0.22406358
969.843	0.22402972
970.007	0.22341331
970.171	0.22461314
970.335	0.22510115
970.499	0.22427311
970.662	0.22415029
970.826	0.22485106
970.99	0.22538532
971.154	0.22588061
971.318	0.22531998
971.482	0.22413445
971.645	0.22520238
971.809	0.22532226
971.973	0.22508942
972.137	0.22429776
972.3	0.22429386
972.464	0.2240889
972.628	0.22566247
972.791	0.22574981
972.955	0.22517136
973.119	0.22490799
973.282	0.22461821
973.446	0.22434163
973.609	0.22430411
973.773	0.22358458
973.936	0.22210565
974.1	0.2220513
974.263	0.22170408
974.427	0.22171955
974.59	0.22141934
974.754	0.22141042
974.917	0.22058585
975.08	0.22106353
975.244	0.2204408
975.407	0.22037583
975.57	0.22042548
975.734	0.21992459
975.897	0.21991853
976.06	0.22042546
976.223	0.22033814
976.387	0.22093701
976.55	0.22095823
976.713	0.22037564
976.876	0.22038228
977.039	0.21950729
977.202	0.21926584
977.365	0.21873325
977.528	0.2184365
977.692	0.21836074
977.855	0.2176637
978.018	0.2177123
978.181	0.21755036
978.344	0.2167828
978.506	0.21654523
978.669	0.21603384
978.832	0.21499228
978.995	0.21569129
979.158	0.21631249
979.321	0.21584572
979.484	0.21592659
979.646	0.21581866
979.809	0.21657698
979.972	0.21682889
980.135	0.2174186
980.297	0.21681895
980.46	0.21712536
980.623	0.21725686
980.786	0.21696978
980.948	0.21670927
981.111	0.21616222
981.273	0.21502225
981.436	0.21489182
981.599	0.21507457
981.761	0.21425192
981.924	0.21473367
982.086	0.21391905
982.249	0.21467663
982.411	0.21521609
982.573	0.21490961
982.736	0.21628368
982.898	0.21659301
983.061	0.216081
983.223	0.21585675
983.385	0.21519023
983.548	0.21543094
983.71	0.21514831
983.872	0.21354406
984.034	0.21313482
984.197	0.21262429
984.359	0.21275905
984.521	0.21352598
984.683	0.21355317
984.845	0.2137052
985.008	0.21275482
985.17	0.21356846
985.332	0.21454548
985.494	0.21347397
985.656	0.21323565
985.818	0.21206078
985.98	0.2122789
986.142	0.21169128
986.304	0.21091695
986.466	0.20977983
986.628	0.21094678
986.79	0.21067392
986.952	0.21091682
987.113	0.2102868
987.275	0.21073082
987.437	0.21046116
987.599	0.211212
987.761	0.21169848
987.922	0.21085559
988.084	0.21016018
988.246	0.21025119
988.408	0.21040645
988.569	0.21059891
988.731	0.21133304
988.893	0.21056184
989.054	0.21127712
989.216	0.2115025
989.377	0.2106928
989.539	0.21047437
989.701	0.20952027
989.862	0.20802246
990.024	0.2065583
990.185	0.2059947
990.347	0.20637451
990.508	0.20630333
990.669	0.20676867
990.831	0.20742016
990.992	0.20874993
991.154	0.20882991
991.315	0.21025868
991.476	0.21018006
991.638	0.21036047
991.799	0.20968399
991.96	0.20959096
992.121	0.20871591
992.283	0.20951112
992.444	0.2080696
992.605	0.20684825
992.766	0.2066577
992.927	0.20593951
993.088	0.20630743
993.249	0.20591757
993.41	0.20476231
993.572	0.20508798
993.733	0.20625491
993.894	0.20677231
994.055	0.20614338
994.216	0.20534729
994.376	0.20375994
994.537	0.20545767
994.698	0.20428614
994.859	0.20315724
995.02	0.2030534
995.181	0.20272229
995.342	0.2032569
995.503	0.20351971
995.663	0.20315341
995.824	0.20278126
995.985	0.20581302
996.146	0.20640697
996.306	0.20754768
996.467	0.20745529
996.628	0.2088582
996.788	0.20780846
996.949	0.20991518
997.11	0.20654605
997.27	0.20460325
997.431	0.20486524
997.591	0.20235605
997.752	0.20024325
997.912	0.20095578
998.073	0.19951983
998.233	0.20098051
998.394	0.20081654
998.554	0.20169639
998.714	0.20317166
998.875	0.20357959
999.035	0.20210202
999.196	0.20191684
999.356	0.20152651
999.516	0.20194525
999.676	0.20232046
999.837	0.20312879
999.997	0.20310603
1000.157	0.20287859
1000.317	0.20124645
1000.477	0.20002805
1000.638	0.1996602
1000.798	0.1981893
1000.958	0.19865228
1001.118	0.19853624
1001.278	0.19946466
1001.438	0.20085236
1001.598	0.20072174
1001.758	0.20100999
1001.918	0.20080287
1002.078	0.19876455
1002.238	0.19937227
1002.398	0.19884617
1002.558	0.19771906
1002.718	0.19724584
1002.878	0.19724981
1003.037	0.19382458
1003.197	0.19426516
1003.357	0.19201752
1003.517	0.19446784
1003.677	0.19295209
1003.836	0.19264782
1003.996	0.19269802
1004.156	0.19478616
1004.315	0.19606562
1004.475	0.19860875
1004.635	0.19723603
1004.794	0.20066494
1004.954	0.20181853
1005.114	0.20071115
1005.273	0.20355869
1005.433	0.19970817
1005.592	0.20009851
1005.752	0.19928715
1005.911	0.19684998
1006.071	0.1964644
1006.23	0.196557
1006.389	0.1946027
1006.549	0.19613575
1006.708	0.19447575
1006.868	0.19165046
1007.027	0.19306446
1007.186	0.19476093
1007.345	0.19657386
1007.505	0.1971884
1007.664	0.19981656
1007.823	0.19945658
1007.982	0.20354636
1008.142	0.20254712
1008.301	0.20115262
1008.46	0.19910284
1008.619	0.19563853
1008.778	0.19323687
1008.937	0.19382227
1009.096	0.19401812
1009.255	0.19452928
1009.414	0.19195395
1009.573	0.19191298
1009.732	0.19545781
1009.891	0.19407171
1010.05	0.19406941
1010.209	0.19101483
1010.368	0.19138712
1010.527	0.19332959
1010.686	0.19492934
1010.845	0.19231087
1011.003	0.19534337
1011.162	0.19553842
1011.321	0.19342263
1011.48	0.19383683
1011.638	0.19288677
1011.797	0.19085939
1011.956	0.19371224
1012.115	0.19259343
1012.273	0.19236177
1012.432	0.1944865
1012.59	0.19139689
1012.749	0.19214526
1012.908	0.19166735
1013.066	0.1918224
1013.225	0.19037274
1013.383	0.19109748
1013.542	0.19204176
1013.7	0.195374
1013.859	0.19709457
1014.017	0.20071084
1014.175	0.19610087
1014.334	0.1992866
1014.492	0.19967186
1014.65	0.19907122
1014.809	0.19891581
1014.967	0.19701373
1015.125	0.19621121
1015.284	0.20260665
1015.442	0.20099725
1015.6	0.19909891
1015.758	0.19696549
1015.916	0.19385856
1016.075	0.19155042
1016.233	0.18967135
1016.391	0.18763932
1016.549	0.18705186
1016.707	0.18694259
1016.865	0.18986818
1017.023	0.18798469
1017.181	0.187639
1017.339	0.1893765
1017.497	0.18676971
1017.655	0.18586977
1017.813	0.18674958
1017.971	0.18656778
1018.129	0.18889987
1018.286	0.19084773
1018.444	0.18619535
1018.602	0.18866653
1018.76	0.19000097
1018.918	0.18891385
1019.075	0.18991117
1019.233	0.19141318
1019.391	0.19123475
1019.549	0.19735421
1019.706	0.19680248
1019.864	0.19554687
1020.022	0.19840328
1020.179	0.19593382
1020.337	0.19505049
1020.494	0.19256947
1020.652	0.18513971
1020.809	0.18508063
1020.967	0.18318281
1021.124	0.18188189
1021.282	0.18598486
1021.439	0.18522731
1021.597	0.18911476
1021.754	0.19125714
1021.911	0.19537259
1022.069	0.19172055
1022.226	0.1918247
1022.384	0.18607338
1022.541	0.18780093
1022.698	0.18485831
1022.855	0.18810219
1023.013	0.1857353
1023.17	0.19041255
1023.327	0.19159192
1023.484	0.19595963
1023.641	0.19419546
1023.798	0.20486426
1023.956	0.20944086
1024.113	0.200656
1024.27	0.19915982
1024.427	0.19784997
1024.584	0.19480929
1024.741	0.19404782
1024.898	0.18615153
1025.055	0.17676239
1025.212	0.18096203
1025.369	0.17730716
1025.525	0.17570343
1025.682	0.17409303
1025.839	0.17540079
1025.996	0.17449585
1026.153	0.18096067
1026.31	0.18559312
1026.466	0.19212595
1026.623	0.19659716
1026.78	0.20013591
1026.937	0.2007014
1027.093	0.20046693
1027.25	0.20647604
1027.407	0.19576234
1027.563	0.19150811
1027.72	0.1892313
1027.876	0.18603566
1028.033	0.18594399
1028.19	0.18658337
1028.346	0.17557565
1028.503	0.18030219
1028.659	0.18675657
1028.816	0.19010627
1028.972	0.1995739
1029.128	0.1988108
1029.285	0.20181605
1029.441	0.20572875
1029.598	0.20445341
1029.754	0.20492587
1029.91	0.19606215
1030.067	0.18606409
1030.223	0.19040601
1030.379	0.18573034
1030.535	0.1892718
1030.691	0.19150055
1030.848	0.19339545
1031.004	0.19799716
1031.16	0.2026574
1031.316	0.2064238
1031.472	0.21490598
1031.628	0.21425484
1031.784	0.21525583
1031.94	0.21293928
1032.096	0.2111397
1032.252	0.21053484
1032.408	0.2137769
1032.564	0.21033527
1032.72	0.21288364
1032.876	0.20348091
1033.032	0.20278054
1033.188	0.20532325
1033.344	0.21252737
1033.5	0.20865036
1033.655	0.20760382
1033.811	0.20436342
1033.967	0.2242303
