Data from 0_1_mm_pl_30pc_Absorbance__0__16-08-43-203.txt Node

Date: Fri Feb 24 16:08:43 CET 2023
User: Ange
Spectrometer: FLMT08341
Trigger mode: 0
Integration Time (sec): 1.000000E-2
Scans to average: 400
Electric dark correction enabled: true
Nonlinearity correction enabled: false
Boxcar width: 3
XAxis mode: Wavelengths
Number of Pixels in Spectrum: 3648
>>>>>Begin Spectral Data<<<<<
345.271	0.0593916
345.487	0.04009588
345.704	0.02791701
345.921	0.03508419
346.137	0.02088919
346.354	0.00401385
346.571	0.02630385
346.787	0.10612662
347.004	0.01285065
347.22	-0.0386909
347.437	-0.07969932
347.653	-0.03310701
347.87	-0.03243462
348.086	-0.89083313
348.303	1.48748404
348.519	0.41858822
348.736	0.41753923
348.952	0.41597638
349.169	0.43504136
349.385	0.45537395
349.601	0.45309382
349.818	0.44974903
350.034	0.44389945
350.251	0.44313278
350.467	0.45005284
350.683	0.43999673
350.9	0.43676242
351.116	0.4320978
351.332	0.42922812
351.549	0.44252509
351.765	0.45318759
351.981	0.45744761
352.197	0.47308785
352.414	0.48773646
352.63	0.49807585
352.846	0.5081594
353.062	0.49549716
353.278	0.48562043
353.495	0.49335611
353.711	0.49439291
353.927	0.49973995
354.143	0.49855846
354.359	0.493069
354.575	0.49329782
354.792	0.5057758
355.008	0.49221726
355.224	0.48339913
355.44	0.47516039
355.656	0.47220861
355.872	0.47798627
356.088	0.50040594
356.304	0.50145249
356.52	0.50681891
356.736	0.51169665
356.952	0.51466819
357.168	0.51333127
357.384	0.5153197
357.6	0.50040244
357.816	0.50286055
358.032	0.50811132
358.248	0.51658222
358.464	0.51488212
358.679	0.52022538
358.895	0.51682622
359.111	0.52221524
359.327	0.51275571
359.543	0.5128115
359.759	0.51382553
359.974	0.51284887
360.19	0.51087365
360.406	0.51198909
360.622	0.507612
360.838	0.50512328
361.053	0.50814765
361.269	0.5075789
361.485	0.50842692
361.701	0.50979656
361.916	0.50285438
362.132	0.50248828
362.348	0.50501816
362.563	0.50326875
362.779	0.49714312
362.995	0.49934385
363.21	0.50205847
363.426	0.50538812
363.641	0.50245911
363.857	0.50305728
364.073	0.49853881
364.288	0.49645019
364.504	0.49999475
364.719	0.49809736
364.935	0.49432119
365.15	0.4966711
365.366	0.49537962
365.581	0.4971098
365.797	0.49569445
366.012	0.48747608
366.228	0.47973747
366.443	0.48394998
366.658	0.48257353
366.874	0.47701743
367.089	0.47847259
367.305	0.47785581
367.52	0.4766512
367.735	0.47513535
367.951	0.4684045
368.166	0.46619633
368.381	0.46942404
368.597	0.46462221
368.812	0.46578204
369.027	0.46719717
369.243	0.4684043
369.458	0.4746504
369.673	0.47439006
369.888	0.47258382
370.104	0.46679258
370.319	0.46512591
370.534	0.46223231
370.749	0.45947361
370.964	0.45723255
371.179	0.45441424
371.395	0.44994717
371.61	0.45246607
371.825	0.4463223
372.04	0.44457834
372.255	0.4417305
372.47	0.43622333
372.685	0.42990657
372.9	0.42706869
373.115	0.42192548
373.33	0.42156488
373.545	0.41856993
373.76	0.41779478
373.975	0.41340409
374.19	0.41102422
374.405	0.4098037
374.62	0.4101455
374.835	0.41182375
375.05	0.410868
375.265	0.40915775
375.48	0.40978057
375.695	0.4138647
375.91	0.41065362
376.125	0.40530202
376.339	0.39817123
376.554	0.39498361
376.769	0.39241924
376.984	0.38893493
377.199	0.38616211
377.414	0.38389587
377.628	0.38476869
377.843	0.3848459
378.058	0.38338987
378.273	0.38288902
378.487	0.3818608
378.702	0.37979764
378.917	0.37883491
379.131	0.37527611
379.346	0.37124629
379.561	0.36808584
379.775	0.36505628
379.99	0.36169268
380.205	0.35575418
380.419	0.35268645
380.634	0.34939345
380.848	0.3490362
381.063	0.34823519
381.278	0.34722253
381.492	0.34421415
381.707	0.34534884
381.921	0.34266206
382.136	0.34341588
382.35	0.33996581
382.565	0.33600115
382.779	0.3342063
382.994	0.33356973
383.208	0.33028826
383.422	0.33027221
383.637	0.32729199
383.851	0.32823596
384.066	0.3292214
384.28	0.32838671
384.494	0.32669837
384.709	0.32550979
384.923	0.32370436
385.137	0.32119662
385.352	0.31843588
385.566	0.31617249
385.78	0.31296669
385.995	0.3106036
386.209	0.30857598
386.423	0.3080242
386.637	0.30713579
386.852	0.30402715
387.066	0.30212001
387.28	0.29985195
387.494	0.29976964
387.708	0.29813175
387.923	0.29617026
388.137	0.29519569
388.351	0.29420963
388.565	0.29350765
388.779	0.29256146
388.993	0.2921844
389.207	0.29125111
389.421	0.28964212
389.635	0.28677225
389.85	0.28507514
390.064	0.28274179
390.278	0.28113698
390.492	0.27838494
390.706	0.2769063
390.92	0.27484552
391.134	0.27481723
391.348	0.27495775
391.561	0.27281221
391.775	0.2717027
391.989	0.26951654
392.203	0.26820702
392.417	0.26740744
392.631	0.26615696
392.845	0.26382515
393.059	0.26396465
393.273	0.26203931
393.486	0.26073526
393.7	0.25843596
393.914	0.25765715
394.128	0.25596167
394.342	0.25455006
394.555	0.25158532
394.769	0.2501214
394.983	0.24929489
395.197	0.24878534
395.41	0.24678914
395.624	0.24581309
395.838	0.24404926
396.051	0.24465125
396.265	0.24343705
396.479	0.24238095
396.692	0.24123525
396.906	0.23990891
397.12	0.23882807
397.333	0.23822614
397.547	0.2362715
397.76	0.23562583
397.974	0.23465681
398.187	0.23402799
398.401	0.23341524
398.614	0.23248618
398.828	0.23143723
399.041	0.23044624
399.255	0.22955955
399.468	0.22870603
399.682	0.22763043
399.895	0.22689208
400.109	0.225578
400.322	0.22461398
400.536	0.22314087
400.749	0.22280071
400.962	0.22136753
401.176	0.21987383
401.389	0.21847994
401.602	0.21669602
401.816	0.21574348
402.029	0.21538501
402.242	0.21361035
402.456	0.21302952
402.669	0.21236997
402.882	0.21142432
403.095	0.21174764
403.309	0.21093222
403.522	0.21004852
403.735	0.20935598
403.948	0.20856258
404.161	0.20849905
404.375	0.20807815
404.588	0.20708639
404.801	0.20639123
405.014	0.20535342
405.227	0.20507411
405.44	0.20484627
405.653	0.2041757
405.866	0.20294933
406.079	0.20222137
406.293	0.20148887
406.506	0.20077696
406.719	0.19982042
406.932	0.19834172
407.145	0.19680526
407.358	0.19684872
407.571	0.19594149
407.784	0.19565013
407.996	0.19578079
408.209	0.19491294
408.422	0.19425138
408.635	0.1941926
408.848	0.19326869
409.061	0.19200673
409.274	0.19107976
409.487	0.18956102
409.7	0.189265
409.912	0.18866523
410.125	0.18786403
410.338	0.18707939
410.551	0.18699293
410.764	0.18632159
410.976	0.18599744
411.189	0.18520446
411.402	0.18448387
411.615	0.18400674
411.827	0.18373192
412.04	0.18326735
412.253	0.18281841
412.465	0.18230971
412.678	0.18168532
412.891	0.18179286
413.103	0.18085931
413.316	0.18005234
413.529	0.17955925
413.741	0.17918945
413.954	0.1788087
414.166	0.17844725
414.379	0.17762557
414.591	0.17769676
414.804	0.17743411
415.016	0.17707927
415.229	0.1765198
415.441	0.17580529
415.654	0.17569273
415.866	0.17542773
416.079	0.17482878
416.291	0.1741642
416.504	0.17398908
416.716	0.17357879
416.928	0.17348828
417.141	0.17260183
417.353	0.17216059
417.566	0.17159561
417.778	0.17146056
417.99	0.17047106
418.203	0.16994264
418.415	0.16934472
418.627	0.16936129
418.839	0.16888451
419.052	0.1689649
419.264	0.16832205
419.476	0.16814187
419.688	0.16789586
419.901	0.16765937
420.113	0.16709996
420.325	0.16667773
420.537	0.16603598
420.749	0.16583414
420.961	0.16573905
421.174	0.16534024
421.386	0.164755
421.598	0.16446701
421.81	0.16413926
422.022	0.16381132
422.234	0.16335193
422.446	0.16277036
422.658	0.16251641
422.87	0.16243269
423.082	0.16222081
423.294	0.16206838
423.506	0.16183864
423.718	0.16166194
423.93	0.16132671
424.142	0.16090947
424.354	0.16050028
424.566	0.1599258
424.778	0.15957254
424.99	0.15915096
425.202	0.15871843
425.414	0.15849869
425.625	0.15843958
425.837	0.15798139
426.049	0.15797642
426.261	0.15750973
426.473	0.15709907
426.684	0.15682606
426.896	0.15682678
427.108	0.15627978
427.32	0.15630722
427.531	0.15584483
427.743	0.1558195
427.955	0.15594088
428.167	0.1556986
428.378	0.15521699
428.59	0.15501639
428.802	0.15475821
429.013	0.15460126
429.225	0.15445446
429.436	0.15410731
429.648	0.15426415
429.86	0.15441434
430.071	0.1543755
430.283	0.1542956
430.494	0.15404315
430.706	0.15379304
430.917	0.15358001
431.129	0.15313833
431.34	0.15262649
431.552	0.15244073
431.763	0.15227391
431.975	0.15241246
432.186	0.15230231
432.398	0.15217164
432.609	0.15178075
432.821	0.15161123
433.032	0.15156422
433.243	0.15123026
433.455	0.15097403
433.666	0.15092952
433.877	0.15085822
434.089	0.15088529
434.3	0.15088267
434.511	0.15052758
434.723	0.15039879
434.934	0.1501237
435.145	0.1496367
435.356	0.14937879
435.568	0.14923245
435.779	0.14913982
435.99	0.14907719
436.201	0.14912887
436.412	0.14888145
436.624	0.1488285
436.835	0.14887666
437.046	0.14897599
437.257	0.14879963
437.468	0.14876502
437.679	0.14834863
437.89	0.14837842
438.101	0.14838229
438.312	0.14784047
438.523	0.14742633
438.734	0.1473266
438.945	0.14721615
439.156	0.14708174
439.367	0.14697597
439.578	0.14690526
439.789	0.14697873
440	0.14695815
440.211	0.14659253
440.422	0.14641377
440.633	0.14642482
440.844	0.146144
441.055	0.14576909
441.266	0.14569232
441.477	0.14557144
441.687	0.14551701
441.898	0.14542409
442.109	0.14517965
442.32	0.14520366
442.531	0.1452247
442.741	0.14500405
442.952	0.14473198
443.163	0.14462669
443.374	0.14433337
443.584	0.14423525
443.795	0.14391221
444.006	0.1438308
444.216	0.14372361
444.427	0.14375624
444.638	0.14360891
444.848	0.14349029
445.059	0.14333633
445.27	0.14324323
445.48	0.14306709
445.691	0.14287656
445.901	0.14267912
446.112	0.14271725
446.323	0.14254031
446.533	0.14244413
446.744	0.1423557
446.954	0.14224939
447.165	0.14222321
447.375	0.14228164
447.586	0.14212136
447.796	0.14225383
448.006	0.14221262
448.217	0.14214476
448.427	0.14187034
448.638	0.14173099
448.848	0.14146227
449.058	0.14135581
449.269	0.14121162
449.479	0.14111553
449.689	0.14095042
449.9	0.14117514
450.11	0.1411891
450.32	0.14125922
450.531	0.14109705
450.741	0.14093175
450.951	0.14098884
451.161	0.14109413
451.372	0.14094086
451.582	0.14106234
451.792	0.14105831
452.002	0.14119929
452.212	0.14119943
452.422	0.14107599
452.633	0.14107295
452.843	0.14108816
453.053	0.14083601
453.263	0.14070137
453.473	0.14057263
453.683	0.14062729
453.893	0.14054864
454.103	0.1406368
454.313	0.14061886
454.523	0.1407043
454.733	0.14061848
454.943	0.14062813
455.153	0.14067828
455.363	0.14063232
455.573	0.14043788
455.783	0.14043187
455.993	0.14028977
456.203	0.1404209
456.413	0.14032086
456.623	0.14012481
456.833	0.14027746
457.042	0.14030442
457.252	0.14024838
457.462	0.1403482
457.672	0.14022035
457.882	0.14015692
458.091	0.14026629
458.301	0.14012678
458.511	0.14014433
458.721	0.14016229
458.931	0.14010518
459.14	0.14021057
459.35	0.14040584
459.56	0.14038767
459.769	0.14058085
459.979	0.14060587
460.189	0.14046986
460.398	0.1405137
460.608	0.14059004
460.817	0.14060792
461.027	0.14066325
461.237	0.14057532
461.446	0.14063839
461.656	0.14089597
461.865	0.14093717
462.075	0.1408291
462.284	0.14089553
462.494	0.14093189
462.703	0.1409184
462.913	0.14096879
463.122	0.14090053
463.332	0.14083176
463.541	0.14104473
463.751	0.14106946
463.96	0.14104171
464.169	0.14117838
464.379	0.14127693
464.588	0.14150842
464.797	0.1416635
465.007	0.14169991
465.216	0.14172406
465.425	0.14193669
465.635	0.14203528
465.844	0.14207637
466.053	0.14199514
466.263	0.14205266
466.472	0.14205604
466.681	0.1421171
466.89	0.14203625
467.099	0.14216689
467.309	0.14218583
467.518	0.14223743
467.727	0.14237691
467.936	0.1424967
468.145	0.1425724
468.354	0.14267379
468.563	0.14269146
468.772	0.14275435
468.982	0.14276671
469.191	0.14285926
469.4	0.14288745
469.609	0.14293057
469.818	0.14313194
470.027	0.14315294
470.236	0.14323677
470.445	0.14350911
470.654	0.14338286
470.863	0.14329895
471.072	0.14332343
471.28	0.14324578
471.489	0.1433626
471.698	0.14335485
471.907	0.14327983
472.116	0.14350226
472.325	0.14372376
472.534	0.14397927
472.743	0.14408662
472.951	0.14421533
473.16	0.14437308
473.369	0.14446098
473.578	0.14453301
473.786	0.14461766
473.995	0.14474097
474.204	0.14494571
474.413	0.14500762
474.621	0.14523892
474.83	0.1454018
475.039	0.14557551
475.247	0.14569597
475.456	0.14569783
475.665	0.14583339
475.873	0.14596702
476.082	0.14600623
476.291	0.14617383
476.499	0.1463135
476.708	0.14638802
476.916	0.14670146
477.125	0.14690115
477.333	0.14706333
477.542	0.14718545
477.75	0.14724479
477.959	0.14745576
478.167	0.14773789
478.376	0.14768865
478.584	0.14773825
478.793	0.14791232
479.001	0.14805071
479.209	0.14821931
479.418	0.14823515
479.626	0.14840683
479.834	0.14863574
480.043	0.1488594
480.251	0.14892671
480.459	0.14913775
480.668	0.14937453
480.876	0.14960009
481.084	0.14970908
481.293	0.14990114
481.501	0.15001313
481.709	0.15030793
481.917	0.15041384
482.125	0.15056838
482.334	0.15077087
482.542	0.15090354
482.75	0.15104331
482.958	0.15124364
483.166	0.15140487
483.374	0.151689
483.583	0.15186784
483.791	0.15205526
483.999	0.15216718
484.207	0.15238928
484.415	0.1526096
484.623	0.15279173
484.831	0.1529098
485.039	0.15311573
485.247	0.15322837
485.455	0.15352459
485.663	0.15370539
485.871	0.15385759
486.079	0.1540036
486.287	0.15424106
486.495	0.15443244
486.702	0.15456252
486.91	0.15475221
487.118	0.15503892
487.326	0.15536495
487.534	0.1555562
487.742	0.15583001
487.95	0.15606424
488.157	0.15647535
488.365	0.1567345
488.573	0.15694426
488.781	0.15708779
488.988	0.15743442
489.196	0.15767596
489.404	0.15792858
489.612	0.15816235
489.819	0.1584486
490.027	0.15868665
490.235	0.15892363
490.442	0.15914033
490.65	0.15936151
490.857	0.15959887
491.065	0.15981351
491.273	0.16003907
491.48	0.1603055
491.688	0.16055681
491.895	0.16082527
492.103	0.16098872
492.31	0.16127054
492.518	0.16146966
492.725	0.16175351
492.933	0.16190749
493.14	0.16219272
493.348	0.16243035
493.555	0.1627353
493.763	0.16293754
493.97	0.16323203
494.177	0.16345607
494.385	0.16381201
494.592	0.16407393
494.8	0.16431269
495.007	0.16461934
495.214	0.16491877
495.422	0.16513999
495.629	0.16541673
495.836	0.16564629
496.043	0.16593177
496.251	0.16630076
496.458	0.16656899
496.665	0.16684501
496.872	0.16717843
497.08	0.16746516
497.287	0.16775756
497.494	0.16796964
497.701	0.16821958
497.908	0.16852376
498.115	0.1687948
498.322	0.16908752
498.53	0.16930522
498.737	0.16960042
498.944	0.16991037
499.151	0.17021556
499.358	0.17052874
499.565	0.17083972
499.772	0.17114505
499.979	0.17153728
500.186	0.17187774
500.393	0.17220347
500.6	0.17247059
500.807	0.17276234
501.014	0.17307549
501.221	0.17337574
501.427	0.1736192
501.634	0.17391356
501.841	0.17421947
502.048	0.17451129
502.255	0.17476757
502.462	0.17509087
502.669	0.17542195
502.875	0.17579286
503.082	0.17611222
503.289	0.17643081
503.496	0.17673806
503.702	0.177183
503.909	0.17749629
504.116	0.17787739
504.323	0.17820009
504.529	0.17850719
504.736	0.17885811
504.943	0.17918953
505.149	0.1795177
505.356	0.17992168
505.563	0.18028273
505.769	0.18064625
505.976	0.18098147
506.182	0.18132189
506.389	0.18177205
506.595	0.18207625
506.802	0.18241757
507.008	0.1827562
507.215	0.18307947
507.421	0.18344064
507.628	0.18376699
507.834	0.1840942
508.041	0.18442944
508.247	0.18473044
508.454	0.18506818
508.66	0.18538507
508.866	0.18573467
509.073	0.18615451
509.279	0.18649984
509.486	0.18686137
509.692	0.1871889
509.898	0.18756948
510.105	0.18803347
510.311	0.18840551
510.517	0.18869973
510.723	0.18897962
510.93	0.18938069
511.136	0.18983752
511.342	0.1901928
511.548	0.19052725
511.754	0.190958
511.961	0.19138956
512.167	0.19184212
512.373	0.19220705
512.579	0.19257107
512.785	0.1929595
512.991	0.19334324
513.197	0.19371474
513.404	0.19412429
513.61	0.19453594
513.816	0.19488507
514.022	0.19527502
514.228	0.19566139
514.434	0.19602115
514.64	0.19637604
514.846	0.1966986
515.052	0.19709145
515.258	0.19752269
515.464	0.19787194
515.669	0.1982111
515.875	0.19860563
516.081	0.19899788
516.287	0.19945336
516.493	0.19985743
516.699	0.20023872
516.905	0.20066997
517.111	0.20106582
517.316	0.20150329
517.522	0.20190088
517.728	0.20230923
517.934	0.20275634
518.139	0.20318111
518.345	0.20356823
518.551	0.20402478
518.757	0.20444281
518.962	0.20484442
519.168	0.20523906
519.374	0.20551244
519.579	0.20589897
519.785	0.20632849
519.991	0.20667547
520.196	0.20704457
520.402	0.20746863
520.607	0.2079344
520.813	0.2084535
521.018	0.20884578
521.224	0.20925052
521.429	0.20973376
521.635	0.21022417
521.84	0.21060414
522.046	0.210981
522.251	0.21140667
522.457	0.21183962
522.662	0.21227801
522.868	0.21269886
523.073	0.21305298
523.279	0.21356071
523.484	0.21396053
523.689	0.21432299
523.895	0.21480834
524.1	0.21524211
524.305	0.21571562
524.511	0.21617214
524.716	0.21660531
524.921	0.21711604
525.126	0.21753118
525.332	0.21793805
525.537	0.21836665
525.742	0.21884148
525.947	0.2193442
526.153	0.21973272
526.358	0.22015614
526.563	0.22062229
526.768	0.22105372
526.973	0.22143908
527.178	0.22180234
527.383	0.22218539
527.588	0.22264878
527.794	0.2230625
527.999	0.22346844
528.204	0.22394141
528.409	0.22442132
528.614	0.22484203
528.819	0.2252419
529.024	0.22561862
529.229	0.22601288
529.434	0.22653051
529.639	0.22689597
529.843	0.22727555
530.048	0.22774016
530.253	0.22825136
530.458	0.22878034
530.663	0.22922664
530.868	0.22967599
531.073	0.23012539
531.278	0.23057299
531.482	0.23097409
531.687	0.23134768
531.892	0.23171322
532.097	0.23212333
532.302	0.23251988
532.506	0.23295191
532.711	0.23338202
532.916	0.23384235
533.12	0.23421671
533.325	0.23460128
533.53	0.2350658
533.734	0.23543774
533.939	0.23588642
534.144	0.23636695
534.348	0.23673031
534.553	0.23719512
534.757	0.23764483
534.962	0.23809193
535.167	0.23855737
535.371	0.23899085
535.576	0.23942034
535.78	0.23992853
535.985	0.24043122
536.189	0.2408898
536.394	0.24139262
536.598	0.24180528
536.803	0.24222226
537.007	0.24267993
537.211	0.24308125
537.416	0.24346373
537.62	0.24391533
537.825	0.24424056
538.029	0.24476036
538.233	0.24521917
538.438	0.24563917
538.642	0.24607865
538.846	0.24649955
539.05	0.24691798
539.255	0.24738249
539.459	0.24777562
539.663	0.24819128
539.867	0.24864182
540.072	0.24906322
540.276	0.24950052
540.48	0.24997982
540.684	0.25038087
540.888	0.2508453
541.092	0.25124793
541.297	0.25162635
541.501	0.25202445
541.705	0.25241691
541.909	0.25277699
542.113	0.25323132
542.317	0.2536733
542.521	0.25415564
542.725	0.25463816
542.929	0.25513918
543.133	0.25562783
543.337	0.25607746
543.541	0.25644404
543.745	0.25678945
543.949	0.25718928
544.153	0.25751746
544.357	0.25785731
544.56	0.2582927
544.764	0.25870841
544.968	0.25909817
545.172	0.2594603
545.376	0.25981537
545.58	0.26022843
545.783	0.26064747
545.987	0.26096167
546.191	0.26129799
546.395	0.2617827
546.598	0.26222382
546.802	0.26265965
547.006	0.26305149
547.21	0.26342347
547.413	0.26391007
547.617	0.26440443
547.821	0.26474089
548.024	0.26518742
548.228	0.26551134
548.431	0.26589683
548.635	0.26632435
548.839	0.26665788
549.042	0.26698977
549.246	0.26738905
549.449	0.26768254
549.653	0.26809743
549.856	0.26843403
550.06	0.26881346
550.263	0.26919733
550.467	0.26955945
550.67	0.2699336
550.874	0.27034572
551.077	0.27074303
551.28	0.27119973
551.484	0.27160607
551.687	0.27197558
551.891	0.27245308
552.094	0.27277857
552.297	0.273147
552.501	0.27350656
552.704	0.27379736
552.907	0.27410685
553.11	0.27445016
553.314	0.27472148
553.517	0.27506652
553.72	0.27540982
553.923	0.27583882
554.127	0.27627657
554.33	0.2765217
554.533	0.27686297
554.736	0.27712264
554.939	0.27751524
555.142	0.2778813
555.345	0.27812849
555.549	0.27845839
555.752	0.27882406
555.955	0.27918262
556.158	0.27961651
556.361	0.27996289
556.564	0.28024541
556.767	0.2805998
556.97	0.28090732
557.173	0.28131678
557.376	0.2816864
557.579	0.28199813
557.782	0.28232733
557.984	0.28269716
558.187	0.28310423
558.39	0.28336575
558.593	0.28367529
558.796	0.28388368
558.999	0.28414113
559.202	0.28441898
559.404	0.28461192
559.607	0.28475357
559.81	0.28506615
560.013	0.2853478
560.216	0.28565462
560.418	0.28599799
560.621	0.28628222
560.824	0.28665261
561.026	0.28703097
561.229	0.28722591
561.432	0.28744249
561.634	0.28767771
561.837	0.28788061
562.04	0.28811668
562.242	0.28834304
562.445	0.28856082
562.647	0.28891107
562.85	0.28918633
563.053	0.2894942
563.255	0.28976349
563.458	0.29004099
563.66	0.29033632
563.863	0.2906568
564.065	0.29088734
564.268	0.29115945
564.47	0.29143431
564.672	0.29174487
564.875	0.29200887
565.077	0.2922224
565.28	0.29241607
565.482	0.29270689
565.684	0.29289793
565.887	0.29302978
566.089	0.29320588
566.291	0.29341483
566.494	0.29363916
566.696	0.2938362
566.898	0.29403058
567.1	0.29423723
567.303	0.29457447
567.505	0.2947938
567.707	0.29497179
567.909	0.29517846
568.111	0.29538715
568.314	0.29557582
568.516	0.29581747
568.718	0.2959081
568.92	0.29609084
569.122	0.29627505
569.324	0.29645911
569.526	0.29660039
569.728	0.29682184
569.93	0.29700467
570.132	0.29723342
570.334	0.29742503
570.536	0.29756178
570.738	0.29769951
570.94	0.29786289
571.142	0.29803588
571.344	0.29813322
571.546	0.29823442
571.748	0.29837319
571.95	0.29850565
572.152	0.2986437
572.354	0.29884253
572.555	0.298941
572.757	0.29916381
572.959	0.29929855
573.161	0.29941025
573.363	0.29955269
573.564	0.2997777
573.766	0.29988838
573.968	0.30003109
574.17	0.30005777
574.371	0.30016821
574.573	0.30024965
574.775	0.30039741
574.976	0.30043467
575.178	0.30052583
575.38	0.30053761
575.581	0.30064095
575.783	0.30078508
575.985	0.30095767
576.186	0.3010108
576.388	0.3011449
576.589	0.30116904
576.791	0.30136778
576.992	0.30145949
577.194	0.30156283
577.395	0.30167675
577.597	0.30187605
577.798	0.30197538
578	0.30216342
578.201	0.30226087
578.402	0.3024165
578.604	0.3024292
578.805	0.302533
579.007	0.30258304
579.208	0.30270052
579.409	0.30263798
579.611	0.30272434
579.812	0.30280919
580.013	0.30297568
580.215	0.30286295
580.416	0.30285876
580.617	0.30277592
580.818	0.302911
581.019	0.30286223
581.221	0.30287866
581.422	0.30286938
581.623	0.30306749
581.824	0.30312238
582.025	0.30330923
582.226	0.30334119
582.428	0.30353418
582.629	0.30357005
582.83	0.30363481
583.031	0.30357183
583.232	0.30365854
583.433	0.30370608
583.634	0.30376426
583.835	0.30371856
584.036	0.30372425
584.237	0.30369743
584.438	0.30376679
584.639	0.30368556
584.84	0.3036268
585.041	0.30363235
585.242	0.30364443
585.442	0.30367431
585.643	0.30381518
585.844	0.30381373
586.045	0.30393507
586.246	0.30388499
586.447	0.30390946
586.647	0.30392524
586.848	0.30392496
587.049	0.30382836
587.25	0.3037551
587.45	0.30368281
587.651	0.30374667
587.852	0.30375328
588.053	0.30383747
588.253	0.30387569
588.454	0.30393995
588.655	0.30404046
588.855	0.30408966
589.056	0.30412542
589.256	0.30417778
589.457	0.30416291
589.658	0.30418235
589.858	0.30409813
590.059	0.30412632
590.259	0.30413252
590.46	0.30417867
590.66	0.30409482
590.861	0.30410567
591.061	0.30408691
591.262	0.3042177
591.462	0.30426729
591.662	0.30429543
591.863	0.30421887
592.063	0.30432638
592.264	0.30437614
592.464	0.30438892
592.664	0.30436645
592.865	0.30439246
593.065	0.30429902
593.265	0.30436689
593.465	0.30426149
593.666	0.30418231
593.866	0.30416993
594.066	0.3042058
594.266	0.30409991
594.467	0.30406805
594.667	0.30397914
594.867	0.30407828
595.067	0.30397692
595.267	0.30398159
595.467	0.30390793
595.668	0.30394663
595.868	0.30403063
596.068	0.304049
596.268	0.30394178
596.468	0.30405936
596.668	0.30399064
596.868	0.3039875
597.068	0.30387977
597.268	0.30387023
597.468	0.30383539
597.668	0.30383499
597.868	0.30375407
598.068	0.30379262
598.268	0.30372964
598.467	0.30384392
598.667	0.30377826
598.867	0.30373861
599.067	0.30372647
599.267	0.3036931
599.467	0.3036307
599.667	0.30358804
599.866	0.30350965
600.066	0.30354411
600.266	0.30355119
600.466	0.3035761
600.665	0.30355248
600.865	0.30358094
601.065	0.30365261
601.264	0.30365369
601.464	0.30361119
601.664	0.30368938
601.863	0.30368831
602.063	0.30373092
602.263	0.30359214
602.462	0.30358045
602.662	0.30360656
602.861	0.30367584
603.061	0.3035988
603.26	0.30361471
603.46	0.30360743
603.659	0.30371038
603.859	0.30363713
604.058	0.30356471
604.258	0.3036193
604.457	0.30372809
604.657	0.30357245
604.856	0.30350004
605.056	0.30358596
605.255	0.30363839
605.454	0.30373221
605.654	0.30357379
605.853	0.30351635
606.052	0.30363111
606.252	0.30371844
606.451	0.30369352
606.65	0.30378485
606.849	0.30366695
607.049	0.30376655
607.248	0.30376014
607.447	0.30377621
607.646	0.30378606
607.845	0.30381538
608.045	0.30368768
608.244	0.30387714
608.443	0.30389655
608.642	0.30397218
608.841	0.30394949
609.04	0.30389357
609.239	0.30389672
609.438	0.30388574
609.637	0.3038999
609.836	0.30393629
610.035	0.3039478
610.234	0.30403763
610.433	0.30418458
610.632	0.30420467
610.831	0.30447432
611.03	0.30449896
611.229	0.30468734
611.428	0.30474573
611.627	0.30480852
611.826	0.30488533
612.025	0.30512729
612.224	0.30503734
612.422	0.30512441
612.621	0.30512649
612.82	0.30521728
613.019	0.30528511
613.218	0.30536356
613.416	0.30527071
613.615	0.30545028
613.814	0.30551058
614.012	0.30556673
614.211	0.30563688
614.41	0.30581881
614.608	0.30587636
614.807	0.30598098
615.006	0.30611766
615.204	0.3062137
615.403	0.30630627
615.602	0.30642352
615.8	0.30654357
615.999	0.30655645
616.197	0.30663374
616.396	0.30674667
616.594	0.30675579
616.793	0.30693718
616.991	0.30697593
617.19	0.30683689
617.388	0.30712899
617.586	0.30725052
617.785	0.30729198
617.983	0.30743332
618.182	0.30738611
618.38	0.3074022
618.578	0.30762879
618.777	0.3076816
618.975	0.3078433
619.173	0.30794299
619.372	0.30812014
619.57	0.30819963
619.768	0.30839634
619.966	0.30856231
620.165	0.30861651
620.363	0.30877773
620.561	0.30882825
620.759	0.30896951
620.957	0.30923772
621.155	0.3095071
621.354	0.30958574
621.552	0.3098662
621.75	0.30993021
621.948	0.31023844
622.146	0.31037331
622.344	0.31047868
622.542	0.31056113
622.74	0.31076695
622.938	0.31075678
623.136	0.31098045
623.334	0.31109145
623.532	0.31111092
623.73	0.31123023
623.928	0.31143487
624.126	0.31156434
624.324	0.3118699
624.522	0.31190499
624.719	0.31201417
624.917	0.31233399
625.115	0.31238294
625.313	0.31251382
625.511	0.31272533
625.708	0.3126146
625.906	0.31282014
626.104	0.31293005
626.302	0.31317205
626.499	0.31348996
626.697	0.31366893
626.895	0.31371045
627.093	0.3140436
627.29	0.31428004
627.488	0.31451597
627.686	0.31464083
627.883	0.31476382
628.081	0.31483646
628.278	0.31531783
628.476	0.31549557
628.673	0.3156649
628.871	0.31584461
629.068	0.31602198
629.266	0.31630544
629.463	0.31643407
629.661	0.3164654
629.858	0.31657646
630.056	0.31675936
630.253	0.31693139
630.451	0.31710257
630.648	0.3172735
630.845	0.31749646
631.043	0.31767941
631.24	0.31805042
631.438	0.31826461
631.635	0.31852981
631.832	0.31866004
632.029	0.31888688
632.227	0.31916887
632.424	0.31938484
632.621	0.31949523
632.818	0.31964275
633.016	0.31978814
633.213	0.31994912
633.41	0.32016917
633.607	0.32035278
633.804	0.3205296
634.001	0.32070373
634.199	0.32103028
634.396	0.32130697
634.593	0.32152121
634.79	0.32173619
634.987	0.32203177
635.184	0.32234425
635.381	0.32268129
635.578	0.32289899
635.775	0.32308142
635.972	0.32334113
636.169	0.32350265
636.366	0.32360845
636.563	0.32368392
636.76	0.32374061
636.957	0.32390232
637.153	0.32393638
637.35	0.32421867
637.547	0.32439854
637.744	0.3246296
637.941	0.32491129
638.138	0.32522324
638.334	0.32539443
638.531	0.32578287
638.728	0.32594319
638.925	0.32630689
639.121	0.32655776
639.318	0.32672116
639.515	0.32689006
639.711	0.32717104
639.908	0.32727868
640.105	0.32752158
640.301	0.32764476
640.498	0.32781332
640.695	0.32811681
640.891	0.3283351
641.088	0.32846833
641.284	0.32882669
641.481	0.32897864
641.677	0.32909678
641.874	0.32921933
642.07	0.32943733
642.267	0.32974513
642.463	0.32995442
642.66	0.33020833
642.856	0.33041909
643.053	0.33062383
643.249	0.33098229
643.445	0.33115441
643.642	0.33131116
643.838	0.33158162
644.034	0.33168508
644.231	0.33191727
644.427	0.33225378
644.623	0.33242794
644.82	0.33263516
645.016	0.33280864
645.212	0.33291249
645.408	0.33314965
645.604	0.33350094
645.801	0.33370194
645.997	0.3339358
646.193	0.33408049
646.389	0.33439171
646.585	0.33466676
646.781	0.3349621
646.977	0.33507864
647.173	0.33522695
647.37	0.33534447
647.566	0.33560552
647.762	0.33573497
647.958	0.33602669
648.154	0.3361145
648.35	0.33631988
648.546	0.33654081
648.742	0.33693861
648.937	0.3370627
649.133	0.3373612
649.329	0.33761358
649.525	0.33791504
649.721	0.33813516
649.917	0.33848778
650.113	0.33855313
650.309	0.33892284
650.504	0.33902297
650.7	0.33915664
650.896	0.339342
651.092	0.33948676
651.287	0.33955956
651.483	0.33988705
651.679	0.33999159
651.875	0.34028381
652.07	0.3404286
652.266	0.34062766
652.462	0.34088458
652.657	0.34107942
652.853	0.34118598
653.048	0.34135603
653.244	0.34144923
653.44	0.34167516
653.635	0.34174804
653.831	0.34201619
654.026	0.34231164
654.222	0.34255452
654.417	0.34288511
654.613	0.34312321
654.808	0.34329357
655.004	0.34360425
655.199	0.34367536
655.394	0.3437709
655.59	0.34404531
655.785	0.34410305
655.98	0.34430253
656.176	0.34447239
656.371	0.3447456
656.566	0.34500988
656.762	0.34514441
656.957	0.34526304
657.152	0.34546045
657.348	0.34565459
657.543	0.34588807
657.738	0.34604579
657.933	0.34614393
658.128	0.34637828
658.324	0.34646857
658.519	0.34670444
658.714	0.34691264
658.909	0.34707359
659.104	0.34722395
659.299	0.34750974
659.494	0.34773791
659.689	0.34806155
659.884	0.34822902
660.079	0.34834858
660.274	0.34855078
660.469	0.34874735
660.664	0.34892026
660.859	0.3490832
661.054	0.34917691
661.249	0.34937098
661.444	0.34957833
661.639	0.34965666
661.834	0.34970982
662.029	0.34985659
662.224	0.3499655
662.418	0.35017542
662.613	0.35034828
662.808	0.35044754
663.003	0.35065374
663.198	0.35087251
663.392	0.3509709
663.587	0.35128799
663.782	0.35132958
663.977	0.35146111
664.171	0.35168269
664.366	0.35193159
664.561	0.35207727
664.755	0.35232844
664.95	0.35227594
665.144	0.3524702
665.339	0.35263451
665.534	0.35276455
665.728	0.35287762
665.923	0.35303436
666.117	0.35307854
666.312	0.35329804
666.506	0.3535442
666.701	0.35360608
666.895	0.35375243
667.09	0.35386575
667.284	0.35410833
667.479	0.35426397
667.673	0.35436554
667.867	0.35450193
668.062	0.35465917
668.256	0.35477794
668.45	0.35500441
668.645	0.35504307
668.839	0.35523976
669.033	0.35541599
669.228	0.35548034
669.422	0.35568594
669.616	0.35581518
669.81	0.35594194
670.004	0.35599032
670.199	0.35609523
670.393	0.35616247
670.587	0.35625508
670.781	0.35641555
670.975	0.3566129
671.169	0.35666091
671.363	0.35685163
671.558	0.35699391
671.752	0.35726204
671.946	0.35750164
672.14	0.35757315
672.334	0.35758561
672.528	0.35783934
672.722	0.35786049
672.916	0.35792015
673.11	0.3578348
673.304	0.35800417
673.497	0.35802682
673.691	0.35823145
673.885	0.3581912
674.079	0.35844072
674.273	0.35849706
674.467	0.35875199
674.661	0.35875291
674.854	0.35893659
675.048	0.35907616
675.242	0.35928308
675.436	0.35942128
675.629	0.35961965
675.823	0.35965037
676.017	0.35978828
676.211	0.35981957
676.404	0.3599041
676.598	0.35997325
676.792	0.36000658
676.985	0.36020559
677.179	0.36036912
677.372	0.36044108
677.566	0.36070548
677.76	0.36083256
677.953	0.36094354
678.147	0.3611286
678.34	0.3612739
678.534	0.36131934
678.727	0.36146543
678.921	0.36157332
679.114	0.36158053
679.307	0.36174612
679.501	0.36187105
679.694	0.36188882
679.888	0.3620463
680.081	0.36219586
680.274	0.36220856
680.468	0.36240832
680.661	0.36244557
680.854	0.36258417
681.048	0.36272721
681.241	0.36282443
681.434	0.36284436
681.627	0.36299422
681.821	0.36304528
682.014	0.36322189
682.207	0.36324182
682.4	0.36329568
682.593	0.36343488
682.786	0.36349121
682.98	0.3635395
683.173	0.36373338
683.366	0.3637765
683.559	0.36390847
683.752	0.36406284
683.945	0.36418343
684.138	0.3643972
684.331	0.36450068
684.524	0.36461213
684.717	0.36461895
684.91	0.36470963
685.103	0.36473622
685.296	0.36481232
685.489	0.36488345
685.682	0.36497366
685.874	0.36505017
686.067	0.36518046
686.26	0.36526346
686.453	0.36528358
686.646	0.36529449
686.839	0.36533971
687.031	0.36537791
687.224	0.36527622
687.417	0.36541165
687.61	0.36540841
687.802	0.36554637
687.995	0.36571143
688.188	0.36583332
688.38	0.3659416
688.573	0.36608784
688.766	0.36609468
688.958	0.36610915
689.151	0.3660703
689.343	0.36608054
689.536	0.36602841
689.729	0.36613014
689.921	0.3662324
690.114	0.36621071
690.306	0.36631886
690.499	0.36646008
690.691	0.36651599
690.884	0.36662166
691.076	0.36669437
691.268	0.36671826
691.461	0.36671469
691.653	0.36684968
691.846	0.36698259
692.038	0.36705915
692.23	0.36708554
692.423	0.3671003
692.615	0.36715245
692.807	0.36729842
692.999	0.36731516
693.192	0.36723324
693.384	0.3672477
693.576	0.36725938
693.768	0.36730149
693.961	0.36731388
694.153	0.36744481
694.345	0.36745562
694.537	0.36760079
694.729	0.36769655
694.921	0.36778144
695.113	0.36792658
695.305	0.36802705
695.498	0.3680101
695.69	0.36813007
695.882	0.36808757
696.074	0.36818326
696.266	0.36827279
696.458	0.36825347
696.65	0.36830169
696.842	0.36838233
697.033	0.36842404
697.225	0.36847575
697.417	0.36854673
697.609	0.36858323
697.801	0.36864605
697.993	0.36873671
698.185	0.36877601
698.376	0.36882948
698.568	0.36890496
698.76	0.3689404
698.952	0.36898365
699.144	0.36901798
699.335	0.36908077
699.527	0.3691471
699.719	0.36918317
699.91	0.36935391
700.102	0.36934472
700.294	0.36946379
700.485	0.36948775
700.677	0.36948005
700.869	0.36958726
701.06	0.36976506
701.252	0.36970261
701.443	0.36976676
701.635	0.3697924
701.826	0.36994355
702.018	0.37002802
702.209	0.37008094
702.401	0.37000052
702.592	0.37016699
702.784	0.37020831
702.975	0.37026826
703.166	0.37024773
703.358	0.37024451
703.549	0.3703209
703.741	0.3704022
703.932	0.37036954
704.123	0.370377
704.315	0.37047586
704.506	0.37063979
704.697	0.37075165
704.888	0.37083626
705.08	0.37089972
705.271	0.37104387
705.462	0.3711014
705.653	0.37113718
705.844	0.37108545
706.035	0.37111769
706.227	0.37107584
706.418	0.37111161
706.609	0.37108786
706.8	0.37126318
706.991	0.37128044
707.182	0.37141959
707.373	0.37146717
707.564	0.3715853
707.755	0.37166203
707.946	0.37174738
708.137	0.37173446
708.328	0.37181686
708.519	0.37187498
708.71	0.37201593
708.901	0.37203009
709.092	0.37208363
709.283	0.37211934
709.473	0.37220211
709.664	0.37229678
709.855	0.37228867
710.046	0.37236213
710.237	0.37244351
710.427	0.37252708
710.618	0.37266942
710.809	0.37271125
711	0.37279792
711.19	0.3727978
711.381	0.37291387
711.572	0.37297676
711.762	0.37305453
711.953	0.37308267
712.144	0.37313183
712.334	0.37311208
712.525	0.37335304
712.715	0.37341333
712.906	0.37346944
713.097	0.37347435
713.287	0.37351597
713.478	0.37359392
713.668	0.37369056
713.859	0.37361577
714.049	0.37357609
714.239	0.37370985
714.43	0.37380724
714.62	0.37388459
714.811	0.37397272
715.001	0.37404378
715.191	0.37417797
715.382	0.37423738
715.572	0.37432624
715.762	0.37440784
715.953	0.37459142
716.143	0.37474969
716.333	0.37487062
716.523	0.37499016
716.714	0.37513221
716.904	0.37515227
717.094	0.37534119
717.284	0.37531499
717.474	0.37534461
717.664	0.37542471
717.855	0.37551348
718.045	0.37558253
718.235	0.37569224
718.425	0.37574882
718.615	0.37593331
718.805	0.37610296
718.995	0.37622791
719.185	0.37627716
719.375	0.37648912
719.565	0.37665129
719.755	0.37671855
719.945	0.37671801
720.135	0.3768101
720.325	0.37686186
720.515	0.37700737
720.704	0.37703569
720.894	0.37708222
721.084	0.37718621
721.274	0.37734453
721.464	0.37744464
721.654	0.37758175
721.843	0.37771668
722.033	0.37783088
722.223	0.37796598
722.413	0.37815506
722.602	0.37828234
722.792	0.37835109
722.982	0.37845939
723.171	0.3785358
723.361	0.37864501
723.55	0.37878098
723.74	0.37875786
723.93	0.37883126
724.119	0.37891899
724.309	0.37905177
724.498	0.37908547
724.688	0.37918751
724.877	0.37926959
725.067	0.37940903
725.256	0.37951149
725.446	0.37966404
725.635	0.37966167
725.825	0.37976952
726.014	0.37978244
726.203	0.37977707
726.393	0.37971946
726.582	0.37964596
726.771	0.37960034
726.961	0.37963922
727.15	0.3796352
727.339	0.37965499
727.529	0.37972372
727.718	0.3798112
727.907	0.37988972
728.096	0.37996708
728.286	0.37994238
728.475	0.38007603
728.664	0.38013545
728.853	0.38022487
729.042	0.38031232
729.231	0.38045914
729.42	0.38051533
729.609	0.38067685
729.799	0.38067495
729.988	0.38077803
730.177	0.3807438
730.366	0.38080207
730.555	0.38084276
730.744	0.38089865
730.933	0.38097058
731.122	0.38100994
731.31	0.38104993
731.499	0.38113612
731.688	0.3812414
731.877	0.3812654
732.066	0.38130866
732.255	0.38130921
732.444	0.38137496
732.632	0.38140363
732.821	0.38148459
733.01	0.38154168
733.199	0.38160061
733.388	0.38167037
733.576	0.38171641
733.765	0.3818283
733.954	0.38194979
734.142	0.38195659
734.331	0.38199728
734.52	0.38206813
734.708	0.38209537
734.897	0.382139
735.086	0.3820985
735.274	0.38203529
735.463	0.38212908
735.651	0.38213173
735.84	0.3821952
736.028	0.38228025
736.217	0.38239624
736.405	0.38248901
736.594	0.38264056
736.782	0.3826845
736.971	0.38275239
737.159	0.38283404
737.347	0.38289803
737.536	0.38293452
737.724	0.38305045
737.912	0.38310858
738.101	0.3831798
738.289	0.38333958
738.477	0.38347206
738.666	0.38361262
738.854	0.38368081
739.042	0.38380483
739.23	0.38386013
739.418	0.38396057
739.607	0.38392418
739.795	0.38388088
739.983	0.38390913
740.171	0.38398167
740.359	0.38397463
740.547	0.3840317
740.735	0.38409767
740.923	0.38425831
741.112	0.38438154
741.3	0.38451814
741.488	0.38464255
741.676	0.38481147
741.864	0.3849342
742.052	0.38506624
742.239	0.38503031
742.427	0.38506653
742.615	0.38497873
742.803	0.38499189
742.991	0.38493657
743.179	0.38502812
743.367	0.38506243
743.555	0.38528394
743.742	0.38543668
743.93	0.3856874
744.118	0.38583484
744.306	0.38602955
744.494	0.38607497
744.681	0.38612523
744.869	0.38608966
745.057	0.38608171
745.244	0.38601398
745.432	0.38605089
745.62	0.38602964
745.807	0.38614818
745.995	0.38620949
746.182	0.38625425
746.37	0.38635383
746.558	0.38644587
746.745	0.38646416
746.933	0.38660393
747.12	0.38658786
747.308	0.38671313
747.495	0.38677463
747.683	0.38679418
747.87	0.38687939
748.057	0.38707584
748.245	0.38715496
748.432	0.38724687
748.62	0.38727103
748.807	0.38739425
748.994	0.38752042
749.182	0.38761767
749.369	0.38760172
749.556	0.38765784
749.743	0.38769618
749.931	0.38772877
750.118	0.38784632
750.305	0.38784281
750.492	0.38789581
750.68	0.3880124
750.867	0.38800131
751.054	0.38812794
751.241	0.38820312
751.428	0.38820842
751.615	0.38830246
751.802	0.38839727
751.989	0.3883684
752.176	0.38853173
752.363	0.38857187
752.55	0.38862687
752.737	0.3886964
752.924	0.38877955
753.111	0.38878873
753.298	0.38895369
753.485	0.38893066
753.672	0.38900893
753.859	0.38918805
754.046	0.38926205
754.233	0.38929716
754.42	0.38942276
754.606	0.38938803
754.793	0.38944439
754.98	0.38945758
755.167	0.38938019
755.353	0.38943474
755.54	0.38952066
755.727	0.38960704
755.914	0.38979093
756.1	0.38993971
756.287	0.39007423
756.474	0.39020238
756.66	0.3904311
756.847	0.39064052
757.033	0.3906434
757.22	0.39061283
757.407	0.39067391
757.593	0.39070828
757.78	0.39076584
757.966	0.39077566
758.153	0.39078833
758.339	0.39080264
758.526	0.3908952
758.712	0.39089467
758.898	0.39101517
759.085	0.39102742
759.271	0.39095546
759.458	0.39093431
759.644	0.39112826
759.83	0.39120501
760.017	0.3913847
760.203	0.39142595
760.389	0.39153294
760.576	0.3916666
760.762	0.39175296
760.948	0.39162282
761.134	0.39163851
761.32	0.3915355
761.507	0.3914952
761.693	0.39160398
761.879	0.39160944
762.065	0.39162182
762.251	0.3917585
762.437	0.39194806
762.623	0.39207923
762.809	0.39215104
762.995	0.39214753
763.181	0.3921652
763.367	0.39216224
763.553	0.39222033
763.739	0.39217568
763.925	0.39215026
764.111	0.39225177
764.297	0.39238006
764.483	0.39244154
764.669	0.3924975
764.855	0.39247555
765.041	0.39241935
765.227	0.39243236
765.412	0.39241691
765.598	0.39237224
765.784	0.39239924
765.97	0.3924592
766.156	0.39250382
766.341	0.39257593
766.527	0.39266385
766.713	0.39275951
766.898	0.3927541
767.084	0.39282351
767.27	0.39281381
767.455	0.39283972
767.641	0.39291291
767.827	0.39295464
768.012	0.39293486
768.198	0.39300538
768.383	0.39308273
768.569	0.39327268
768.754	0.39343534
768.94	0.39348457
769.125	0.3935332
769.311	0.39353111
769.496	0.39356373
769.682	0.39351122
769.867	0.39348829
770.052	0.39344962
770.238	0.39344653
770.423	0.39345313
770.608	0.39345533
770.794	0.39341805
770.979	0.3934553
771.164	0.39341162
771.35	0.39342796
771.535	0.39345885
771.72	0.39347187
771.905	0.39357761
772.09	0.39364977
772.276	0.39368375
772.461	0.39372171
772.646	0.39376674
772.831	0.39375176
773.016	0.39378466
773.201	0.39373031
773.386	0.39379808
773.571	0.3937645
773.756	0.39371911
773.941	0.3936572
774.126	0.39375904
774.311	0.39365807
774.496	0.39374966
774.681	0.39362857
774.866	0.39364154
775.051	0.39353531
775.236	0.39353456
775.421	0.39345491
775.606	0.39355567
775.791	0.39343753
775.976	0.3935331
776.16	0.39356107
776.345	0.39369334
776.53	0.39387997
776.715	0.39389526
776.899	0.39387953
777.084	0.39402761
777.269	0.39401947
777.454	0.39401265
777.638	0.3940585
777.823	0.39386416
778.008	0.39377415
778.192	0.39371555
778.377	0.39358175
778.561	0.39355317
778.746	0.39348776
778.931	0.39345208
779.115	0.39349965
779.3	0.39352636
779.484	0.39353223
779.669	0.39343164
779.853	0.39332587
780.037	0.39336815
780.222	0.39331645
780.406	0.39325677
780.591	0.39327266
780.775	0.39325939
780.959	0.39334234
781.144	0.39339682
781.328	0.3933477
781.512	0.39323845
781.697	0.39317918
781.881	0.39303215
782.065	0.39305591
782.249	0.39296744
782.434	0.3929241
782.618	0.39293729
782.802	0.3930003
782.986	0.3931018
783.17	0.39319123
783.354	0.39312338
783.539	0.39313129
783.723	0.39303809
783.907	0.39299991
784.091	0.39290431
784.275	0.39276545
784.459	0.39262195
784.643	0.39256845
784.827	0.39248214
785.011	0.39241707
785.195	0.39233679
785.379	0.39236664
785.563	0.39231574
785.747	0.39235717
785.93	0.39239367
786.114	0.39233247
786.298	0.39232845
786.482	0.39219206
786.666	0.39209943
786.85	0.39200222
787.033	0.39198301
787.217	0.39186761
787.401	0.39189105
787.585	0.39180026
787.768	0.39184383
787.952	0.39174463
788.136	0.39173241
788.319	0.39163048
788.503	0.39156603
788.687	0.39147532
788.87	0.39145315
789.054	0.39132579
789.237	0.39126053
789.421	0.39115087
789.605	0.39094238
789.788	0.39077317
789.972	0.39065365
790.155	0.39052366
790.338	0.39044255
790.522	0.39044696
790.705	0.3902866
790.889	0.39027337
791.072	0.390281
791.256	0.39030925
791.439	0.39036951
791.622	0.3904113
791.806	0.39040622
791.989	0.3904278
792.172	0.3904005
792.355	0.39038582
792.539	0.39032152
792.722	0.3902217
792.905	0.39004461
793.088	0.38984366
793.271	0.38982443
793.455	0.38975983
793.638	0.38958847
793.821	0.38945266
794.004	0.38933088
794.187	0.38934848
794.37	0.38937325
794.553	0.38929785
794.736	0.38919357
794.919	0.38906551
795.102	0.38898927
795.285	0.38886401
795.468	0.38868194
795.651	0.38846438
795.834	0.38834232
796.017	0.38827787
796.2	0.38820767
796.383	0.38809271
796.566	0.38802014
796.749	0.38793981
796.931	0.38790639
797.114	0.38770718
797.297	0.38747171
797.48	0.38734317
797.663	0.38726723
797.845	0.3871311
798.028	0.38705222
798.211	0.38684443
798.393	0.38676836
798.576	0.38683469
798.759	0.38671738
798.941	0.38654584
799.124	0.38645332
799.307	0.38623661
799.489	0.38625178
799.672	0.38619391
799.854	0.38599761
800.037	0.3859601
800.219	0.38587029
800.402	0.38585371
800.584	0.38580617
800.767	0.38568103
800.949	0.38559367
801.132	0.3855568
801.314	0.38538155
801.496	0.38522583
801.679	0.38492273
801.861	0.38475283
802.043	0.38449847
802.226	0.38431935
802.408	0.38413613
802.59	0.38410378
802.772	0.38412195
802.955	0.3841639
803.137	0.3840683
803.319	0.38402889
803.501	0.38389853
803.684	0.38380335
803.866	0.38354668
804.048	0.38333765
804.23	0.38312933
804.412	0.38304143
804.594	0.38285706
804.776	0.38287194
804.958	0.38273158
805.14	0.38270108
805.322	0.38265205
805.504	0.38259381
805.686	0.38241027
805.868	0.38242501
806.05	0.38216711
806.232	0.38200127
806.414	0.38191436
806.596	0.38164924
806.778	0.38141829
806.96	0.38137167
807.141	0.38110518
807.323	0.3810357
807.505	0.38093739
807.687	0.38078551
807.869	0.3806539
808.05	0.38055508
808.232	0.38045651
808.414	0.38039385
808.595	0.38028673
808.777	0.38015122
808.959	0.38012404
809.14	0.38014545
809.322	0.38011711
809.504	0.37997526
809.685	0.37999851
809.867	0.37981555
810.048	0.37971916
810.23	0.37952467
810.411	0.37933752
810.593	0.37909974
810.774	0.37889003
810.956	0.37859327
811.137	0.37835832
811.319	0.3781031
811.5	0.37784603
811.681	0.37760688
811.863	0.37742269
812.044	0.37720753
812.225	0.37709654
812.407	0.3769798
812.588	0.37680472
812.769	0.37658031
812.951	0.37641935
813.132	0.37626942
813.313	0.37615867
813.494	0.37590878
813.675	0.37574896
813.857	0.37562111
814.038	0.3755323
814.219	0.37533021
814.4	0.37513604
814.581	0.37504806
814.762	0.37485243
814.943	0.37476771
815.124	0.37457769
815.305	0.37448319
815.486	0.37432314
815.667	0.37413604
815.848	0.37379157
816.029	0.37355102
816.21	0.37327354
816.391	0.37314482
816.572	0.37285678
816.753	0.37274995
816.934	0.37258198
817.115	0.37251003
817.295	0.37240675
817.476	0.37207225
817.657	0.37185211
817.838	0.37174959
818.019	0.37145391
818.199	0.37116125
818.38	0.37085754
818.561	0.37063097
818.741	0.37046329
818.922	0.37022446
819.103	0.37000498
819.283	0.36995882
819.464	0.36999212
819.645	0.36986745
819.825	0.36976353
820.006	0.36966057
820.186	0.36949945
820.367	0.36926612
820.547	0.36888536
820.728	0.36852818
820.908	0.36833555
821.089	0.36818515
821.269	0.36806489
821.45	0.36788928
821.63	0.36769373
821.81	0.3675998
821.991	0.36752655
822.171	0.3673715
822.351	0.36714385
822.532	0.3668809
822.712	0.36669359
822.892	0.36650306
823.072	0.36631912
823.253	0.36617746
823.433	0.36598341
823.613	0.3658415
823.793	0.3657406
823.973	0.36560985
824.154	0.36538878
824.334	0.36520553
824.514	0.36493928
824.694	0.36469447
824.874	0.36426346
825.054	0.36397468
825.234	0.36368354
825.414	0.3633651
825.594	0.36304895
825.774	0.36268019
825.954	0.36242509
826.134	0.36227204
826.314	0.36196327
826.494	0.36183061
826.674	0.36153788
826.854	0.36132501
827.033	0.36111132
827.213	0.3610649
827.393	0.36079157
827.573	0.36067311
827.753	0.36037668
827.932	0.3603451
828.112	0.36019123
828.292	0.3601124
828.472	0.3596581
828.651	0.35953418
828.831	0.35928643
829.011	0.35903439
829.19	0.3587456
829.37	0.35847616
829.549	0.35818957
829.729	0.35801119
829.909	0.35782152
830.088	0.35759456
830.268	0.35729693
830.447	0.35720165
830.627	0.35715305
830.806	0.35691898
830.986	0.3566528
831.165	0.35647056
831.344	0.35631686
831.524	0.35610043
831.703	0.35577691
831.883	0.35530587
832.062	0.35499756
832.241	0.35483198
832.421	0.35446845
832.6	0.35411006
832.779	0.35393638
832.958	0.35370279
833.138	0.35347402
833.317	0.35339862
833.496	0.35318102
833.675	0.3529434
833.854	0.35278065
834.034	0.35259523
834.213	0.3523268
834.392	0.35226106
834.571	0.35185616
834.75	0.35154886
834.929	0.35133287
835.108	0.35100385
835.287	0.35071841
835.466	0.35042504
835.645	0.35000047
835.824	0.34972882
836.003	0.34947491
836.182	0.34918853
836.361	0.34903361
836.54	0.34870071
836.719	0.34857118
836.897	0.34839747
837.076	0.3482791
837.255	0.34806867
837.434	0.34793162
837.613	0.34771931
837.791	0.34752158
837.97	0.34736848
838.149	0.34710599
838.328	0.34684915
838.506	0.34661756
838.685	0.34630784
838.864	0.3460955
839.042	0.34584574
839.221	0.34553861
839.4	0.34530679
839.578	0.34496444
839.757	0.3446732
839.935	0.34427876
840.114	0.34394374
840.292	0.34372714
840.471	0.34343925
840.649	0.3432714
840.828	0.34317382
841.006	0.3430254
841.185	0.34289962
841.363	0.34280069
841.541	0.34253532
841.72	0.34229965
841.898	0.34205011
842.076	0.34171508
842.255	0.34134932
842.433	0.3410474
842.611	0.34065669
842.789	0.34035048
842.968	0.34008397
843.146	0.33976813
843.324	0.33963361
843.502	0.33944183
843.68	0.3392857
843.859	0.33896585
844.037	0.33874781
844.215	0.3384375
844.393	0.33811093
844.571	0.33762684
844.749	0.3373727
844.927	0.33702427
845.105	0.33669147
845.283	0.33634315
845.461	0.33609535
845.639	0.33590362
845.817	0.33572116
845.995	0.33549882
846.173	0.3353725
846.351	0.33520808
846.529	0.3350639
846.706	0.33479885
846.884	0.3345889
847.062	0.33440747
847.24	0.33406052
847.418	0.33363089
847.595	0.33328167
847.773	0.33306641
847.951	0.33270355
848.129	0.33235239
848.306	0.33201058
848.484	0.33168816
848.662	0.33169231
848.839	0.33162379
849.017	0.33134871
849.194	0.33124152
849.372	0.33100576
849.549	0.33065935
849.727	0.33043393
849.905	0.32997561
850.082	0.32949789
850.26	0.32918574
850.437	0.32884951
850.614	0.32856651
850.792	0.32840478
850.969	0.32822902
851.147	0.32801297
851.324	0.32787826
851.501	0.3275986
851.679	0.3273235
851.856	0.32709082
852.033	0.32691716
852.211	0.32656236
852.388	0.32610095
852.565	0.32585328
852.742	0.32558686
852.92	0.32529734
853.097	0.32506684
853.274	0.32465568
853.451	0.32435625
853.628	0.32424499
853.805	0.32395546
853.982	0.32360912
854.159	0.32335168
854.336	0.32300531
854.514	0.32269678
854.691	0.32240206
854.868	0.32209255
855.045	0.32182378
855.221	0.32168655
855.398	0.32135558
855.575	0.32105839
855.752	0.32088866
855.929	0.32080858
856.106	0.32053636
856.283	0.3202593
856.46	0.32006585
856.637	0.3199659
856.813	0.31974274
856.99	0.31939106
857.167	0.31903232
857.344	0.31881373
857.52	0.31851777
857.697	0.31806044
857.874	0.31765302
858.05	0.3173866
858.227	0.31714121
858.404	0.31687882
858.58	0.31658597
858.757	0.31634008
858.933	0.31617469
859.11	0.31592718
859.287	0.31550489
859.463	0.31511583
859.64	0.31478968
859.816	0.31443498
859.993	0.31413932
860.169	0.31387819
860.345	0.31364576
860.522	0.31351286
860.698	0.31337064
860.875	0.31317015
861.051	0.31297056
861.227	0.31255209
861.404	0.31229694
861.58	0.31214354
861.756	0.31194967
861.932	0.31185203
862.109	0.31147896
862.285	0.31124093
862.461	0.31121082
862.637	0.31099638
862.813	0.31073485
862.99	0.31040791
863.166	0.30998462
863.342	0.31000414
863.518	0.30969064
863.694	0.30943523
863.87	0.3090491
864.046	0.30861673
864.222	0.30843763
864.398	0.30824855
864.574	0.30774398
864.75	0.30754854
864.926	0.30724254
865.102	0.30714617
865.278	0.30683495
865.454	0.30647838
865.63	0.30605712
865.805	0.30574836
865.981	0.30545983
866.157	0.30526943
866.333	0.3048098
866.509	0.30482696
866.684	0.30454052
866.86	0.30450182
867.036	0.30444558
867.212	0.30418534
867.387	0.30381965
867.563	0.30370435
867.739	0.30345191
867.914	0.30325205
868.09	0.30280749
868.265	0.3023726
868.441	0.30200047
868.617	0.30179645
868.792	0.30144521
868.968	0.30099451
869.143	0.30083199
869.319	0.30075313
869.494	0.30051693
869.67	0.30034475
869.845	0.29992176
870.02	0.29966116
870.196	0.29941181
870.371	0.29901726
870.546	0.29861774
870.722	0.29849595
870.897	0.29814172
871.072	0.2979939
871.248	0.29755927
871.423	0.29721532
871.598	0.29703686
871.773	0.29673385
871.949	0.29637205
872.124	0.2963499
872.299	0.29610098
872.474	0.29602053
872.649	0.2957613
872.824	0.29532895
872.999	0.29501426
873.174	0.29476326
873.349	0.29439996
873.524	0.2941868
873.699	0.29396736
873.874	0.29365656
874.049	0.29357525
874.224	0.29346783
874.399	0.29308338
874.574	0.29284556
874.749	0.29244635
874.924	0.29209175
875.099	0.29189142
875.274	0.29141346
875.449	0.29112918
875.623	0.29089974
875.798	0.29044108
875.973	0.29014101
876.148	0.28973326
876.322	0.28947814
876.497	0.28921339
876.672	0.28882697
876.846	0.28856777
877.021	0.28828109
877.196	0.28780597
877.37	0.28757645
877.545	0.28729026
877.72	0.28699367
877.894	0.28694957
878.069	0.28669201
878.243	0.28641653
878.418	0.28640578
878.592	0.28609819
878.767	0.28566064
878.941	0.28547313
879.116	0.28491028
879.29	0.28437438
879.464	0.28398571
879.639	0.28358529
879.813	0.28349903
879.987	0.28346172
880.162	0.28323787
880.336	0.28309977
880.51	0.28311676
880.685	0.28314889
880.859	0.28298963
881.033	0.28266659
881.207	0.28221099
881.381	0.28185611
881.556	0.28155292
881.73	0.28126628
881.904	0.28095508
882.078	0.2806356
882.252	0.28038173
882.426	0.2801621
882.6	0.27994626
882.774	0.27979548
882.948	0.27942117
883.122	0.27908528
883.296	0.27893203
883.47	0.27871848
883.644	0.27864359
883.818	0.27829906
883.992	0.27815237
884.166	0.27816069
884.34	0.27799775
884.514	0.2778828
884.687	0.27771137
884.861	0.27743105
885.035	0.2774174
885.209	0.27718496
885.382	0.27699595
885.556	0.27692645
885.73	0.27675429
885.904	0.27655732
886.077	0.27642848
886.251	0.27629066
886.425	0.27598145
886.598	0.27577529
886.772	0.27538511
886.945	0.27479341
887.119	0.27432479
887.292	0.27384796
887.466	0.27345308
887.64	0.27306636
887.813	0.27264542
887.986	0.27247268
888.16	0.27246117
888.333	0.27231046
888.507	0.27205031
888.68	0.27167406
888.854	0.27152046
889.027	0.27121702
889.2	0.27106263
889.374	0.27075148
889.547	0.27062747
889.72	0.27068986
889.893	0.27046833
890.067	0.27021941
890.24	0.26998818
890.413	0.26953823
890.586	0.26916576
890.759	0.26876394
890.933	0.26841226
891.106	0.26829284
891.279	0.2680342
891.452	0.26793799
891.625	0.26774961
891.798	0.26762307
891.971	0.267587
892.144	0.26730483
892.317	0.26702169
892.49	0.26676146
892.663	0.2665058
892.836	0.26630097
893.009	0.26613384
893.182	0.26559397
893.355	0.26541162
893.527	0.26521551
893.7	0.26510576
893.873	0.26472299
894.046	0.2643242
894.219	0.26404948
894.391	0.26389117
894.564	0.26365948
894.737	0.26336543
894.91	0.26294645
895.082	0.26280172
895.255	0.26257756
895.428	0.26212827
895.6	0.26182272
895.773	0.26131195
895.945	0.26102806
896.118	0.2609186
896.291	0.26070638
896.463	0.26061425
896.636	0.26055191
896.808	0.26036673
896.981	0.26042472
897.153	0.26012341
897.326	0.25992899
897.498	0.25959442
897.67	0.25928717
897.843	0.25918891
898.015	0.25927222
898.187	0.25903311
898.36	0.25879705
898.532	0.25842058
898.704	0.25837127
898.877	0.25815263
899.049	0.257824
899.221	0.25748607
899.393	0.25724584
899.566	0.2572857
899.738	0.25716669
899.91	0.25702246
900.082	0.25686653
900.254	0.25668326
900.426	0.2564021
900.598	0.25601414
900.77	0.25548896
900.942	0.2551647
901.114	0.25480787
901.286	0.25457877
901.458	0.25434261
901.63	0.2541468
901.802	0.25407546
901.974	0.25416154
902.146	0.25407177
902.318	0.25380396
902.49	0.25362002
902.662	0.25329064
902.834	0.25298104
903.005	0.25286632
903.177	0.25248727
903.349	0.25237733
903.521	0.25217792
903.693	0.2520627
903.864	0.2519577
904.036	0.25179753
904.208	0.25128309
904.379	0.2511676
904.551	0.25088654
904.723	0.25072378
904.894	0.25035925
905.066	0.25024085
905.237	0.25012476
905.409	0.25000824
905.58	0.24977521
905.752	0.24952463
905.923	0.24926933
906.095	0.24892293
906.266	0.24847484
906.438	0.2481177
906.609	0.24787818
906.78	0.24748073
906.952	0.24717851
907.123	0.24677465
907.295	0.24671746
907.466	0.24653268
907.637	0.24647463
907.808	0.24637131
907.98	0.24626122
908.151	0.24613717
908.322	0.2461049
908.493	0.24591063
908.665	0.24583197
908.836	0.24545919
909.007	0.24524676
909.178	0.2450443
909.349	0.24479601
909.52	0.24456502
909.691	0.24413793
909.862	0.24397496
910.033	0.24384699
910.204	0.24364622
910.375	0.24353321
910.546	0.24341515
910.717	0.24324352
910.888	0.24319352
911.059	0.24291633
911.23	0.24264631
911.401	0.24236511
911.572	0.24209863
911.742	0.2416939
911.913	0.24151239
912.084	0.24131319
912.255	0.24105817
912.426	0.24080469
912.596	0.24058399
912.767	0.24037377
912.938	0.24035774
913.108	0.24007037
913.279	0.23965284
913.45	0.23943545
913.62	0.2392272
913.791	0.23920589
913.962	0.23900417
914.132	0.23859927
914.303	0.2385387
914.473	0.23859924
914.644	0.23847741
914.814	0.23844834
914.985	0.2383271
915.155	0.23821767
915.326	0.23808917
915.496	0.2377438
915.666	0.2374914
915.837	0.2374444
916.007	0.23701734
916.177	0.23653935
916.348	0.23624926
916.518	0.23617272
916.688	0.2359546
916.858	0.23567349
917.029	0.23519444
917.199	0.23510158
917.369	0.235
917.539	0.23495929
917.709	0.23471844
917.88	0.23453699
918.05	0.23413624
918.22	0.23395318
918.39	0.23351014
918.56	0.23321842
918.73	0.23301683
918.9	0.23277765
919.07	0.23245676
919.24	0.2325216
919.41	0.23251352
919.58	0.23240483
919.75	0.23228332
919.92	0.23177347
920.09	0.23167163
920.26	0.23155998
920.429	0.23135279
920.599	0.23106914
920.769	0.23096312
920.939	0.23060944
921.109	0.23043553
921.278	0.23008536
921.448	0.22993361
921.618	0.22988535
921.787	0.22965147
921.957	0.22947493
922.127	0.22935818
922.296	0.22937221
922.466	0.22908911
922.636	0.22907311
922.805	0.22897153
922.975	0.22873826
923.144	0.2285833
923.314	0.22856883
923.483	0.22849756
923.653	0.22856773
923.822	0.22820385
923.992	0.22787398
924.161	0.2279422
924.331	0.2279111
924.5	0.22765732
924.669	0.22732803
924.839	0.22716718
925.008	0.22709497
925.177	0.22676057
925.347	0.22663983
925.516	0.22657918
925.685	0.22655706
925.854	0.22652524
926.023	0.22641257
926.193	0.22631733
926.362	0.22627461
926.531	0.22592891
926.7	0.22559652
926.869	0.22552086
927.038	0.22513362
927.207	0.22491117
927.376	0.22484052
927.545	0.22462181
927.715	0.22452133
927.884	0.22434661
928.052	0.22427107
928.221	0.22388603
928.39	0.22357728
928.559	0.22314389
928.728	0.22323811
928.897	0.22341473
929.066	0.22350313
929.235	0.22306399
929.404	0.22322543
929.572	0.22320041
929.741	0.22318169
929.91	0.2229416
930.079	0.22252959
930.247	0.22218483
930.416	0.22211131
930.585	0.22190582
930.753	0.22162533
930.922	0.22148995
931.091	0.22145025
931.259	0.22123496
931.428	0.22115839
931.596	0.22097628
931.765	0.22124625
931.934	0.22141399
932.102	0.22090911
932.27	0.2207486
932.439	0.22046115
932.607	0.22020388
932.776	0.22008165
932.944	0.21953292
933.113	0.2191841
933.281	0.21924293
933.449	0.21856032
933.618	0.21832816
933.786	0.21822573
933.954	0.21788939
934.123	0.21770885
934.291	0.21747987
934.459	0.21720505
934.627	0.21744788
934.795	0.21751309
934.964	0.21700113
935.132	0.2167163
935.3	0.21647154
935.468	0.21623317
935.636	0.21644564
935.804	0.21610289
935.972	0.21566491
936.14	0.21547902
936.308	0.21560983
936.476	0.21565063
936.644	0.21556709
936.812	0.21535138
936.98	0.2152971
937.148	0.21528031
937.316	0.21522202
937.484	0.2153793
937.652	0.21493471
937.82	0.21530957
937.987	0.21513022
938.155	0.21505662
938.323	0.21510714
938.491	0.21505982
938.658	0.21512878
938.826	0.215483
938.994	0.21516426
939.162	0.21478263
939.329	0.21515175
939.497	0.2159515
939.665	0.21629982
939.832	0.21673641
940	0.21665261
940.167	0.21650217
940.335	0.21637684
940.502	0.2156975
940.67	0.21486271
940.837	0.21549385
941.005	0.2134355
941.172	0.2134756
941.34	0.21368401
941.507	0.21518377
941.674	0.21634162
941.842	0.21648525
942.009	0.21766678
942.177	0.21813636
942.344	0.21852357
942.511	0.21844357
942.678	0.21838262
942.846	0.21721103
943.013	0.21704046
943.18	0.21590241
943.347	0.21770823
943.514	0.21725337
943.682	0.2181041
943.849	0.21657757
944.016	0.21586425
944.183	0.21559505
944.35	0.21489737
944.517	0.21451392
944.684	0.21543097
944.851	0.2122932
945.018	0.21201862
945.185	0.21300595
945.352	0.21396891
945.519	0.21329696
945.686	0.21219604
945.853	0.21317172
946.02	0.21350707
946.187	0.21378733
946.353	0.2138795
946.52	0.21208072
946.687	0.21222408
946.854	0.21266325
947.021	0.21089329
947.187	0.21181498
947.354	0.21089935
947.521	0.21062285
947.687	0.2100999
947.854	0.20983707
948.021	0.20788898
948.187	0.20776945
948.354	0.20684843
948.52	0.20639719
948.687	0.20694822
948.854	0.20825289
949.02	0.20728037
949.187	0.20896038
949.353	0.2092926
949.52	0.20873577
949.686	0.20894534
949.852	0.20922688
950.019	0.20891903
950.185	0.21049473
950.352	0.20931892
950.518	0.20794556
950.684	0.20939439
950.851	0.20955179
951.017	0.20745081
951.183	0.20710468
951.349	0.20586563
951.516	0.20469757
951.682	0.20507851
951.848	0.20333971
952.014	0.20226962
952.18	0.20281079
952.346	0.20252432
952.512	0.20306463
952.679	0.20456719
952.845	0.20491476
953.011	0.20502849
953.177	0.20560817
953.343	0.20530063
953.509	0.20563401
953.675	0.20524693
953.841	0.20462251
954.007	0.20461279
954.172	0.20472682
954.338	0.203397
954.504	0.20233153
954.67	0.20026434
954.836	0.20003838
955.002	0.19970226
955.167	0.19879948
955.333	0.19758257
955.499	0.19861358
955.665	0.19830667
955.83	0.19925847
955.996	0.19862407
956.162	0.19846297
956.327	0.19742221
956.493	0.19768183
956.659	0.19737172
956.824	0.19688137
956.99	0.19656822
957.155	0.19661252
957.321	0.19600586
957.486	0.19623657
957.652	0.19616203
957.817	0.19665146
957.983	0.19683124
958.148	0.19670879
958.314	0.19608783
958.479	0.19554356
958.644	0.19543792
958.81	0.19541536
958.975	0.19456578
959.14	0.19493079
959.306	0.19440587
959.471	0.19369354
959.636	0.19338175
959.801	0.19424201
959.967	0.19419534
960.132	0.19455928
960.297	0.19436585
960.462	0.19496577
960.627	0.19532883
960.792	0.19487435
960.957	0.19426159
961.123	0.19454587
961.288	0.19419454
961.453	0.19420922
961.618	0.19381011
961.783	0.1942156
961.948	0.19419216
962.113	0.19334557
962.277	0.19219079
962.442	0.19188984
962.607	0.19164572
962.772	0.19116389
962.937	0.19052776
963.102	0.19097159
963.267	0.19112858
963.431	0.19181794
963.596	0.19154007
963.761	0.19156144
963.926	0.19152348
964.09	0.19169625
964.255	0.19202352
964.42	0.19212837
964.584	0.19202342
964.749	0.19175249
964.914	0.19096944
965.078	0.19059695
965.243	0.18998267
965.407	0.18872237
965.572	0.18814082
965.736	0.18775079
965.901	0.18789117
966.065	0.18860964
966.23	0.18875179
966.394	0.18892763
966.559	0.18985285
966.723	0.18973027
966.887	0.18991132
967.052	0.18924264
967.216	0.18800676
967.38	0.1875042
967.545	0.18712309
967.709	0.18692777
967.873	0.18727286
968.037	0.18695067
968.202	0.18748662
968.366	0.18797275
968.53	0.18809952
968.694	0.18795362
968.858	0.18710005
969.022	0.18662843
969.187	0.18571043
969.351	0.18528216
969.515	0.18510055
969.679	0.18433505
969.843	0.18390991
970.007	0.18383298
970.171	0.18381466
970.335	0.1844678
970.499	0.18413593
970.662	0.18400684
970.826	0.18469489
970.99	0.18517455
971.154	0.18561215
971.318	0.1853319
971.482	0.18469923
971.645	0.18511852
971.809	0.18506528
971.973	0.18469413
972.137	0.18459777
972.3	0.18419237
972.464	0.1844541
972.628	0.18499814
972.791	0.18529287
972.955	0.1855681
973.119	0.18580774
973.282	0.18590001
973.446	0.18585218
973.609	0.18525197
973.773	0.18486355
973.936	0.184078
974.1	0.18333613
974.263	0.18292478
974.427	0.18226823
974.59	0.18184272
974.754	0.18224864
974.917	0.18199982
975.08	0.18156911
975.244	0.18107469
975.407	0.18059878
975.57	0.18080056
975.734	0.18078407
975.897	0.18011417
976.06	0.18003855
976.223	0.18037538
976.387	0.18111318
976.55	0.18125646
976.713	0.18078547
976.876	0.18136104
977.039	0.18165276
977.202	0.18155613
977.365	0.18075369
977.528	0.17998068
977.692	0.18069153
977.855	0.18024876
978.018	0.17935759
978.181	0.17905638
978.344	0.17917556
978.506	0.17941028
978.669	0.17964459
978.832	0.17843624
978.995	0.1785164
979.158	0.17894837
979.321	0.17853449
979.484	0.17837218
979.646	0.17808208
979.809	0.17840537
979.972	0.17846528
980.135	0.17893172
980.297	0.17861733
980.46	0.17835758
980.623	0.1788271
980.786	0.17905599
980.948	0.17867487
981.111	0.17819506
981.273	0.17804606
981.436	0.17816519
981.599	0.17864031
981.761	0.17758065
981.924	0.17755778
982.086	0.17727863
982.249	0.17757799
982.411	0.17670097
982.573	0.1761982
982.736	0.17703125
982.898	0.17676993
983.061	0.17638198
983.223	0.17608108
983.385	0.17559828
983.548	0.1766479
983.71	0.17656141
983.872	0.17484039
984.034	0.17467136
984.197	0.17406649
984.359	0.17401944
984.521	0.1748743
984.683	0.17404566
984.845	0.17435802
985.008	0.17412086
985.17	0.17496624
985.332	0.17565974
985.494	0.17515135
985.656	0.17532911
985.818	0.17510364
985.98	0.17479389
986.142	0.17472395
986.304	0.17393005
986.466	0.17337173
986.628	0.17380494
986.79	0.17281601
986.952	0.17214615
987.113	0.17219129
987.275	0.1726745
987.437	0.17262502
987.599	0.1726284
987.761	0.17232729
987.922	0.17210246
988.084	0.1724919
988.246	0.17245304
988.408	0.17266981
988.569	0.17270366
988.731	0.17358431
988.893	0.17407234
989.054	0.1748294
989.216	0.17484757
989.377	0.17396322
989.539	0.17282587
989.701	0.17217606
989.862	0.17139047
990.024	0.17023635
990.185	0.16860899
990.347	0.16931502
990.508	0.16925799
990.669	0.17022742
990.831	0.17050716
990.992	0.17110681
991.154	0.17119976
991.315	0.17301414
991.476	0.17271341
991.638	0.17267837
991.799	0.1728538
991.96	0.17243667
992.121	0.17243945
992.283	0.17268033
992.444	0.17174942
992.605	0.17156308
992.766	0.17259699
992.927	0.17195985
993.088	0.17236968
993.249	0.17132846
993.41	0.17174523
993.572	0.17176031
993.733	0.17115714
993.894	0.1697212
994.055	0.16804482
994.216	0.16823429
994.376	0.16752439
994.537	0.16723446
994.698	0.16709902
994.859	0.16709849
995.02	0.16708322
995.181	0.16735509
995.342	0.16712986
995.503	0.16710541
995.663	0.16759711
995.824	0.16654763
995.985	0.16717257
996.146	0.16760666
996.306	0.1686505
996.467	0.16881651
996.628	0.16905322
996.788	0.16841257
996.949	0.16937964
997.11	0.16866997
997.27	0.16780433
997.431	0.16724494
997.591	0.1650675
997.752	0.16427407
997.912	0.16398337
998.073	0.16421776
998.233	0.16478271
998.394	0.16443892
998.554	0.16509343
998.714	0.16647938
998.875	0.16646693
999.035	0.16588686
999.196	0.1661844
999.356	0.16482696
999.516	0.16578693
999.676	0.16629455
999.837	0.1665583
999.997	0.16704993
1000.157	0.16733215
1000.317	0.16500679
1000.477	0.16518792
1000.638	0.16469947
1000.798	0.16400069
1000.958	0.16524855
1001.118	0.1669863
1001.278	0.16656808
1001.438	0.16702997
1001.598	0.16729836
1001.758	0.16786943
1001.918	0.16842794
1002.078	0.1654628
1002.238	0.16350416
1002.398	0.1640453
1002.558	0.16394313
1002.718	0.16409221
1002.878	0.16394255
1003.037	0.15991795
1003.197	0.1604729
1003.357	0.15976964
1003.517	0.16061611
1003.677	0.16036492
1003.836	0.16010461
1003.996	0.16016414
1004.156	0.1626825
1004.315	0.16395597
1004.475	0.16561121
1004.635	0.16629508
1004.794	0.16828428
1004.954	0.16785007
1005.114	0.16693608
1005.273	0.16836543
1005.433	0.16640302
1005.592	0.16524742
1005.752	0.16378718
1005.911	0.16261141
1006.071	0.16447058
1006.23	0.16354125
1006.389	0.16232249
1006.549	0.16261413
1006.708	0.16165332
1006.868	0.15952347
1007.027	0.16009803
1007.186	0.16026659
1007.345	0.16282181
1007.505	0.16331218
1007.664	0.1651042
1007.823	0.16534669
1007.982	0.16831233
1008.142	0.16838398
1008.301	0.16689486
1008.46	0.16524521
1008.619	0.16306438
1008.778	0.16288204
1008.937	0.16430293
1009.096	0.16216385
1009.255	0.16123997
1009.414	0.15837381
1009.573	0.15867452
1009.732	0.16052748
1009.891	0.16063587
1010.05	0.15996126
1010.209	0.16061363
1010.368	0.16067318
1010.527	0.16340995
1010.686	0.16337505
1010.845	0.16094499
1011.003	0.16023761
1011.162	0.16082374
1011.321	0.15751992
1011.48	0.15892687
1011.638	0.15846816
1011.797	0.15840011
1011.956	0.15965808
1012.115	0.15913267
1012.273	0.15781134
1012.432	0.16148716
1012.59	0.15891082
1012.749	0.15984566
1012.908	0.15946433
1013.066	0.16156833
1013.225	0.15882794
1013.383	0.16101155
1013.542	0.16042319
1013.7	0.16207103
1013.859	0.16207256
1014.017	0.16318489
1014.175	0.15990566
1014.334	0.16473164
1014.492	0.16477702
1014.65	0.1658586
1014.809	0.16540968
1014.967	0.16409466
1015.125	0.16654539
1015.284	0.17087445
1015.442	0.16815534
1015.6	0.16841807
1015.758	0.16751004
1015.916	0.16829882
1016.075	0.16721752
1016.233	0.16216416
1016.391	0.16215829
1016.549	0.16343833
1016.707	0.16167036
1016.865	0.161485
1017.023	0.15794892
1017.181	0.15944753
1017.339	0.16265769
1017.497	0.15917579
1017.655	0.1589434
1017.813	0.15900999
1017.971	0.15916851
1018.129	0.16090872
1018.286	0.16248842
1018.444	0.15721651
1018.602	0.15809888
1018.76	0.15827682
1018.918	0.15690652
1019.075	0.15554658
1019.233	0.15375628
1019.391	0.15231585
1019.549	0.15583365
1019.706	0.15808475
1019.864	0.15756865
1020.022	0.16358979
1020.179	0.16707077
1020.337	0.17067901
1020.494	0.16923809
1020.652	0.16736887
1020.809	0.16517863
1020.967	0.16460504
1021.124	0.15898117
1021.282	0.16065754
1021.439	0.15814464
1021.597	0.1598888
1021.754	0.16013694
1021.911	0.16464046
1022.069	0.16001349
1022.226	0.16017443
1022.384	0.15492371
1022.541	0.15421769
1022.698	0.15391648
1022.855	0.15704131
1023.013	0.15260739
1023.17	0.15608834
1023.327	0.15965911
1023.484	0.16350158
1023.641	0.17004541
1023.798	0.17440562
1023.956	0.17705565
1024.113	0.17752305
1024.27	0.17578709
1024.427	0.17651462
1024.584	0.17679575
1024.741	0.17044411
1024.898	0.16376436
1025.055	0.15335654
1025.212	0.14933347
1025.369	0.1463192
1025.525	0.14325414
1025.682	0.14213267
1025.839	0.14192487
1025.996	0.14474516
1026.153	0.15522278
1026.31	0.15873471
1026.466	0.16974433
1026.623	0.17610585
1026.78	0.177009
1026.937	0.17933948
1027.093	0.18375345
1027.25	0.18762076
1027.407	0.18229199
1027.563	0.17855856
1027.72	0.17448694
1027.876	0.16994791
1028.033	0.17415307
1028.19	0.16912234
1028.346	0.16057711
1028.503	0.1656504
1028.659	0.16737931
1028.816	0.17348363
1028.972	0.18066721
1029.128	0.18423282
1029.285	0.18231297
1029.441	0.18449586
1029.598	0.18021578
1029.754	0.17730237
1029.91	0.17007332
1030.067	0.16106364
1030.223	0.15935191
1030.379	0.15757374
1030.535	0.1646156
1030.691	0.1673729
1030.848	0.17694804
1031.004	0.18102418
1031.16	0.18902804
1031.316	0.18971214
1031.472	0.20464577
1031.628	0.19325677
1031.784	0.19036901
1031.94	0.18763265
1032.096	0.18240252
1032.252	0.18355152
1032.408	0.18600134
1032.564	0.17916782
1032.72	0.18337164
1032.876	0.18631647
1033.032	0.18185344
1033.188	0.17773173
1033.344	0.17799688
1033.5	0.17410044
1033.655	0.17086379
1033.811	0.16970739
1033.967	0.17727546
