Data from 0_1_mm_pl_40pc_Absorbance__0__16-09-23-486.txt Node

Date: Fri Feb 24 16:09:23 CET 2023
User: Ange
Spectrometer: FLMT08341
Trigger mode: 0
Integration Time (sec): 1.000000E-2
Scans to average: 400
Electric dark correction enabled: true
Nonlinearity correction enabled: false
Boxcar width: 3
XAxis mode: Wavelengths
Number of Pixels in Spectrum: 3648
>>>>>Begin Spectral Data<<<<<
345.271	0.03657665
345.487	0.03184842
345.704	0.02699284
345.921	0.02387274
346.137	0.00898073
346.354	-0.01723772
346.571	-0.01848969
346.787	-0.06253928
347.004	0.20332888
347.22	0.0698702
347.437	0.02131537
347.653	0.06375131
347.87	0.54056635
348.086	-0
348.303	-0.08819976
348.519	0.53063859
348.736	0.48555
348.952	0.48174491
349.169	0.49768381
349.385	0.51676804
349.601	0.51161487
349.818	0.50466578
350.034	0.49666822
350.251	0.49172637
350.467	0.49688027
350.683	0.48283472
350.9	0.48115287
351.116	0.47908123
351.332	0.47485825
351.549	0.49312919
351.765	0.50643037
351.981	0.51282875
352.197	0.52875721
352.414	0.54463221
352.63	0.55440675
352.846	0.56952925
353.062	0.55716795
353.278	0.54596421
353.495	0.55640938
353.711	0.55903574
353.927	0.560555
354.143	0.55766808
354.359	0.5520373
354.575	0.54859256
354.792	0.56450207
355.008	0.55653239
355.224	0.54877961
355.44	0.5438166
355.656	0.54341265
355.872	0.55462106
356.088	0.58525442
356.304	0.58175163
356.52	0.58216602
356.736	0.5903079
356.952	0.5952473
357.168	0.59513692
357.384	0.59737741
357.6	0.57549069
357.816	0.58364167
358.032	0.59203437
358.248	0.60679591
358.464	0.60511695
358.679	0.6081137
358.895	0.60586299
359.111	0.61502885
359.327	0.60456766
359.543	0.60813718
359.759	0.60951579
359.974	0.61059169
360.19	0.60812142
360.406	0.60579285
360.622	0.59951534
360.838	0.59533032
361.053	0.59524713
361.269	0.59289535
361.485	0.59369161
361.701	0.59702463
361.916	0.58975869
362.132	0.58942584
362.348	0.59477842
362.563	0.59491895
362.779	0.58851897
362.995	0.59223356
363.21	0.59742329
363.426	0.59931365
363.641	0.60039632
363.857	0.60152286
364.073	0.59599129
364.288	0.59104726
364.504	0.59444418
364.719	0.59082084
364.935	0.58798919
365.15	0.58837466
365.366	0.58767238
365.581	0.59125607
365.797	0.5926827
366.012	0.58368948
366.228	0.57462686
366.443	0.58382789
366.658	0.58211371
366.874	0.57677597
367.089	0.5793874
367.305	0.58028652
367.52	0.58081607
367.735	0.58113339
367.951	0.57109817
368.166	0.57041931
368.381	0.5762638
368.597	0.56829777
368.812	0.57030103
369.027	0.57162833
369.243	0.57571133
369.458	0.58616457
369.673	0.58381757
369.888	0.58004288
370.104	0.57594541
370.319	0.57366832
370.534	0.56967377
370.749	0.56556694
370.964	0.56267904
371.179	0.56128953
371.395	0.55552575
371.61	0.55809823
371.825	0.55098346
372.04	0.54904141
372.255	0.54491172
372.47	0.53741989
372.685	0.53116102
372.9	0.5282809
373.115	0.52173018
373.33	0.52195047
373.545	0.52020968
373.76	0.52017309
373.975	0.5166031
374.19	0.51312085
374.405	0.51473217
374.62	0.51800279
374.835	0.52063492
375.05	0.51845521
375.265	0.51610854
375.48	0.51507604
375.695	0.52145741
375.91	0.51381934
376.125	0.50529527
376.339	0.49667598
376.554	0.49277386
376.769	0.49100974
376.984	0.48872187
377.199	0.48603513
377.414	0.48493131
377.628	0.4872924
377.843	0.48855345
378.058	0.48789049
378.273	0.4874052
378.487	0.48581979
378.702	0.48273877
378.917	0.48099053
379.131	0.47535032
379.346	0.46925935
379.561	0.46531087
379.775	0.45968123
379.99	0.45396622
380.205	0.4475907
380.419	0.4426527
380.634	0.43808511
380.848	0.43766386
381.063	0.43595389
381.278	0.4365968
381.492	0.43428222
381.707	0.43557842
381.921	0.4341858
382.136	0.43635892
382.35	0.43258569
382.565	0.42914733
382.779	0.42708775
382.994	0.42572943
383.208	0.42170906
383.422	0.42220177
383.637	0.41929474
383.851	0.41891777
384.066	0.41765778
384.28	0.41615862
384.494	0.41483024
384.709	0.41324928
384.923	0.41057041
385.137	0.40585791
385.352	0.40339557
385.566	0.40211309
385.78	0.39862233
385.995	0.3953744
386.209	0.3926876
386.423	0.39115777
386.637	0.39099734
386.852	0.38745037
387.066	0.38422584
387.28	0.38108383
387.494	0.38091498
387.708	0.37877652
387.923	0.37626255
388.137	0.37567003
388.351	0.37502474
388.565	0.3747204
388.779	0.37382385
388.993	0.37331453
389.207	0.37170614
389.421	0.37066704
389.635	0.36654781
389.85	0.36453167
390.064	0.3619488
390.278	0.35905252
390.492	0.35682624
390.706	0.35529621
390.92	0.35258794
391.134	0.35183498
391.348	0.35216652
391.561	0.34974472
391.775	0.34863566
391.989	0.34506874
392.203	0.34401045
392.417	0.3426791
392.631	0.3422565
392.845	0.33878375
393.059	0.33867933
393.273	0.33624962
393.486	0.33387295
393.7	0.33053354
393.914	0.3290377
394.128	0.3268532
394.342	0.32506014
394.555	0.32130817
394.769	0.31994375
394.983	0.31915896
395.197	0.31857044
395.41	0.31635065
395.624	0.31469831
395.838	0.31272334
396.051	0.31335879
396.265	0.31149737
396.479	0.31047687
396.692	0.30950247
396.906	0.30813006
397.12	0.30674049
397.333	0.30631829
397.547	0.30379014
397.76	0.30330788
397.974	0.30212109
398.187	0.30093805
398.401	0.30028931
398.614	0.29881646
398.828	0.2969447
399.041	0.29582438
399.255	0.2942541
399.468	0.29316911
399.682	0.29193969
399.895	0.29069134
400.109	0.28916741
400.322	0.2877971
400.536	0.28563211
400.749	0.28568638
400.962	0.28390988
401.176	0.28201706
401.389	0.28022532
401.602	0.27824281
401.816	0.27718424
402.029	0.27691691
402.242	0.27438628
402.456	0.27332498
402.669	0.27179692
402.882	0.27038065
403.095	0.2703286
403.309	0.26918222
403.522	0.26798377
403.735	0.2667369
403.948	0.26574524
404.161	0.26594665
404.375	0.26548682
404.588	0.2644794
404.801	0.26332754
405.014	0.26222825
405.227	0.26214742
405.44	0.26153972
405.653	0.26056183
405.866	0.25902574
406.079	0.25755964
406.293	0.25687399
406.506	0.25604427
406.719	0.25461637
406.932	0.25297564
407.145	0.25122578
407.358	0.25138853
407.571	0.24978171
407.784	0.24905019
407.996	0.24822449
408.209	0.24716185
408.422	0.24635629
408.635	0.24617235
408.848	0.24484015
409.061	0.24405461
409.274	0.24279149
409.487	0.24161155
409.7	0.24095759
409.912	0.24033289
410.125	0.23892396
410.338	0.23791662
410.551	0.23709768
410.764	0.2365493
410.976	0.23610949
411.189	0.23532382
411.402	0.23435463
411.615	0.23397435
411.827	0.23336121
412.04	0.23324467
412.253	0.2323226
412.465	0.23150293
412.678	0.23063568
412.891	0.23047699
413.103	0.22903169
413.316	0.22804954
413.529	0.22713189
413.741	0.22634605
413.954	0.22557243
414.166	0.22497315
414.379	0.22383017
414.591	0.22390293
414.804	0.22322634
415.016	0.22271814
415.229	0.22239341
415.441	0.22153124
415.654	0.22107168
415.866	0.22044755
416.079	0.21985811
416.291	0.21910482
416.504	0.21870323
416.716	0.21793982
416.928	0.2177126
417.141	0.21703376
417.353	0.21654545
417.566	0.21556444
417.778	0.21528141
417.99	0.21421634
418.203	0.21352747
418.415	0.21276219
418.627	0.21236062
418.839	0.21199576
419.052	0.21214151
419.264	0.21141717
419.476	0.21116329
419.688	0.21083563
419.901	0.2103181
420.113	0.209506
420.325	0.20889129
420.537	0.20778676
420.749	0.20766186
420.961	0.2073974
421.174	0.20690815
421.386	0.20658298
421.598	0.20605991
421.81	0.20551607
422.022	0.20515793
422.234	0.20465447
422.446	0.20416564
422.658	0.20366093
422.87	0.20312571
423.082	0.20301333
423.294	0.20253973
423.506	0.20199286
423.718	0.20141967
423.93	0.20077513
424.142	0.20016659
424.354	0.19966929
424.566	0.19922824
424.778	0.19904527
424.99	0.1986238
425.202	0.19781181
425.414	0.19751932
425.625	0.19738861
425.837	0.19680052
426.049	0.19633283
426.261	0.19589052
426.473	0.19548707
426.684	0.19527245
426.896	0.1951064
427.108	0.19447074
427.32	0.19442953
427.531	0.19391286
427.743	0.19343584
427.955	0.19339447
428.167	0.19308161
428.378	0.1925735
428.59	0.19232603
428.802	0.19205959
429.013	0.19159002
429.225	0.19132536
429.436	0.19087464
429.648	0.19089617
429.86	0.19066352
430.071	0.19042043
430.283	0.19003547
430.494	0.18986987
430.706	0.18942887
430.917	0.18911605
431.129	0.18882182
431.34	0.18848415
431.552	0.18836105
431.763	0.18782713
431.975	0.18775728
432.186	0.18759098
432.398	0.18736852
432.609	0.18674597
432.821	0.18645408
433.032	0.18615748
433.243	0.18604443
433.455	0.18570356
433.666	0.18568838
433.877	0.18564503
434.089	0.18563342
434.3	0.18532941
434.511	0.18491586
434.723	0.18463452
434.934	0.18428344
435.145	0.18359004
435.356	0.183197
435.568	0.1828342
435.779	0.1827888
435.99	0.18250171
436.201	0.18245198
436.412	0.18225203
436.624	0.18228904
436.835	0.18208533
437.046	0.18207157
437.257	0.18167743
437.468	0.18176228
437.679	0.18126865
437.89	0.18119644
438.101	0.18100836
438.312	0.18059982
438.523	0.18021529
438.734	0.18009075
438.945	0.17977353
439.156	0.17960575
439.367	0.17947594
439.578	0.17929406
439.789	0.17923478
440	0.17913837
440.211	0.17872345
440.422	0.17854002
440.633	0.17848858
440.844	0.17809622
441.055	0.17779559
441.266	0.17757348
441.477	0.17739156
441.687	0.17740575
441.898	0.17719839
442.109	0.17690771
442.32	0.17682146
442.531	0.17676244
442.741	0.17658212
442.952	0.17626138
443.163	0.176155
443.374	0.1759637
443.584	0.17577794
443.795	0.17555346
444.006	0.17531612
444.216	0.1750858
444.427	0.17494738
444.638	0.17470767
444.848	0.17456276
445.059	0.17456442
445.27	0.17408425
445.48	0.17389758
445.691	0.17379344
445.901	0.17362994
446.112	0.17334021
446.323	0.17285269
446.533	0.17239714
446.744	0.17246195
446.954	0.17234165
447.165	0.17216735
447.375	0.17221469
447.586	0.17213253
447.796	0.17233795
448.006	0.17230719
448.217	0.17217559
448.427	0.17182108
448.638	0.17157441
448.848	0.17102538
449.058	0.1708009
449.269	0.17065924
449.479	0.17051096
449.689	0.17043268
449.9	0.17054553
450.11	0.17051853
450.32	0.17063424
450.531	0.17052651
450.741	0.17032142
450.951	0.17034585
451.161	0.17009374
451.372	0.16988782
451.582	0.17002348
451.792	0.16991915
452.002	0.16991166
452.212	0.16971324
452.422	0.16952346
452.633	0.16951194
452.843	0.16948697
453.053	0.16904721
453.263	0.16900959
453.473	0.16890751
453.683	0.16901286
453.893	0.16885505
454.103	0.16892282
454.313	0.16886617
454.523	0.16886808
454.733	0.16876635
454.943	0.16873539
455.153	0.16874108
455.363	0.16877491
455.573	0.16864283
455.783	0.16848268
455.993	0.16826718
456.203	0.16825885
456.413	0.16824125
456.623	0.16786965
456.833	0.16792112
457.042	0.16781631
457.252	0.16788368
457.462	0.16796352
457.672	0.16780717
457.882	0.16766511
458.091	0.16771608
458.301	0.16759303
458.511	0.16752784
458.721	0.16731909
458.931	0.16729896
459.14	0.16734639
459.35	0.16739641
459.56	0.16742569
459.769	0.16750573
459.979	0.1675923
460.189	0.1676286
460.398	0.16770763
460.608	0.16770385
460.817	0.1676036
461.027	0.16755308
461.237	0.16753111
461.446	0.16745247
461.656	0.1676099
461.865	0.16747557
462.075	0.1674206
462.284	0.16759548
462.494	0.16763977
462.703	0.16749108
462.913	0.16754993
463.122	0.16743046
463.332	0.16740029
463.541	0.16755159
463.751	0.16750784
463.96	0.16759646
464.169	0.16777546
464.379	0.16790506
464.588	0.16794245
464.797	0.16811573
465.007	0.16804996
465.216	0.16808177
465.425	0.1681531
465.635	0.16813993
465.844	0.16811291
466.053	0.16819511
466.263	0.16825786
466.472	0.16832071
466.681	0.16838309
466.89	0.16825557
467.099	0.16832409
467.309	0.16827757
467.518	0.16828758
467.727	0.16837542
467.936	0.16836555
468.145	0.16833908
468.354	0.1685578
468.563	0.16848317
468.772	0.16855612
468.982	0.16865776
469.191	0.1686857
469.4	0.16872627
469.609	0.16888725
469.818	0.16899056
470.027	0.16912084
470.236	0.16911206
470.445	0.16931013
470.654	0.1692159
470.863	0.16934191
471.072	0.16928983
471.28	0.16924538
471.489	0.16938201
471.698	0.1695026
471.907	0.16950608
472.116	0.16967333
472.325	0.16970804
472.534	0.16983876
472.743	0.16979614
472.951	0.16989758
473.16	0.17009947
473.369	0.17001936
473.578	0.17019811
473.786	0.17038346
473.995	0.1703799
474.204	0.17063085
474.413	0.17071907
474.621	0.17083453
474.83	0.17103347
475.039	0.17109412
475.247	0.17112254
475.456	0.17136087
475.665	0.17153965
475.873	0.17166957
476.082	0.17170593
476.291	0.17181358
476.499	0.17197163
476.708	0.17207772
476.916	0.17217364
477.125	0.17224051
477.333	0.172403
477.542	0.1725724
477.75	0.17270205
477.959	0.17290519
478.167	0.17310822
478.376	0.17322585
478.584	0.17334238
478.793	0.17342405
479.001	0.17351628
479.209	0.17370487
479.418	0.17376168
479.626	0.17386981
479.834	0.17413667
480.043	0.17439095
480.251	0.17452935
480.459	0.17480346
480.668	0.17489028
480.876	0.17505965
481.084	0.17530503
481.293	0.17533336
481.501	0.17546114
481.709	0.1757174
481.917	0.17589067
482.125	0.17623765
482.334	0.17645037
482.542	0.1766062
482.75	0.17687657
482.958	0.17704507
483.166	0.17721784
483.374	0.17736776
483.583	0.17744852
483.791	0.17769707
483.999	0.17784379
484.207	0.17807439
484.415	0.17829561
484.623	0.1784413
484.831	0.17859773
485.039	0.17883629
485.247	0.17901848
485.455	0.17927305
485.663	0.17944994
485.871	0.17962246
486.079	0.17976833
486.287	0.17998193
486.495	0.1801759
486.702	0.18026999
486.91	0.18045456
487.118	0.18066612
487.326	0.18094232
487.534	0.18124902
487.742	0.18158983
487.95	0.18184263
488.157	0.18216429
488.365	0.18241587
488.573	0.18264857
488.781	0.18286729
488.988	0.1831763
489.196	0.18338756
489.404	0.18360887
489.612	0.18391418
489.819	0.18419873
490.027	0.18448251
490.235	0.18473702
490.442	0.18495386
490.65	0.18518508
490.857	0.18547699
491.065	0.18569925
491.273	0.1859116
491.48	0.18619116
491.688	0.18649373
491.895	0.18680697
492.103	0.1870428
492.31	0.18734526
492.518	0.18757112
492.725	0.18794453
492.933	0.18822694
493.14	0.18851
493.348	0.18879678
493.555	0.18910017
493.763	0.18934887
493.97	0.18969579
494.177	0.18994978
494.385	0.19025022
494.592	0.19053727
494.8	0.19082088
495.007	0.1911654
495.214	0.1914361
495.422	0.19171703
495.629	0.19194105
495.836	0.19221
496.043	0.1925119
496.251	0.19280243
496.458	0.1931071
496.665	0.19342783
496.872	0.19374245
497.08	0.19412245
497.287	0.19443641
497.494	0.19472101
497.701	0.19504198
497.908	0.19531117
498.115	0.19564214
498.322	0.19594333
498.53	0.1961927
498.737	0.19646068
498.944	0.19677508
499.151	0.19712048
499.358	0.19745967
499.565	0.19775323
499.772	0.19810253
499.979	0.19843404
500.186	0.19878125
500.393	0.19906887
500.6	0.19940072
500.807	0.19978586
501.014	0.20010722
501.221	0.20047657
501.427	0.20084517
501.634	0.20122383
501.841	0.20162544
502.048	0.2019114
502.255	0.2021339
502.462	0.20250668
502.669	0.20284129
502.875	0.20324549
503.082	0.20360256
503.289	0.20398753
503.496	0.20435772
503.702	0.20480676
503.909	0.20517322
504.116	0.20549453
504.323	0.20584922
504.529	0.20622743
504.736	0.20659119
504.943	0.20694767
505.149	0.20735415
505.356	0.20779901
505.563	0.20822753
505.769	0.2086429
505.976	0.20903489
506.182	0.20941142
506.389	0.20985434
506.595	0.21019901
506.802	0.21057558
507.008	0.2110002
507.215	0.21142828
507.421	0.2118509
507.628	0.21223339
507.834	0.21262686
508.041	0.21305024
508.247	0.213369
508.454	0.21375403
508.66	0.21403733
508.866	0.2143759
509.073	0.21482295
509.279	0.21517546
509.486	0.21557616
509.692	0.21602999
509.898	0.21637336
510.105	0.21685088
510.311	0.2172708
510.517	0.21763106
510.723	0.21801412
510.93	0.21841539
511.136	0.21879965
511.342	0.21925606
511.548	0.21963907
511.754	0.22009529
511.961	0.22053948
512.167	0.22099816
512.373	0.22137978
512.579	0.22180711
512.785	0.22220739
512.991	0.22263573
513.197	0.22304059
513.404	0.22342747
513.61	0.22391165
513.816	0.22432315
514.022	0.22479259
514.228	0.22524306
514.434	0.2256486
514.64	0.22607375
514.846	0.22654959
515.052	0.22696929
515.258	0.2274963
515.464	0.22790386
515.669	0.22833816
515.875	0.22883164
516.081	0.22926539
516.287	0.2297444
516.493	0.23021667
516.699	0.23061738
516.905	0.23102831
517.111	0.23142148
517.316	0.23188258
517.522	0.23229007
517.728	0.23270987
517.934	0.23311656
518.139	0.23355378
518.345	0.23401475
518.551	0.23451687
518.757	0.23494595
518.962	0.23547992
519.168	0.23593475
519.374	0.23630617
519.579	0.23680055
519.785	0.23737068
519.991	0.23780151
520.196	0.23831348
520.402	0.23875371
520.607	0.23925781
520.813	0.23979821
521.018	0.24021433
521.224	0.24059092
521.429	0.24110686
521.635	0.24151619
521.84	0.24190613
522.046	0.24235715
522.251	0.24287727
522.457	0.24333037
522.662	0.24379014
522.868	0.24424737
523.073	0.24464301
523.279	0.24516893
523.484	0.24557976
523.689	0.24599067
523.895	0.24652277
524.1	0.24701261
524.305	0.24749266
524.511	0.24800793
524.716	0.24848643
524.921	0.24901406
525.126	0.24947743
525.332	0.24994934
525.537	0.25044636
525.742	0.25095657
525.947	0.25149321
526.153	0.25196852
526.358	0.25248919
526.563	0.25299466
526.768	0.25347008
526.973	0.25391319
527.178	0.25432701
527.383	0.25475493
527.588	0.25524036
527.794	0.25565224
527.999	0.25609662
528.204	0.25656288
528.409	0.25705789
528.614	0.25761084
528.819	0.25811876
529.024	0.25857035
529.229	0.25898932
529.434	0.25950645
529.639	0.25999583
529.843	0.26043619
530.048	0.26086042
530.253	0.26134961
530.458	0.26186641
530.663	0.262383
530.868	0.26288702
531.073	0.26335119
531.278	0.26384627
531.482	0.26435036
531.687	0.26481462
531.892	0.26530407
532.097	0.2658058
532.302	0.2663039
532.506	0.26676017
532.711	0.26720645
532.916	0.26767955
533.12	0.26813586
533.325	0.2685715
533.53	0.26909072
533.734	0.26954884
533.939	0.2700795
534.144	0.27065827
534.348	0.27112362
534.553	0.27162502
534.757	0.27209763
534.962	0.27254561
535.167	0.27305029
535.371	0.27352104
535.576	0.27398988
535.78	0.27453961
535.985	0.27510297
536.189	0.2755864
536.394	0.27613622
536.598	0.27661031
536.803	0.27712841
537.007	0.27763382
537.211	0.27806502
537.416	0.27842973
537.62	0.27892664
537.825	0.27934622
538.029	0.27988855
538.233	0.28031895
538.438	0.28072964
538.642	0.28116832
538.846	0.2816626
539.05	0.28215248
539.255	0.28263865
539.459	0.2830319
539.663	0.28351676
539.867	0.2839947
540.072	0.28450332
540.276	0.28495183
540.48	0.28546878
540.684	0.28595912
540.888	0.28648083
541.092	0.28697978
541.297	0.2875022
541.501	0.28793257
541.705	0.28843275
541.909	0.28882613
542.113	0.28926337
542.317	0.28974744
542.521	0.29023301
542.725	0.29069764
542.929	0.29126782
543.133	0.29177385
543.337	0.29227743
543.541	0.29273454
543.745	0.29313546
543.949	0.29355225
544.153	0.2939917
544.357	0.2943603
544.56	0.29483505
544.764	0.29529412
544.968	0.29567889
545.172	0.29608891
545.376	0.29650383
545.58	0.29695179
545.783	0.29745161
545.987	0.29779687
546.191	0.29816665
546.395	0.29871092
546.598	0.29920608
546.802	0.29967946
547.006	0.30008617
547.21	0.30044399
547.413	0.30096404
547.617	0.3015244
547.821	0.30189747
548.024	0.30231875
548.228	0.30271363
548.431	0.30312835
548.635	0.30352181
548.839	0.30388462
549.042	0.30428914
549.246	0.30468522
549.449	0.30509029
549.653	0.30548367
549.856	0.30590575
550.06	0.30631926
550.263	0.30674679
550.467	0.30703936
550.67	0.30744667
550.874	0.30779711
551.077	0.30822418
551.28	0.30866734
551.484	0.3091726
551.687	0.3095893
551.891	0.31012084
552.094	0.31050089
552.297	0.31096184
552.501	0.31137422
552.704	0.31169349
552.907	0.31199941
553.11	0.31239213
553.314	0.31273724
553.517	0.31313032
553.72	0.31349772
553.923	0.31383536
554.127	0.31424485
554.33	0.31458575
554.533	0.31490654
554.736	0.3151796
554.939	0.3156201
555.142	0.31602534
555.345	0.316428
555.549	0.31678574
555.752	0.31716096
555.955	0.31751269
556.158	0.31794658
556.361	0.31825724
556.564	0.3185577
556.767	0.31891624
556.97	0.31929824
557.173	0.31967537
557.376	0.32005235
557.579	0.32037532
557.782	0.32072614
557.984	0.32107935
558.187	0.32145966
558.39	0.32171571
558.593	0.3220998
558.796	0.32236492
558.999	0.32264046
559.202	0.32293242
559.404	0.32312346
559.607	0.32331798
559.81	0.32363128
560.013	0.32388968
560.216	0.32424534
560.418	0.32455457
560.621	0.32484219
560.824	0.32520269
561.026	0.3255946
561.229	0.3258301
561.432	0.32609083
561.634	0.32628441
561.837	0.32654747
562.04	0.32677667
562.242	0.3270416
562.445	0.32723964
562.647	0.32757875
562.85	0.32778466
563.053	0.32811048
563.255	0.32838689
563.458	0.32876691
563.66	0.32905156
563.863	0.32934677
564.065	0.32950343
564.268	0.32981026
564.47	0.33008698
564.672	0.33030333
564.875	0.3304988
565.077	0.33072577
565.28	0.33097003
565.482	0.33134665
565.684	0.33155083
565.887	0.33171997
566.089	0.3320032
566.291	0.33218875
566.494	0.33242337
566.696	0.33261095
566.898	0.33274623
567.1	0.33291779
567.303	0.33318772
567.505	0.33336691
567.707	0.33349164
567.909	0.33365684
568.111	0.33381268
568.314	0.33403099
568.516	0.33423687
568.718	0.33438975
568.92	0.33455515
569.122	0.33476091
569.324	0.33498988
569.526	0.33518811
569.728	0.33536651
569.93	0.33553778
570.132	0.33567181
570.334	0.33586879
570.536	0.33600839
570.738	0.33609958
570.94	0.33624836
571.142	0.33639418
571.344	0.33654006
571.546	0.33663267
571.748	0.33675401
571.95	0.33689943
572.152	0.33701193
572.354	0.33713102
572.555	0.33725124
572.757	0.33742106
572.959	0.33754045
573.161	0.33759499
573.363	0.33769773
573.564	0.33795343
573.766	0.33805621
573.968	0.3382601
574.17	0.33827442
574.371	0.33831982
574.573	0.33839445
574.775	0.33850335
574.976	0.33841103
575.178	0.33848187
575.38	0.33838831
575.581	0.33843834
575.783	0.3385618
575.985	0.33875253
576.186	0.33880478
576.388	0.33897898
576.589	0.33899972
576.791	0.33917779
576.992	0.33931918
577.194	0.33943908
577.395	0.33944584
577.597	0.33960836
577.798	0.33963417
578	0.33975153
578.201	0.33980384
578.402	0.33980468
578.604	0.3398109
578.805	0.33987772
579.007	0.33989795
579.208	0.33997337
579.409	0.33991862
579.611	0.33997363
579.812	0.34010067
580.013	0.34019955
580.215	0.34011431
580.416	0.3400709
580.617	0.33995971
580.818	0.34002292
581.019	0.33994399
581.221	0.33987931
581.422	0.33981954
581.623	0.33996294
581.824	0.33993487
582.025	0.34009298
582.226	0.34012107
582.428	0.34023646
582.629	0.34026085
582.83	0.34030101
583.031	0.34018454
583.232	0.34029321
583.433	0.3403185
583.634	0.34028045
583.835	0.34020635
584.036	0.34015055
584.237	0.34005753
584.438	0.34007246
584.639	0.33995573
584.84	0.33984614
585.041	0.33985335
585.242	0.33979572
585.442	0.33975896
585.643	0.33989523
585.844	0.33986886
586.045	0.3398765
586.246	0.33976069
586.447	0.33973505
586.647	0.3397511
586.848	0.33975139
587.049	0.33957485
587.25	0.33946823
587.45	0.33939377
587.651	0.33943018
587.852	0.33931304
588.053	0.33931536
588.253	0.33928686
588.454	0.33930924
588.655	0.33936611
588.855	0.33932031
589.056	0.33929198
589.256	0.33931657
589.457	0.33921838
589.658	0.33919143
589.858	0.3390922
590.059	0.33903806
590.259	0.33901425
590.46	0.33899901
590.66	0.33897123
590.861	0.33895245
591.061	0.33888937
591.262	0.33894011
591.462	0.33891803
591.662	0.33883166
591.863	0.33872879
592.063	0.33871791
592.264	0.33867454
592.464	0.33864552
592.664	0.33854798
592.865	0.33852093
593.065	0.33842647
593.265	0.33845206
593.465	0.3382684
593.666	0.33824384
593.866	0.33816199
594.066	0.33815851
594.266	0.33799862
594.467	0.33791661
594.667	0.33773286
594.867	0.33777991
595.067	0.33758526
595.267	0.33747315
595.467	0.33735246
595.668	0.33733302
595.868	0.33735363
596.068	0.33732034
596.268	0.33715191
596.468	0.33720065
596.668	0.33718004
596.868	0.33712392
597.068	0.33704511
597.268	0.33701045
597.468	0.33692911
597.668	0.33686707
597.868	0.33675162
598.068	0.33669363
598.268	0.33657514
598.467	0.33661015
598.667	0.33644922
598.867	0.33634902
599.067	0.33634909
599.267	0.33630718
599.467	0.33616246
599.667	0.33608309
599.866	0.33598563
600.066	0.33598398
600.266	0.33597684
600.466	0.33593164
600.665	0.33584025
600.865	0.33582837
601.065	0.33585595
601.264	0.33577183
601.464	0.33568235
601.664	0.33567567
601.863	0.33559116
602.063	0.33553855
602.263	0.33529606
602.462	0.33519646
602.662	0.33517338
602.861	0.3351955
603.061	0.33511113
603.26	0.33507984
603.46	0.33498477
603.659	0.33509351
603.859	0.33500284
604.058	0.3348247
604.258	0.33480724
604.457	0.33489052
604.657	0.33471836
604.856	0.33462301
605.056	0.33467451
605.255	0.33465101
605.454	0.33470877
605.654	0.33455416
605.853	0.33442254
606.052	0.33444861
606.252	0.33451052
606.451	0.33445537
606.65	0.33448828
606.849	0.3343148
607.049	0.33434787
607.248	0.33425763
607.447	0.33425444
607.646	0.33419197
607.845	0.33413823
608.045	0.3339799
608.244	0.33414277
608.443	0.33408759
608.642	0.33416295
608.841	0.33409674
609.04	0.33404641
609.239	0.33406575
609.438	0.33404484
609.637	0.3340376
609.836	0.33403812
610.035	0.33392667
610.234	0.33401976
610.433	0.33408497
610.632	0.33402671
610.831	0.3341998
611.03	0.33412392
611.229	0.33427857
611.428	0.33432597
611.627	0.33430711
611.826	0.33437106
612.025	0.33453657
612.224	0.33445469
612.422	0.3345214
612.621	0.33448093
612.82	0.33455939
613.019	0.33454379
613.218	0.33457985
613.416	0.3344738
613.615	0.33462023
613.814	0.33466548
614.012	0.3347139
614.211	0.33467998
614.41	0.33486131
614.608	0.33486516
614.807	0.33495374
615.006	0.33503161
615.204	0.33512565
615.403	0.33516961
615.602	0.335345
615.8	0.33543799
615.999	0.33548481
616.197	0.33555062
616.396	0.33561362
616.594	0.33559601
616.793	0.33571497
616.991	0.33570834
617.19	0.33555178
617.388	0.33571652
617.586	0.33580622
617.785	0.33585015
617.983	0.33591956
618.182	0.33587601
618.38	0.33586321
618.578	0.3359998
618.777	0.33609203
618.975	0.33623115
619.173	0.33633042
619.372	0.33648243
619.57	0.33657071
619.768	0.33674502
619.966	0.33692358
620.165	0.3369532
620.363	0.33705154
620.561	0.33698867
620.759	0.33706388
620.957	0.33729539
621.155	0.33750077
621.354	0.33756449
621.552	0.33779905
621.75	0.33783813
621.948	0.33816984
622.146	0.33835048
622.344	0.33840578
622.542	0.33849687
622.74	0.33865298
622.938	0.33865046
623.136	0.33887836
623.334	0.33897926
623.532	0.3389358
623.73	0.33900317
623.928	0.33916451
624.126	0.3393228
624.324	0.33955024
624.522	0.3395663
624.719	0.33967522
624.917	0.3399574
625.115	0.34003226
625.313	0.34017185
625.511	0.34034719
625.708	0.34026337
625.906	0.34040986
626.104	0.34047188
626.302	0.34068677
626.499	0.34096451
626.697	0.34107706
626.895	0.34109385
627.093	0.34137957
627.29	0.34158925
627.488	0.34181771
627.686	0.34193619
627.883	0.34205929
628.081	0.34214087
628.278	0.34259511
628.476	0.34274876
628.673	0.34296011
628.871	0.34309444
629.068	0.34325337
629.266	0.34353348
629.463	0.34364498
629.661	0.34365369
629.858	0.3437583
630.056	0.34384821
630.253	0.34399317
630.451	0.3441857
630.648	0.34430183
630.845	0.34456455
631.043	0.34472913
631.24	0.3451085
631.438	0.34537263
631.635	0.34563653
631.832	0.34576082
632.029	0.3459818
632.227	0.34621718
632.424	0.34649612
632.621	0.34656362
632.818	0.34666898
633.016	0.34685669
633.213	0.3469715
633.41	0.34717788
633.607	0.34734291
633.804	0.34746905
634.001	0.34762014
634.199	0.34793406
634.396	0.34814025
634.593	0.34832763
634.79	0.34856192
634.987	0.3488513
635.184	0.3490886
635.381	0.34938564
635.578	0.34958318
635.775	0.34974203
635.972	0.3500203
636.169	0.35016858
636.366	0.35022226
636.563	0.35036615
636.76	0.35045727
636.957	0.35062343
637.153	0.35068489
637.35	0.3509309
637.547	0.35107428
637.744	0.35134758
637.941	0.35157655
638.138	0.35188372
638.334	0.35206766
638.531	0.35249615
638.728	0.35269193
638.925	0.35309045
639.121	0.35331367
639.318	0.35350195
639.515	0.35363393
639.711	0.35392598
639.908	0.35392464
640.105	0.35417931
640.301	0.35428829
640.498	0.35442708
640.695	0.35469556
640.891	0.35493984
641.088	0.35506644
641.284	0.35542747
641.481	0.35553462
641.677	0.35562819
641.874	0.35580344
642.07	0.35599466
642.267	0.35629294
642.463	0.35649942
642.66	0.35680523
642.856	0.35703421
643.053	0.35723767
643.249	0.35752779
643.445	0.35770485
643.642	0.35783922
643.838	0.35811292
644.034	0.35826081
644.231	0.35850867
644.427	0.35883219
644.623	0.35905554
644.82	0.35928889
645.016	0.35945862
645.212	0.35951759
645.408	0.35969871
645.604	0.36003005
645.801	0.3601967
645.997	0.36042999
646.193	0.36057149
646.389	0.36091116
646.585	0.36122562
646.781	0.36151925
646.977	0.36163855
647.173	0.36185648
647.37	0.36197249
647.566	0.3622327
647.762	0.36233415
647.958	0.36257592
648.154	0.36263884
648.35	0.36283369
648.546	0.3629878
648.742	0.36332887
648.937	0.36347056
649.133	0.36378659
649.329	0.36404292
649.525	0.36434171
649.721	0.36455857
649.917	0.36490272
650.113	0.36498746
650.309	0.36530395
650.504	0.36541456
650.7	0.36548254
650.896	0.36566246
651.092	0.36577892
651.287	0.36582648
651.483	0.36614005
651.679	0.36623503
651.875	0.36646164
652.07	0.36665428
652.266	0.36687568
652.462	0.36709977
652.657	0.36733703
652.853	0.36743847
653.048	0.36767505
653.244	0.36779705
653.44	0.36802361
653.635	0.36808803
653.831	0.36835466
654.026	0.36864508
654.222	0.36888
654.417	0.36914911
654.613	0.369388
654.808	0.36958009
655.004	0.3698894
655.199	0.36999147
655.394	0.37010713
655.59	0.37037664
655.785	0.37045928
655.98	0.37066092
656.176	0.37078177
656.371	0.37100177
656.566	0.371258
656.762	0.37134597
656.957	0.37149677
657.152	0.3716603
657.348	0.37181321
657.543	0.37206542
657.738	0.37225142
657.933	0.37238691
658.128	0.3726118
658.324	0.37266889
658.519	0.37289853
658.714	0.37309926
658.909	0.37323637
659.104	0.37336345
659.299	0.37354239
659.494	0.37369357
659.689	0.37396601
659.884	0.37410526
660.079	0.37421792
660.274	0.37444111
660.469	0.37460973
660.664	0.37484986
660.859	0.37510215
661.054	0.37524233
661.249	0.37547092
661.444	0.37569883
661.639	0.37574676
661.834	0.37582301
662.029	0.37591142
662.224	0.37603223
662.418	0.37620173
662.613	0.37629474
662.808	0.37634179
663.003	0.37655147
663.198	0.37674273
663.392	0.37684817
663.587	0.3771352
663.782	0.37717223
663.977	0.37732932
664.171	0.37760876
664.366	0.37783412
664.561	0.37800461
664.755	0.37826926
664.95	0.37819928
665.144	0.37840069
665.339	0.3786057
665.534	0.37868547
665.728	0.37877414
665.923	0.37894984
666.117	0.37898806
666.312	0.37922108
666.506	0.37945895
666.701	0.37951492
666.895	0.37968014
667.09	0.37978944
667.284	0.37994979
667.479	0.38007915
667.673	0.38015102
667.867	0.3802113
668.062	0.38031511
668.256	0.38040088
668.45	0.380633
668.645	0.38069098
668.839	0.3808677
669.033	0.38101484
669.228	0.3810893
669.422	0.38128475
669.616	0.38137118
669.81	0.38140804
670.004	0.38144284
670.199	0.38154866
670.393	0.38162365
670.587	0.38175899
670.781	0.38188141
670.975	0.3821172
671.169	0.38221483
671.363	0.38237284
671.558	0.38243994
671.752	0.38267394
671.946	0.38286526
672.14	0.38291859
672.334	0.38290929
672.528	0.38308532
672.722	0.38308566
672.916	0.38318792
673.11	0.38309449
673.304	0.38320243
673.497	0.38318307
673.691	0.38330624
673.885	0.38326763
674.079	0.38342157
674.273	0.3834161
674.467	0.38360945
674.661	0.38358372
674.854	0.38373217
675.048	0.38383019
675.242	0.38399613
675.436	0.38412433
675.629	0.3842918
675.823	0.38431096
676.017	0.38446718
676.211	0.38450056
676.404	0.38458163
676.598	0.38468559
676.792	0.38476128
676.985	0.38492743
677.179	0.3850818
677.372	0.38511945
677.566	0.38536272
677.76	0.38550329
677.953	0.3855084
678.147	0.38564991
678.34	0.38575026
678.534	0.38576495
678.727	0.38589933
678.921	0.38598459
679.114	0.38589538
679.307	0.38605072
679.501	0.38616774
679.694	0.38617819
679.888	0.38630919
680.081	0.38639121
680.274	0.38638965
680.468	0.38658439
680.661	0.38660562
680.854	0.38672534
681.048	0.38682365
681.241	0.3868535
681.434	0.38686752
681.627	0.38696078
681.821	0.38698231
682.014	0.3871469
682.207	0.38707328
682.4	0.38714111
682.593	0.38722103
682.786	0.38728564
682.98	0.38729927
683.173	0.38745325
683.366	0.38751646
683.559	0.38758196
683.752	0.38767968
683.945	0.3877706
684.138	0.38793821
684.331	0.38795827
684.524	0.38801754
684.717	0.38795694
684.91	0.38812089
685.103	0.38816052
685.296	0.38828349
685.489	0.38824709
685.682	0.38831915
685.874	0.38840227
686.067	0.38846742
686.26	0.38842826
686.453	0.38836972
686.646	0.388323
686.839	0.38841558
687.031	0.3884729
687.224	0.38833975
687.417	0.38853037
687.61	0.38851634
687.802	0.38860434
687.995	0.38875313
688.188	0.38879509
688.38	0.38889173
688.573	0.38901208
688.766	0.38891365
688.958	0.38896542
689.151	0.38893867
689.343	0.38887979
689.536	0.38883874
689.729	0.38878364
689.921	0.38884221
690.114	0.38875921
690.306	0.38881719
690.499	0.3889447
690.691	0.38902489
690.884	0.3890886
691.076	0.38918873
691.268	0.38923801
691.461	0.38926134
691.653	0.38934611
691.846	0.38939817
692.038	0.38937203
692.23	0.38930013
692.423	0.38933812
692.615	0.38929819
692.807	0.38936904
692.999	0.38938351
693.192	0.38926306
693.384	0.38925176
693.576	0.38920726
693.768	0.38919868
693.961	0.3892044
694.153	0.38927194
694.345	0.38918258
694.537	0.38931478
694.729	0.38942999
694.921	0.38952715
695.113	0.38962458
695.305	0.389683
695.498	0.38964744
695.69	0.38975467
695.882	0.38968181
696.074	0.38968177
696.266	0.38968001
696.458	0.3895901
696.65	0.38956404
696.842	0.38960853
697.033	0.3895765
697.225	0.38953088
697.417	0.38956856
697.609	0.38965515
697.801	0.38966004
697.993	0.38975572
698.185	0.38978488
698.376	0.38981049
698.568	0.38985299
698.76	0.38982689
698.952	0.38977873
699.144	0.38983604
699.335	0.38982004
699.527	0.38981615
699.719	0.38980186
699.91	0.38991792
700.102	0.38982585
700.294	0.38993709
700.485	0.38991111
700.677	0.38993783
700.869	0.39004191
701.06	0.39020943
701.252	0.39013614
701.443	0.390212
701.635	0.39015903
701.826	0.39031006
702.018	0.39036936
702.209	0.39035245
702.401	0.39025546
702.592	0.39039499
702.784	0.39037056
702.975	0.39042815
703.166	0.39034155
703.358	0.39020243
703.549	0.39021448
703.741	0.39016317
703.932	0.39008763
704.123	0.39008281
704.315	0.3901092
704.506	0.39019198
704.697	0.39027433
704.888	0.39033555
705.08	0.39043436
705.271	0.39052938
705.462	0.39058829
705.653	0.39055815
705.844	0.39055325
706.035	0.39061397
706.227	0.39055512
706.418	0.39054905
706.609	0.39048704
706.8	0.39059263
706.991	0.39059571
707.182	0.39063313
707.373	0.39059268
707.564	0.39069644
707.755	0.39070424
707.946	0.39077944
708.137	0.39068451
708.328	0.39074911
708.519	0.39077782
708.71	0.39083449
708.901	0.39073043
709.092	0.39075612
709.283	0.3907451
709.473	0.39084052
709.664	0.3908862
709.855	0.39079936
710.046	0.39084664
710.237	0.3908971
710.427	0.39095039
710.618	0.39105459
710.809	0.39106607
711	0.3911367
711.19	0.39109559
711.381	0.39113012
711.572	0.39120725
711.762	0.391247
711.953	0.39116385
712.144	0.39113599
712.334	0.3910886
712.525	0.39135449
712.715	0.39142305
712.906	0.39141224
713.097	0.39138906
713.287	0.39152198
713.478	0.39156145
713.668	0.39163662
713.859	0.39159267
714.049	0.3915475
714.239	0.39165818
714.43	0.3917737
714.62	0.39174705
714.811	0.39185439
715.001	0.39190613
715.191	0.39193841
715.382	0.39203413
715.572	0.39215954
715.762	0.39216661
715.953	0.39233344
716.143	0.39237883
716.333	0.39239313
716.523	0.3924426
716.714	0.39250166
716.904	0.39240124
717.094	0.39249748
717.284	0.39239942
717.474	0.39244614
717.664	0.39252136
717.855	0.39255282
718.045	0.39250314
718.235	0.39254657
718.425	0.39261845
718.615	0.39272995
718.805	0.39288476
718.995	0.39289946
719.185	0.39295659
719.375	0.39316009
719.565	0.39331327
719.755	0.39334564
719.945	0.39338499
720.135	0.39340022
720.325	0.39348498
720.515	0.39354171
720.704	0.39355357
720.894	0.39366855
721.084	0.39372482
721.274	0.39386332
721.464	0.39394292
721.654	0.39403514
721.843	0.39413266
722.033	0.39428041
722.223	0.39422694
722.413	0.39435243
722.602	0.39440541
722.792	0.39445978
722.982	0.39453041
723.171	0.39466414
723.361	0.39465832
723.55	0.39480763
723.74	0.39480779
723.93	0.39487482
724.119	0.39497827
724.309	0.39504789
724.498	0.39501636
724.688	0.39506163
724.877	0.39507609
725.067	0.3951608
725.256	0.39523707
725.446	0.39524923
725.635	0.39523956
725.825	0.39532759
726.014	0.39538214
726.203	0.39545894
726.393	0.39530971
726.582	0.39519385
726.771	0.39515727
726.961	0.39524717
727.15	0.39519038
727.339	0.39515083
727.529	0.39513708
727.718	0.39525867
727.907	0.39531409
728.096	0.39531513
728.286	0.39516784
728.475	0.39524303
728.664	0.39528304
728.853	0.39529409
729.042	0.39526894
729.231	0.39536055
729.42	0.39543185
729.609	0.39564299
729.799	0.39560708
729.988	0.39564321
730.177	0.39565261
730.366	0.39576869
730.555	0.39575557
730.744	0.39579454
730.933	0.39578278
731.122	0.39584471
731.31	0.39586716
731.499	0.39586067
731.688	0.39592232
731.877	0.39595084
732.066	0.39599358
732.255	0.39600344
732.444	0.39606439
732.632	0.39610001
732.821	0.39620255
733.01	0.39624726
733.199	0.39621484
733.388	0.39625567
733.576	0.39626807
733.765	0.39631026
733.954	0.39638101
734.142	0.39635463
734.331	0.39634152
734.52	0.39645587
734.708	0.39644906
734.897	0.39649243
735.086	0.39644771
735.274	0.3964158
735.463	0.39650025
735.651	0.39648553
735.84	0.39652512
736.028	0.39661419
736.217	0.39665734
736.405	0.39675631
736.594	0.39680643
736.782	0.39678869
736.971	0.39684822
737.159	0.3968666
737.347	0.39689138
737.536	0.39694415
737.724	0.39698746
737.912	0.39709581
738.101	0.39718619
738.289	0.39726887
738.477	0.39735905
738.666	0.39742153
738.854	0.39745639
739.042	0.39754058
739.23	0.39759143
739.418	0.39765417
739.607	0.3977045
739.795	0.39778997
739.983	0.39785664
740.171	0.39793244
740.359	0.39792655
740.547	0.39789076
740.735	0.39795201
740.923	0.39805235
741.112	0.39816913
741.3	0.39822009
741.488	0.39828383
741.676	0.39847796
741.864	0.39864445
742.052	0.39876159
742.239	0.39864688
742.427	0.39860343
742.615	0.39858752
742.803	0.39862335
742.991	0.39853564
743.179	0.39860031
743.367	0.39861767
743.555	0.39893042
743.742	0.39903412
743.93	0.39923604
744.118	0.39933761
744.306	0.3995075
744.494	0.39948819
744.681	0.39953062
744.869	0.39942942
745.057	0.3994607
745.244	0.39940565
745.432	0.39940915
745.62	0.39936459
745.807	0.39948635
745.995	0.39957119
746.182	0.39961494
746.37	0.39967796
746.558	0.39973006
746.745	0.3997967
746.933	0.39992888
747.12	0.39992202
747.308	0.40001808
747.495	0.40008729
747.683	0.40014777
747.87	0.40025397
748.057	0.40045604
748.245	0.40053353
748.432	0.40065477
748.62	0.40063547
748.807	0.40075578
748.994	0.4008189
749.182	0.40085492
749.369	0.40081013
749.556	0.40084798
749.743	0.40085576
749.931	0.40095948
750.118	0.40108266
750.305	0.40116946
750.492	0.40123736
750.68	0.40135817
750.867	0.40134386
751.054	0.40149553
751.241	0.40152294
751.428	0.40151398
751.615	0.40152575
751.802	0.40160579
751.989	0.40160382
752.176	0.40181692
752.363	0.40186082
752.55	0.40193924
752.737	0.40199903
752.924	0.40201782
753.111	0.40206057
753.298	0.40213588
753.485	0.40212887
753.672	0.40215458
753.859	0.40227517
754.046	0.40241398
754.233	0.40257017
754.42	0.40275883
754.606	0.40278631
754.793	0.40283968
754.98	0.4028877
755.167	0.40283881
755.353	0.40285538
755.54	0.40294934
755.727	0.40293517
755.914	0.40307141
756.1	0.40318604
756.287	0.40331308
756.474	0.40337587
756.66	0.40353479
756.847	0.40360852
757.033	0.4036408
757.22	0.4036621
757.407	0.403761
757.593	0.40384383
757.78	0.40398378
757.966	0.40401736
758.153	0.40413304
758.339	0.40426953
758.526	0.40434533
758.712	0.40430751
758.898	0.40434504
759.085	0.40435893
759.271	0.4043282
759.458	0.40422977
759.644	0.40426088
759.83	0.4043494
760.017	0.40450865
760.203	0.40452127
760.389	0.40462052
760.576	0.40471287
760.762	0.4048145
760.948	0.40471319
761.134	0.40473705
761.32	0.40470518
761.507	0.40468307
761.693	0.40477876
761.879	0.40479772
762.065	0.40484176
762.251	0.40498597
762.437	0.40507534
762.623	0.40515899
762.809	0.40529127
762.995	0.40533834
763.181	0.40531799
763.367	0.4054113
763.553	0.40544635
763.739	0.40547358
763.925	0.40555016
764.111	0.40561837
764.297	0.40569497
764.483	0.40577342
764.669	0.40570125
764.855	0.40574851
765.041	0.40576667
765.227	0.40573244
765.412	0.40580631
765.598	0.40577981
765.784	0.40589891
765.97	0.40607295
766.156	0.40619209
766.341	0.40626888
766.527	0.40635819
766.713	0.40635251
766.898	0.40643115
767.084	0.4065045
767.27	0.40646501
767.455	0.40643708
767.641	0.40649355
767.827	0.40649743
768.012	0.40653545
768.198	0.40656553
768.383	0.40658469
768.569	0.406787
768.754	0.40690725
768.94	0.40692885
769.125	0.40700613
769.311	0.40702117
769.496	0.4070197
769.682	0.40699706
769.867	0.40692302
770.052	0.4069368
770.238	0.40694393
770.423	0.40701026
770.608	0.4070704
770.794	0.40718514
770.979	0.40720673
771.164	0.40719042
771.35	0.40716922
771.535	0.40721053
771.72	0.40716417
771.905	0.40723099
772.09	0.40720907
772.276	0.40728146
772.461	0.40735029
772.646	0.40744884
772.831	0.40751825
773.016	0.40764318
773.201	0.4076276
773.386	0.40770541
773.571	0.40773919
773.756	0.40772728
773.941	0.40769308
774.126	0.40778535
774.311	0.40766019
774.496	0.4077894
774.681	0.40775352
774.866	0.40779724
775.051	0.40774199
775.236	0.40771303
775.421	0.40761439
775.606	0.40771577
775.791	0.40765738
775.976	0.40775014
776.16	0.4077572
776.345	0.40790616
776.53	0.40808908
776.715	0.4081599
776.899	0.40816546
777.084	0.40819603
777.269	0.40811219
777.454	0.40810563
777.638	0.40816838
777.823	0.4080729
778.008	0.40799388
778.192	0.40795962
778.377	0.40792184
778.561	0.4079568
778.746	0.40789216
778.931	0.407819
779.115	0.40788951
779.3	0.40794026
779.484	0.40793589
779.669	0.40785502
779.853	0.40777162
780.037	0.40787397
780.222	0.40785383
780.406	0.40783194
780.591	0.40784594
780.775	0.4079184
780.959	0.40800383
781.144	0.40806626
781.328	0.40794284
781.512	0.40782788
781.697	0.40770793
781.881	0.40761478
782.065	0.40760733
782.249	0.40752323
782.434	0.40755501
782.618	0.40765939
782.802	0.40783264
782.986	0.40796351
783.17	0.40804869
783.354	0.40804828
783.539	0.40810608
783.723	0.40805845
783.907	0.40798302
784.091	0.40786924
784.275	0.40781495
784.459	0.40771106
784.643	0.40763838
784.827	0.40759962
785.011	0.4075878
785.195	0.40766298
785.379	0.40774457
785.563	0.40774703
785.747	0.40782485
785.93	0.4079239
786.114	0.40787876
786.298	0.40781437
786.482	0.40767525
786.666	0.40756766
786.85	0.4073873
787.033	0.40730185
787.217	0.407237
787.401	0.40726005
787.585	0.40723081
787.768	0.40727388
787.952	0.40727344
788.136	0.40733787
788.319	0.40735922
788.503	0.40715847
788.687	0.40710559
788.87	0.40712662
789.054	0.40709334
789.237	0.40697527
789.421	0.40687007
789.605	0.40663813
789.788	0.40656591
789.972	0.40646244
790.155	0.40630214
790.338	0.40624812
790.522	0.40625775
790.705	0.40612951
790.889	0.40608983
791.072	0.40618192
791.256	0.40625984
791.439	0.40635385
791.622	0.406321
791.806	0.40637138
791.989	0.40641751
792.172	0.40653591
792.355	0.40652809
792.539	0.40646548
792.722	0.40635359
792.905	0.40622852
793.088	0.40604459
793.271	0.40609164
793.455	0.40596133
793.638	0.40581392
793.821	0.40572201
794.004	0.40567556
794.187	0.40575253
794.37	0.40582619
794.553	0.40584032
794.736	0.40576794
794.919	0.40575465
795.102	0.40568666
795.285	0.40562694
795.468	0.40542
795.651	0.40529119
795.834	0.40516504
796.017	0.40524745
796.2	0.40520604
796.383	0.40512652
796.566	0.4050674
796.749	0.40501393
796.931	0.40491339
797.114	0.40470252
797.297	0.40442178
797.48	0.40419445
797.663	0.40422388
797.845	0.40416849
798.028	0.40409497
798.211	0.40403617
798.393	0.40397834
798.576	0.40394037
798.759	0.40390178
798.941	0.40374794
799.124	0.40361874
799.307	0.40359025
799.489	0.40357623
799.672	0.40356919
799.854	0.40354291
800.037	0.40359428
800.219	0.40349992
800.402	0.40351575
800.584	0.40345841
800.767	0.40332002
800.949	0.40325712
801.132	0.40326604
801.314	0.40310188
801.496	0.40296962
801.679	0.4027232
801.861	0.40262694
802.043	0.40241361
802.226	0.40232915
802.408	0.40221321
802.59	0.40218937
802.772	0.4022654
802.955	0.40233919
803.137	0.40218828
803.319	0.4022311
803.501	0.40207188
803.684	0.40196448
803.866	0.40179171
804.048	0.40151544
804.23	0.40136145
804.412	0.40134648
804.594	0.40122723
804.776	0.40132467
804.958	0.40119928
805.14	0.40114554
805.322	0.40122556
805.504	0.40119657
805.686	0.40109382
805.868	0.40106708
806.05	0.40080748
806.232	0.40072855
806.414	0.40075836
806.596	0.4005624
806.778	0.40039743
806.96	0.4003053
807.141	0.40003807
807.323	0.40001108
807.505	0.39992633
807.687	0.39974288
807.869	0.39962514
808.05	0.3995717
808.232	0.39945413
808.414	0.39950181
808.595	0.39939304
808.777	0.39935494
808.959	0.39935493
809.14	0.39945128
809.322	0.39936769
809.504	0.39930259
809.685	0.39929969
809.867	0.39917497
810.048	0.39900974
810.23	0.39883787
810.411	0.39864344
810.593	0.39840792
810.774	0.39818219
810.956	0.39790968
811.137	0.3976782
811.319	0.3974501
811.5	0.39721023
811.681	0.3969998
811.863	0.39689158
812.044	0.39678776
812.225	0.39673883
812.407	0.39662976
812.588	0.39662114
812.769	0.39645695
812.951	0.39627232
813.132	0.3961179
813.313	0.39609055
813.494	0.39585797
813.675	0.39580833
813.857	0.39559962
814.038	0.39550696
814.219	0.39535593
814.4	0.39517972
814.581	0.39508111
814.762	0.39498036
814.943	0.39485069
815.124	0.39471499
815.305	0.39467391
815.486	0.39457779
815.667	0.39453748
815.848	0.39422971
816.029	0.39396654
816.21	0.39382313
816.391	0.39374118
816.572	0.3935137
816.753	0.39347193
816.934	0.39335689
817.115	0.39331601
817.295	0.39336367
817.476	0.39306603
817.657	0.3929162
817.838	0.39282166
818.019	0.39248628
818.199	0.39210701
818.38	0.39177582
818.561	0.39148206
818.741	0.39136345
818.922	0.39106173
819.103	0.39092646
819.283	0.39092022
819.464	0.39100861
819.645	0.39093276
819.825	0.39080054
820.006	0.39065487
820.186	0.39053298
820.367	0.39028727
820.547	0.39001279
820.728	0.38967486
820.908	0.38951786
821.089	0.38949933
821.269	0.38938472
821.45	0.38935046
821.63	0.38917702
821.81	0.3891019
821.991	0.38903416
822.171	0.38891774
822.351	0.38869903
822.532	0.38854703
822.712	0.38836768
822.892	0.38823422
823.072	0.38803255
823.253	0.38799338
823.433	0.38791503
823.613	0.38776928
823.793	0.38758089
823.973	0.38754212
824.154	0.38735559
824.334	0.38727139
824.514	0.38697208
824.694	0.3867112
824.874	0.38638335
825.054	0.38619791
825.234	0.38579697
825.414	0.38551833
825.594	0.3851213
825.774	0.38490627
825.954	0.38466179
826.134	0.38450031
826.314	0.38423054
826.494	0.38416048
826.674	0.38388285
826.854	0.38373776
827.033	0.38352775
827.213	0.38343426
827.393	0.383164
827.573	0.38308294
827.753	0.38284781
827.932	0.38292005
828.112	0.38281861
828.292	0.38281075
828.472	0.38257829
828.651	0.38263115
828.831	0.38239563
829.011	0.3822373
829.19	0.38195472
829.37	0.38178407
829.549	0.38147797
829.729	0.38119849
829.909	0.38091551
830.088	0.38072707
830.268	0.38038381
830.447	0.38021684
830.627	0.38007261
830.806	0.37989791
830.986	0.3797184
831.165	0.37957554
831.344	0.37948206
831.524	0.37927106
831.703	0.37899965
831.883	0.37858695
832.062	0.37822008
832.241	0.37799311
832.421	0.37772985
832.6	0.37740417
832.779	0.37725323
832.958	0.37713869
833.138	0.37693796
833.317	0.3769339
833.496	0.37681517
833.675	0.37659067
833.854	0.37646951
834.034	0.37634423
834.213	0.37599476
834.392	0.37592741
834.571	0.37551902
834.75	0.37519891
834.929	0.37493947
835.108	0.37466812
835.287	0.37445027
835.466	0.37422374
835.645	0.37392358
835.824	0.37369584
836.003	0.37349924
836.182	0.3732682
836.361	0.37311486
836.54	0.37280182
836.719	0.3727881
836.897	0.37266105
837.076	0.37260785
837.255	0.37248078
837.434	0.37239914
837.613	0.37217697
837.791	0.37204868
837.97	0.37182886
838.149	0.37159201
838.328	0.37133035
838.506	0.37110484
838.685	0.37086043
838.864	0.37061752
839.042	0.370297
839.221	0.37014492
839.4	0.36999986
839.578	0.36970778
839.757	0.36944498
839.935	0.36912019
840.114	0.3688668
840.292	0.36873422
840.471	0.36840724
840.649	0.36810536
840.828	0.36803248
841.006	0.36787377
841.185	0.36765328
841.363	0.36757227
841.541	0.36734002
841.72	0.3671246
841.898	0.36696841
842.076	0.36661311
842.255	0.3662691
842.433	0.36615764
842.611	0.36580473
842.789	0.36556613
842.968	0.36536388
843.146	0.36509737
843.324	0.36505051
843.502	0.36492239
843.68	0.36482435
843.859	0.36460413
844.037	0.36437665
844.215	0.36409405
844.393	0.36373038
844.571	0.3633834
844.749	0.3631774
844.927	0.36270347
845.105	0.36235323
845.283	0.3620523
845.461	0.36184012
845.639	0.36170216
845.817	0.36144431
845.995	0.36128236
846.173	0.36121511
846.351	0.36111311
846.529	0.36097153
846.706	0.3607184
846.884	0.36059635
847.062	0.36043306
847.24	0.36007264
847.418	0.35961089
847.595	0.3593035
847.773	0.35906364
847.951	0.35876344
848.129	0.35845943
848.306	0.35825906
848.484	0.35807813
848.662	0.35816599
848.839	0.35815254
849.017	0.3579658
849.194	0.35783275
849.372	0.35759438
849.549	0.35721983
849.727	0.35694784
849.905	0.356481
850.082	0.35605984
850.26	0.35570523
850.437	0.35539621
850.614	0.35511487
850.792	0.35494191
850.969	0.35478593
851.147	0.35464855
851.324	0.35447172
851.501	0.35429109
851.679	0.35400412
851.856	0.35377402
852.033	0.35357956
852.211	0.35328901
852.388	0.35291032
852.565	0.35261173
852.742	0.35236383
852.92	0.35203184
853.097	0.35177305
853.274	0.35142959
853.451	0.35103363
853.628	0.35075773
853.805	0.35050066
853.982	0.35013444
854.159	0.34998889
854.336	0.34975271
854.514	0.3494575
854.691	0.34924663
854.868	0.34908477
855.045	0.34882272
855.221	0.34879565
855.398	0.34850134
855.575	0.34822381
855.752	0.34811935
855.929	0.34804693
856.106	0.34776787
856.283	0.34761983
856.46	0.34739954
856.637	0.34741334
856.813	0.34715692
856.99	0.34683631
857.167	0.34654774
857.344	0.3463527
857.52	0.34605455
857.697	0.34560164
857.874	0.3451845
858.05	0.34502545
858.227	0.34480655
858.404	0.34458762
858.58	0.34444136
858.757	0.34427786
858.933	0.34419038
859.11	0.34392309
859.287	0.3435434
859.463	0.34317929
859.64	0.34300314
859.816	0.34258078
859.993	0.34227752
860.169	0.34208723
860.345	0.34186681
860.522	0.34174591
860.698	0.34165564
860.875	0.34142147
861.051	0.34130403
861.227	0.34093617
861.404	0.34069852
861.58	0.34048348
861.756	0.34022077
861.932	0.34001392
862.109	0.3396172
862.285	0.33930489
862.461	0.33927483
862.637	0.33895924
862.813	0.33875067
862.99	0.33846939
863.166	0.33805625
863.342	0.3380035
863.518	0.33778965
863.694	0.3375153
863.87	0.33721429
864.046	0.33687969
864.222	0.33669992
864.398	0.33654089
864.574	0.3361196
864.75	0.33588852
864.926	0.33553726
865.102	0.33533897
865.278	0.33502985
865.454	0.33476444
865.63	0.33441361
865.805	0.33404923
865.981	0.33373816
866.157	0.33365696
866.333	0.33339396
866.509	0.33336832
866.684	0.33303713
866.86	0.33304044
867.036	0.33293822
867.212	0.33265547
867.387	0.33236376
867.563	0.33226755
867.739	0.33205591
867.914	0.33191956
868.09	0.33148732
868.265	0.33119099
868.441	0.33084651
868.617	0.33052881
868.792	0.33010115
868.968	0.32961603
869.143	0.32944272
869.319	0.32948157
869.494	0.32932552
869.67	0.32929298
869.845	0.32907809
870.02	0.32890882
870.196	0.32876907
870.371	0.32844124
870.546	0.32799332
870.722	0.32775009
870.897	0.32728934
871.072	0.32695523
871.248	0.32659477
871.423	0.32628857
871.598	0.32613172
871.773	0.32579497
871.949	0.32543187
872.124	0.32546111
872.299	0.32525634
872.474	0.32508264
872.649	0.32472854
872.824	0.32433356
872.999	0.32400932
873.174	0.32386335
873.349	0.32357606
873.524	0.32339546
873.699	0.32314811
873.874	0.32293981
874.049	0.32265942
874.224	0.32254702
874.399	0.32218787
874.574	0.32204316
874.749	0.3216271
874.924	0.32145271
875.099	0.32133785
875.274	0.32117254
875.449	0.32099991
875.623	0.32081532
875.798	0.32027274
875.973	0.31998958
876.148	0.31945763
876.322	0.31901988
876.497	0.31862602
876.672	0.31821694
876.846	0.31791471
877.021	0.31772487
877.196	0.31724346
877.37	0.31707886
877.545	0.31704021
877.72	0.31677899
877.894	0.31669618
878.069	0.3163762
878.243	0.31594048
878.418	0.31598794
878.592	0.31566395
878.767	0.31518421
878.941	0.31491235
879.116	0.31436457
879.29	0.31398358
879.464	0.31371895
879.639	0.31332891
879.813	0.31338757
879.987	0.31329702
880.162	0.31312644
880.336	0.31309298
880.51	0.31312176
880.685	0.31306687
880.859	0.31300771
881.033	0.31242502
881.207	0.31200334
881.381	0.31177216
881.556	0.31136808
881.73	0.31086123
881.904	0.31056486
882.078	0.31012656
882.252	0.31003566
882.426	0.30986882
882.6	0.30967004
882.774	0.30959292
882.948	0.30953149
883.122	0.30925125
883.296	0.30913918
883.47	0.30886057
883.644	0.30884073
883.818	0.30835563
883.992	0.30811232
884.166	0.30796284
884.34	0.30787085
884.514	0.30796679
884.687	0.30784923
884.861	0.30756402
885.035	0.30773574
885.209	0.3076029
885.382	0.30743506
885.556	0.30732721
885.73	0.30697328
885.904	0.30682578
886.077	0.30653648
886.251	0.30618721
886.425	0.30589419
886.598	0.30561239
886.772	0.30519453
886.945	0.30468803
887.119	0.30415079
887.292	0.30379825
887.466	0.30364472
887.64	0.30326194
887.813	0.30292651
887.986	0.30277414
888.16	0.30272348
888.333	0.30257978
888.507	0.30240879
888.68	0.30199318
888.854	0.30186403
889.027	0.30164333
889.2	0.30152446
889.374	0.30116771
889.547	0.30099544
889.72	0.30100802
889.893	0.3008041
890.067	0.30047997
890.24	0.30012119
890.413	0.29979659
890.586	0.2994936
890.759	0.2993414
890.933	0.29884938
891.106	0.29868112
891.279	0.29855787
891.452	0.29854092
891.625	0.29822142
891.798	0.29820526
891.971	0.29797761
892.144	0.2979587
892.317	0.2977755
892.49	0.29752991
892.663	0.29732766
892.836	0.29723636
893.009	0.29688456
893.182	0.29660605
893.355	0.29623151
893.527	0.29596625
893.7	0.29583912
893.873	0.29541901
894.046	0.29494183
894.219	0.29483018
894.391	0.29447154
894.564	0.29431374
894.737	0.29410652
894.91	0.29378559
895.082	0.29375979
895.255	0.29356769
895.428	0.29314281
895.6	0.2929009
895.773	0.29256926
895.945	0.29217258
896.118	0.29192869
896.291	0.29148069
896.463	0.29141138
896.636	0.2912274
896.808	0.29109226
896.981	0.29099206
897.153	0.29087375
897.326	0.29078331
897.498	0.29065405
897.67	0.29035263
897.843	0.29021542
898.015	0.29021576
898.187	0.29001736
898.36	0.28955142
898.532	0.28914362
898.704	0.28911375
898.877	0.28888749
899.049	0.28877551
899.221	0.28854287
899.393	0.28845722
899.566	0.2886239
899.738	0.28860795
899.91	0.28837363
900.082	0.28824641
900.254	0.28793602
900.426	0.2876232
900.598	0.28718772
900.77	0.28669518
900.942	0.28640484
901.114	0.28604034
901.286	0.28572269
901.458	0.2854613
901.63	0.28516741
901.802	0.28495834
901.974	0.2849084
902.146	0.28456942
902.318	0.28429334
902.49	0.28420988
902.662	0.28389123
902.834	0.28363039
903.005	0.28357255
903.177	0.2833756
903.349	0.28335489
903.521	0.28316646
903.693	0.28285515
903.864	0.28267017
904.036	0.28254856
904.208	0.28205581
904.379	0.28182072
904.551	0.28163429
904.723	0.28146325
904.894	0.28118136
905.066	0.28112998
905.237	0.28104733
905.409	0.28095883
905.58	0.28088218
905.752	0.28061116
905.923	0.28044214
906.095	0.28023843
906.266	0.27990394
906.438	0.2796229
906.609	0.27930411
906.78	0.27881651
906.952	0.27851177
907.123	0.27813157
907.295	0.2779786
907.466	0.2777196
907.637	0.27759521
907.808	0.27746938
907.98	0.27724824
908.151	0.27711511
908.322	0.27711947
908.493	0.2769919
908.665	0.27688921
908.836	0.27650406
909.007	0.2763141
909.178	0.27600304
909.349	0.27578038
909.52	0.27554582
909.691	0.27507552
909.862	0.27501965
910.033	0.27479901
910.204	0.27456055
910.375	0.27474327
910.546	0.27457479
910.717	0.27425083
910.888	0.27420712
911.059	0.27398479
911.23	0.27385231
911.401	0.27368683
911.572	0.27335787
911.742	0.2729739
911.913	0.27290052
912.084	0.2726927
912.255	0.27238265
912.426	0.2721069
912.596	0.27188524
912.767	0.27169272
912.938	0.2716796
913.108	0.27138718
913.279	0.27111022
913.45	0.27091141
913.62	0.27077077
913.791	0.2707114
913.962	0.27055152
914.132	0.27012897
914.303	0.26999814
914.473	0.27004754
914.644	0.2700293
914.814	0.26977385
914.985	0.26955976
915.155	0.26935743
915.326	0.26933644
915.496	0.26905381
915.666	0.26865766
915.837	0.26848153
916.007	0.2681291
916.177	0.26774224
916.348	0.26750218
916.518	0.26729453
916.688	0.26712992
916.858	0.26698241
917.029	0.2664437
917.199	0.26636544
917.369	0.26639061
917.539	0.26648711
917.709	0.26628503
917.88	0.2660323
918.05	0.26574288
918.22	0.26561536
918.39	0.26538299
918.56	0.26510186
918.73	0.2648229
918.9	0.26455196
919.07	0.26417284
919.24	0.26399171
919.41	0.26395946
919.58	0.26364542
919.75	0.26335044
919.92	0.26258262
920.09	0.26251023
920.26	0.26240969
920.429	0.26228396
920.599	0.26217122
920.769	0.26222506
920.939	0.26190205
921.109	0.26204889
921.278	0.26171381
921.448	0.26161569
921.618	0.26163018
921.787	0.26123529
921.957	0.2611444
922.127	0.26111363
922.296	0.26103072
922.466	0.2608335
922.636	0.26093098
922.805	0.26077986
922.975	0.2607255
923.144	0.26053554
923.314	0.26042117
923.483	0.26022994
923.653	0.26014079
923.822	0.25974247
923.992	0.25929715
924.161	0.25911712
924.331	0.2588593
924.5	0.25860509
924.669	0.25831533
924.839	0.25830324
925.008	0.25830048
925.177	0.25813435
925.347	0.25803204
925.516	0.25806944
925.685	0.25820305
925.854	0.25813921
926.023	0.25782031
926.193	0.25760145
926.362	0.25745231
926.531	0.25730442
926.7	0.25686026
926.869	0.25674774
927.038	0.25640246
927.207	0.25625751
927.376	0.25589866
927.545	0.25582007
927.715	0.25555174
927.884	0.25539063
928.052	0.25509006
928.221	0.25465483
928.39	0.25438532
928.559	0.25431812
928.728	0.25427523
928.897	0.25445339
929.066	0.25448122
929.235	0.2540064
929.404	0.25413905
929.572	0.25417162
929.741	0.25418065
929.91	0.25391337
930.079	0.25338048
930.247	0.2530372
930.416	0.25295099
930.585	0.25282258
930.753	0.25247645
930.922	0.25208985
931.091	0.25196523
931.259	0.25180169
931.428	0.25181542
931.596	0.25169931
931.765	0.25187934
931.934	0.25207914
932.102	0.25160163
932.27	0.25138008
932.439	0.25109699
932.607	0.25092581
932.776	0.25110784
932.944	0.25068616
933.113	0.25038568
933.281	0.2505807
933.449	0.25011921
933.618	0.24975984
933.786	0.24969743
933.954	0.24920563
934.123	0.24902326
934.291	0.24857287
934.459	0.24837253
934.627	0.24847128
934.795	0.24868953
934.964	0.24803273
935.132	0.24754878
935.3	0.24720553
935.468	0.24723421
935.636	0.24722138
935.804	0.24692163
935.972	0.24661945
936.14	0.24652524
936.308	0.24675044
936.476	0.24712157
936.644	0.24672782
936.812	0.24660438
936.98	0.24659473
937.148	0.24633061
937.316	0.24601942
937.484	0.24629254
937.652	0.24524452
937.82	0.24586509
937.987	0.24556724
938.155	0.24522935
938.323	0.24559354
938.491	0.24529366
938.658	0.24558077
938.826	0.2458527
938.994	0.24542474
939.162	0.24557058
939.329	0.24612098
939.497	0.24675738
939.665	0.24790269
939.832	0.24796363
940	0.24792513
940.167	0.24809606
940.335	0.24698193
940.502	0.2465599
940.67	0.24587274
940.837	0.24619689
941.005	0.24433553
941.172	0.24461458
941.34	0.24469777
941.507	0.24770018
941.674	0.24890058
941.842	0.24846771
942.009	0.24940405
942.177	0.24904398
942.344	0.25026189
942.511	0.24970053
942.678	0.24828764
942.846	0.24697802
943.013	0.24671394
943.18	0.24449847
943.347	0.24639231
943.514	0.24491242
943.682	0.24659018
943.849	0.24584545
944.016	0.24544776
944.183	0.24609835
944.35	0.24731381
944.517	0.24753723
944.684	0.24984559
944.851	0.24450279
945.018	0.24340104
945.185	0.24338615
945.352	0.24254872
945.519	0.24038835
945.686	0.23867092
945.853	0.2403391
946.02	0.24150341
946.187	0.24183863
946.353	0.24324018
946.52	0.24245469
946.687	0.2428821
946.854	0.24323038
947.021	0.23912237
947.187	0.24083301
947.354	0.2397445
947.521	0.23916669
947.687	0.23945951
947.854	0.23963368
948.021	0.23913901
948.187	0.23928246
948.354	0.23782666
948.52	0.23775509
948.687	0.23804905
948.854	0.23830035
949.02	0.23710223
949.187	0.2371383
949.353	0.23615018
949.52	0.23601469
949.686	0.23687871
949.852	0.23634789
950.019	0.23722616
950.185	0.23763497
950.352	0.23737193
950.518	0.23776137
950.684	0.23867357
950.851	0.23873585
951.017	0.23727473
951.183	0.23609505
951.349	0.2361748
951.516	0.23469726
951.682	0.23481074
951.848	0.23369825
952.014	0.23286175
952.18	0.23343401
952.346	0.23277495
952.512	0.23245865
952.679	0.23377729
952.845	0.23358572
953.011	0.23336189
953.177	0.23308511
953.343	0.23191898
953.509	0.23231375
953.675	0.23250508
953.841	0.23221616
954.007	0.23249815
954.172	0.23340314
954.338	0.2327673
954.504	0.23200932
954.67	0.23036077
954.836	0.23055986
955.002	0.23011988
955.167	0.22981854
955.333	0.22814067
955.499	0.22850193
955.665	0.22883975
955.83	0.22979818
955.996	0.22849937
956.162	0.22817097
956.327	0.22728657
956.493	0.2272841
956.659	0.22776465
956.824	0.22780189
956.99	0.22750441
957.155	0.2274662
957.321	0.22717925
957.486	0.22689869
957.652	0.22683012
957.817	0.22663741
957.983	0.22631183
958.148	0.22579516
958.314	0.22575636
958.479	0.22515914
958.644	0.22530403
958.81	0.22541908
958.975	0.22480963
959.14	0.22525169
959.306	0.22490023
959.471	0.22423026
959.636	0.22380759
959.801	0.22489009
959.967	0.22435093
960.132	0.22434108
960.297	0.22370445
960.462	0.22434565
960.627	0.22435661
960.792	0.22406532
960.957	0.22340394
961.123	0.224076
961.288	0.223906
961.453	0.22406537
961.618	0.22357945
961.783	0.2238214
961.948	0.22375326
962.113	0.22263296
962.277	0.22084835
962.442	0.22054877
962.607	0.22028403
962.772	0.2197835
962.937	0.21916424
963.102	0.21942701
963.267	0.21955134
963.431	0.22082986
963.596	0.22054183
963.761	0.22014684
963.926	0.22017173
964.09	0.22040602
964.255	0.22076135
964.42	0.22083632
964.584	0.22081777
964.749	0.22039451
964.914	0.21970843
965.078	0.21900037
965.243	0.21809922
965.407	0.21748409
965.572	0.2167701
965.736	0.21598733
965.901	0.21644256
966.065	0.2181977
966.23	0.21874336
966.394	0.21959415
966.559	0.21922558
966.723	0.21920644
966.887	0.21906305
967.052	0.21829872
967.216	0.21655188
967.38	0.2152753
967.545	0.21468152
967.709	0.21544678
967.873	0.21622134
968.037	0.21620871
968.202	0.21645472
968.366	0.2170003
968.53	0.21824164
968.694	0.21806436
968.858	0.21687957
969.022	0.21578687
969.187	0.21522253
969.351	0.214589
969.515	0.21421265
969.679	0.21326501
969.843	0.21261701
970.007	0.2125398
970.171	0.2128142
970.335	0.21340426
970.499	0.21369104
970.662	0.2136934
970.826	0.21349821
970.99	0.21396887
971.154	0.2142506
971.318	0.21420239
971.482	0.21299263
971.645	0.21290538
971.809	0.21301752
971.973	0.21348101
972.137	0.21372338
972.3	0.21344919
972.464	0.21353774
972.628	0.21462494
972.791	0.2151213
972.955	0.21465523
973.119	0.21418351
973.282	0.21388204
973.446	0.21381529
973.609	0.21317602
973.773	0.21274654
973.936	0.21199572
974.1	0.21180717
974.263	0.21211998
974.427	0.21208867
974.59	0.21176927
974.754	0.21156144
974.917	0.21134066
975.08	0.21089603
975.244	0.21025377
975.407	0.20962658
975.57	0.2094689
975.734	0.20890572
975.897	0.20889685
976.06	0.2088005
976.223	0.20882233
976.387	0.20977468
976.55	0.2098978
976.713	0.20969586
976.876	0.21019264
977.039	0.20990872
977.202	0.21026875
977.365	0.20979942
977.528	0.20936704
977.692	0.20997399
977.855	0.20867987
978.018	0.20819283
978.181	0.20824573
978.344	0.20742366
978.506	0.20729678
978.669	0.20658477
978.832	0.20523018
978.995	0.2060017
979.158	0.20663976
979.321	0.20589456
979.484	0.20575249
979.646	0.20566316
979.809	0.20634069
979.972	0.20618932
980.135	0.20670502
980.297	0.20626971
980.46	0.20669303
980.623	0.20694377
980.786	0.20740286
980.948	0.20691909
981.111	0.20700251
981.273	0.2059842
981.436	0.20571393
981.599	0.20553989
981.761	0.20513955
981.924	0.20537676
982.086	0.20527674
982.249	0.205217
982.411	0.2052233
982.573	0.20464093
982.736	0.20580458
982.898	0.20585618
983.061	0.20527458
983.223	0.20457187
983.385	0.20443562
983.548	0.20523926
983.71	0.20520782
983.872	0.20366655
984.034	0.20308471
984.197	0.20224007
984.359	0.20158265
984.521	0.2021792
984.683	0.20093669
984.845	0.20170496
985.008	0.20116359
985.17	0.20217318
985.332	0.20227935
985.494	0.2027272
985.656	0.20247388
985.818	0.20276674
985.98	0.20244891
986.142	0.2022373
986.304	0.20097742
986.466	0.2007183
986.628	0.20043539
986.79	0.20002268
986.952	0.19926989
987.113	0.19876849
987.275	0.19893522
987.437	0.19881292
987.599	0.1991955
987.761	0.19998011
987.922	0.19962903
988.084	0.19994948
988.246	0.20008778
988.408	0.20072864
988.569	0.20105398
988.731	0.20137454
988.893	0.2012165
989.054	0.20190645
989.216	0.20155755
989.377	0.20059929
989.539	0.20016086
989.701	0.19938364
989.862	0.19901231
990.024	0.1979546
990.185	0.19661361
990.347	0.19741961
990.508	0.19653277
990.669	0.19712756
990.831	0.19713498
990.992	0.19807903
991.154	0.19775535
991.315	0.19981058
991.476	0.1994564
991.638	0.20051209
991.799	0.19987206
991.96	0.2003277
992.121	0.19970056
992.283	0.20051743
992.444	0.19902117
992.605	0.19925834
992.766	0.19989412
992.927	0.19910981
993.088	0.19891509
993.249	0.19797499
993.41	0.1970507
993.572	0.19609065
993.733	0.1951656
993.894	0.19472153
994.055	0.19292187
994.216	0.19337887
994.376	0.19201985
994.537	0.19232089
994.698	0.19318647
994.859	0.19373589
995.02	0.19349853
995.181	0.19361779
995.342	0.19335404
995.503	0.19402998
995.663	0.19471404
995.824	0.19423868
995.985	0.19404433
996.146	0.19407981
996.306	0.19610264
996.467	0.19593698
996.628	0.19671279
996.788	0.19628877
996.949	0.19774351
997.11	0.19691682
997.27	0.19586205
997.431	0.19439709
997.591	0.19162967
997.752	0.18992031
997.912	0.18922299
998.073	0.18749721
998.233	0.18820699
998.394	0.18878895
998.554	0.19023178
998.714	0.19293381
998.875	0.19364948
999.035	0.19329226
999.196	0.19353979
999.356	0.19365066
999.516	0.19481187
999.676	0.19434964
999.837	0.19489316
999.997	0.19425714
1000.157	0.1947144
1000.317	0.1926363
1000.477	0.19064028
1000.638	0.18860194
1000.798	0.19047731
1000.958	0.19002413
1001.118	0.19103246
1001.278	0.19029287
1001.438	0.1914636
1001.598	0.19269243
1001.758	0.19373841
1001.918	0.19185468
1002.078	0.18917806
1002.238	0.18861197
1002.398	0.18851027
1002.558	0.18798856
1002.718	0.18742323
1002.878	0.18701457
1003.037	0.18330004
1003.197	0.18491552
1003.357	0.18374052
1003.517	0.18549554
1003.677	0.18515601
1003.836	0.18529174
1003.996	0.18566612
1004.156	0.18837863
1004.315	0.1892697
1004.475	0.19188274
1004.635	0.19216019
1004.794	0.19529713
1004.954	0.19511158
1005.114	0.19456072
1005.273	0.19660754
1005.433	0.19405899
1005.592	0.19304919
1005.752	0.19196589
1005.911	0.18971979
1006.071	0.19140578
1006.23	0.18918327
1006.389	0.18785462
1006.549	0.18875763
1006.708	0.18734828
1006.868	0.18459777
1007.027	0.18570114
1007.186	0.1855446
1007.345	0.18914014
1007.505	0.18890073
1007.664	0.19055571
1007.823	0.1928902
1007.982	0.1955613
1008.142	0.19587362
1008.301	0.19480355
1008.46	0.19215853
1008.619	0.19019391
1008.778	0.19015542
1008.937	0.18784642
1009.096	0.1866963
1009.255	0.18522483
1009.414	0.18179593
1009.573	0.18237463
1009.732	0.18598633
1009.891	0.1841441
1010.05	0.18622195
1010.209	0.1862396
1010.368	0.18597346
1010.527	0.18772315
1010.686	0.18874365
1010.845	0.18420009
1011.003	0.18543378
1011.162	0.18363719
1011.321	0.18078374
1011.48	0.18178865
1011.638	0.18252733
1011.797	0.18198736
1011.956	0.18380793
1012.115	0.18335015
1012.273	0.18396337
1012.432	0.18663388
1012.59	0.18345349
1012.749	0.18535071
1012.908	0.18469818
1013.066	0.18526332
1013.225	0.18435421
1013.383	0.18437191
1013.542	0.18356913
1013.7	0.18633238
1013.859	0.18620711
1014.017	0.18740792
1014.175	0.18787431
1014.334	0.18860151
1014.492	0.18944101
1014.65	0.19142331
1014.809	0.19347412
1014.967	0.19013554
1015.125	0.18986648
1015.284	0.19223423
1015.442	0.19039272
1015.6	0.18981881
1015.758	0.18901186
1015.916	0.18560641
1016.075	0.18538289
1016.233	0.1844808
1016.391	0.18338781
1016.549	0.18679403
1016.707	0.18794101
1016.865	0.18850745
1017.023	0.1857255
1017.181	0.18774905
1017.339	0.18854926
1017.497	0.18607557
1017.655	0.18393563
1017.813	0.18115379
1017.971	0.1817527
1018.129	0.18494084
1018.286	0.18574115
1018.444	0.18035578
1018.602	0.18238063
1018.76	0.18106619
1018.918	0.18260379
1019.075	0.1821421
1019.233	0.17917217
1019.391	0.17550555
1019.549	0.18007685
1019.706	0.17981235
1019.864	0.17942132
1020.022	0.18009049
1020.179	0.17835753
1020.337	0.1800843
1020.494	0.1805506
1020.652	0.18003778
1020.809	0.17798962
1020.967	0.17815896
1021.124	0.17629839
1021.282	0.18194984
1021.439	0.1817952
1021.597	0.18582016
1021.754	0.18297579
1021.911	0.18619891
1022.069	0.18412602
1022.226	0.18303993
1022.384	0.17797394
1022.541	0.17723288
1022.698	0.1726814
1022.855	0.17490181
1023.013	0.17129089
1023.17	0.17082546
1023.327	0.17430955
1023.484	0.17586809
1023.641	0.1783714
1023.798	0.18572871
1023.956	0.19023318
1024.113	0.18804623
1024.27	0.1860746
1024.427	0.18624951
1024.584	0.18269509
1024.741	0.17911863
1024.898	0.17533031
1025.055	0.16832325
1025.212	0.16813886
1025.369	0.16622962
1025.525	0.16204979
1025.682	0.16517577
1025.839	0.16783005
1025.996	0.16747396
1026.153	0.17181111
1026.31	0.17719675
1026.466	0.19025991
1026.623	0.19317552
1026.78	0.19315865
1026.937	0.19446047
1027.093	0.19634869
1027.25	0.20354565
1027.407	0.19757669
1027.563	0.1932103
1027.72	0.19674921
1027.876	0.19160553
1028.033	0.19485518
1028.19	0.19167887
1028.346	0.17801964
1028.503	0.17793279
1028.659	0.18147819
1028.816	0.17795838
1028.972	0.18293855
1029.128	0.18104474
1029.285	0.18137121
1029.441	0.18620202
1029.598	0.18560468
1029.754	0.17928792
1029.91	0.18198498
1030.067	0.17498272
1030.223	0.1734386
1030.379	0.16641277
1030.535	0.17260734
1030.691	0.17355236
1030.848	0.18679595
1031.004	0.18812777
1031.16	0.19735984
1031.316	0.21122344
1031.472	0.23506481
1031.628	0.22787719
1031.784	0.23056425
1031.94	0.22093704
1032.096	0.21216714
1032.252	0.21019358
1032.408	0.20190444
1032.564	0.19085256
1032.72	0.19375427
1032.876	0.18430897
1033.032	0.18341419
1033.188	0.18664727
1033.344	0.18883946
1033.5	0.18803504
1033.655	0.18607082
1033.811	0.18418776
1033.967	0.20349466
