Data from 0_1_mm_pl_50pc_Absorbance__0__16-11-24-384.txt Node

Date: Fri Feb 24 16:11:24 CET 2023
User: Ange
Spectrometer: FLMT08341
Trigger mode: 0
Integration Time (sec): 1.000000E-2
Scans to average: 400
Electric dark correction enabled: true
Nonlinearity correction enabled: false
Boxcar width: 3
XAxis mode: Wavelengths
Number of Pixels in Spectrum: 3648
>>>>>Begin Spectral Data<<<<<
345.271	0.06365082
345.487	0.05431285
345.704	0.04960912
345.921	0.04857592
346.137	0.05108271
346.354	0.02748936
346.571	0.03951356
346.787	0.03704087
347.004	0.04913125
347.22	-0.02595996
347.437	-0.01700396
347.653	0.26033858
347.87	-0.05587413
348.086	-0.57971941
348.303	0.01863366
348.519	0.52369926
348.736	0.4869107
348.952	0.48663365
349.169	0.50681925
349.385	0.53012344
349.601	0.52688142
349.818	0.52353372
350.034	0.51584773
350.251	0.51321329
350.467	0.52300096
350.683	0.50278352
350.9	0.5012361
351.116	0.49438739
351.332	0.48313907
351.549	0.49802063
351.765	0.51257308
351.981	0.51537376
352.197	0.54186189
352.414	0.55865883
352.63	0.57723482
352.846	0.59832883
353.062	0.58483048
353.278	0.57126317
353.495	0.5885853
353.711	0.58718384
353.927	0.59018056
354.143	0.58545929
354.359	0.57935653
354.575	0.57999862
354.792	0.59812711
355.008	0.58378271
355.224	0.57831288
355.44	0.57472237
355.656	0.56999865
355.872	0.57747961
356.088	0.60821769
356.304	0.60780109
356.52	0.61259374
356.736	0.61694043
356.952	0.61850478
357.168	0.62477736
357.384	0.63040588
357.6	0.60818287
357.816	0.61842565
358.032	0.62644129
358.248	0.64396968
358.464	0.6415191
358.679	0.64580752
358.895	0.64289862
359.111	0.65710885
359.327	0.63847515
359.543	0.63737381
359.759	0.64183105
359.974	0.64741473
360.19	0.64758766
360.406	0.65310924
360.622	0.64655199
360.838	0.64501107
361.053	0.65337991
361.269	0.6515886
361.485	0.65286139
361.701	0.65460401
361.916	0.64205271
362.132	0.63919566
362.348	0.64625889
362.563	0.64826979
362.779	0.63900489
362.995	0.63903804
363.21	0.6452383
363.426	0.64993854
363.641	0.6519595
363.857	0.65537489
364.073	0.64596484
364.288	0.64036826
364.504	0.65051493
364.719	0.64759746
364.935	0.6465332
365.15	0.64789037
365.366	0.64938864
365.581	0.65676654
365.797	0.65867769
366.012	0.64503996
366.228	0.63752817
366.443	0.64580027
366.658	0.64371395
366.874	0.63380894
367.089	0.63641949
367.305	0.63981584
367.52	0.6425322
367.735	0.64139401
367.951	0.6315063
368.166	0.63356239
368.381	0.64398214
368.597	0.63959924
368.812	0.64182179
369.027	0.64336122
369.243	0.64911477
369.458	0.66160745
369.673	0.66037084
369.888	0.65690337
370.104	0.65021581
370.319	0.65067967
370.534	0.64805983
370.749	0.64276419
370.964	0.64243701
371.179	0.63919594
371.395	0.63351908
371.61	0.63625825
371.825	0.62650911
372.04	0.62412988
372.255	0.62012776
372.47	0.61159343
372.685	0.60504944
372.9	0.60255449
373.115	0.59535281
373.33	0.59662501
373.545	0.59325536
373.76	0.59303757
373.975	0.58826316
374.19	0.58524267
374.405	0.58468724
374.62	0.58849155
374.835	0.59220542
375.05	0.59360615
375.265	0.59216888
375.48	0.59256038
375.695	0.6020091
375.91	0.59805665
376.125	0.58852736
376.339	0.57769922
376.554	0.5743964
376.769	0.57280447
376.984	0.57092901
377.199	0.5674462
377.414	0.56261184
377.628	0.5678594
377.843	0.57055271
378.058	0.56923433
378.273	0.57093996
378.487	0.56906824
378.702	0.56701148
378.917	0.56718306
379.131	0.55950706
379.346	0.55355165
379.561	0.54888374
379.775	0.54143691
379.99	0.53555611
380.205	0.52784854
380.419	0.52347001
380.634	0.51813847
380.848	0.51813545
381.063	0.51540637
381.278	0.51717445
381.492	0.51277173
381.707	0.51413422
381.921	0.51100821
382.136	0.51406252
382.35	0.51014545
382.565	0.50694827
382.779	0.50347934
382.994	0.50276397
383.208	0.49792054
383.422	0.49948568
383.637	0.49527799
383.851	0.49615778
384.066	0.49652727
384.28	0.49430941
384.494	0.49316694
384.709	0.49194018
384.923	0.4887889
385.137	0.48521266
385.352	0.48121348
385.566	0.4785282
385.78	0.4760122
385.995	0.47184579
386.209	0.46844576
386.423	0.46674266
386.637	0.4654047
386.852	0.46120103
387.066	0.45781897
387.28	0.45404132
387.494	0.45489697
387.708	0.45293954
387.923	0.45000446
388.137	0.4492562
388.351	0.44848027
388.565	0.44809258
388.779	0.4473323
388.993	0.44729445
389.207	0.44531599
389.421	0.4441982
389.635	0.44031482
389.85	0.43714513
390.064	0.43427014
390.278	0.43211581
390.492	0.42942352
390.706	0.42782933
390.92	0.42515174
391.134	0.42486809
391.348	0.42693322
391.561	0.42479917
391.775	0.42212464
391.989	0.41759411
392.203	0.41662752
392.417	0.41546719
392.631	0.41440518
392.845	0.40948886
393.059	0.40924716
393.273	0.40669375
393.486	0.40405948
393.7	0.39964817
393.914	0.3985266
394.128	0.39585715
394.342	0.39380593
394.555	0.38888631
394.769	0.38735538
394.983	0.38697633
395.197	0.38730298
395.41	0.38446233
395.624	0.38311831
395.838	0.3812614
396.051	0.38271202
396.265	0.38043205
396.479	0.37888725
396.692	0.37698381
396.906	0.37485157
397.12	0.37267341
397.333	0.37147142
397.547	0.36821435
397.76	0.36697548
397.974	0.36551469
398.187	0.36405039
398.401	0.36306985
398.614	0.36142813
398.828	0.3597004
399.041	0.35849366
399.255	0.3570136
399.468	0.35515305
399.682	0.35350351
399.895	0.35262449
400.109	0.35076747
400.322	0.34944646
400.536	0.34665088
400.749	0.34649701
400.962	0.34495637
401.176	0.34299815
401.389	0.34058396
401.602	0.33804955
401.816	0.33650724
402.029	0.33656123
402.242	0.333985
402.456	0.33261428
402.669	0.33070669
402.882	0.32846403
403.095	0.32874325
403.309	0.32779331
403.522	0.3261516
403.735	0.32467264
403.948	0.3234166
404.161	0.32423074
404.375	0.32360584
404.588	0.32186581
404.801	0.32014957
405.014	0.31842983
405.227	0.31821386
405.44	0.31729048
405.653	0.31552019
405.866	0.31377089
406.079	0.31263383
406.293	0.31145311
406.506	0.31033422
406.719	0.30854035
406.932	0.30689394
407.145	0.30486524
407.358	0.3047348
407.571	0.30292824
407.784	0.30226017
407.996	0.30157634
408.209	0.30043448
408.422	0.29923385
408.635	0.29878861
408.848	0.29766095
409.061	0.29600934
409.274	0.29413774
409.487	0.29245281
409.7	0.29135647
409.912	0.29043849
410.125	0.28906359
410.338	0.28785266
410.551	0.28690044
410.764	0.28620209
410.976	0.28535848
411.189	0.2843225
411.402	0.28282328
411.615	0.28224856
411.827	0.28127878
412.04	0.28118504
412.253	0.28009257
412.465	0.27916649
412.678	0.27800155
412.891	0.27784601
413.103	0.27591099
413.316	0.27458634
413.529	0.27360282
413.741	0.27306706
413.954	0.27233836
414.166	0.27156392
414.379	0.27051025
414.591	0.27030576
414.804	0.26956601
415.016	0.26893547
415.229	0.26807263
415.441	0.26672241
415.654	0.26635527
415.866	0.2655491
416.079	0.26504228
416.291	0.26435262
416.504	0.2635627
416.716	0.26283627
416.928	0.26259715
417.141	0.26157948
417.353	0.26095841
417.566	0.25954496
417.778	0.25880525
417.99	0.25713761
418.203	0.25592833
418.415	0.25494799
418.627	0.25451271
418.839	0.2536845
419.052	0.25372601
419.264	0.25283873
419.476	0.25282489
419.688	0.25244638
419.901	0.25201856
420.113	0.25116094
420.325	0.25037548
420.537	0.24900692
420.749	0.24876496
420.961	0.24824303
421.174	0.24747366
421.386	0.24641623
421.598	0.24543983
421.81	0.24464564
422.022	0.24436834
422.234	0.24359439
422.446	0.24284734
422.658	0.24239612
422.87	0.24223107
423.082	0.24197092
423.294	0.24154452
423.506	0.24111218
423.718	0.24056449
423.93	0.239711
424.142	0.23906294
424.354	0.23823185
424.566	0.23747113
424.778	0.237053
424.99	0.23632226
425.202	0.23553597
425.414	0.23519397
425.625	0.23472614
425.837	0.23401441
426.049	0.23373681
426.261	0.23305584
426.473	0.23236726
426.684	0.23185593
426.896	0.23137274
427.108	0.23063865
427.32	0.2303943
427.531	0.22960164
427.743	0.22907006
427.955	0.22898183
428.167	0.22839405
428.378	0.22801309
428.59	0.22756777
428.802	0.22699717
429.013	0.2264748
429.225	0.22620167
429.436	0.2253697
429.648	0.2255197
429.86	0.22528008
430.071	0.22499592
430.283	0.22472701
430.494	0.22444582
430.706	0.22401733
430.917	0.22370703
431.129	0.22303573
431.34	0.22241449
431.552	0.22196211
431.763	0.22138037
431.975	0.22115901
432.186	0.22051981
432.398	0.22016647
432.609	0.21935459
432.821	0.2190179
433.032	0.21874819
433.243	0.2184576
433.455	0.2179548
433.666	0.21782073
433.877	0.21755494
434.089	0.21731425
434.3	0.2167072
434.511	0.21607746
434.723	0.21561971
434.934	0.21508329
435.145	0.21440254
435.356	0.21390546
435.568	0.21374012
435.779	0.21352237
435.99	0.2131938
436.201	0.21302447
436.412	0.21284376
436.624	0.21268158
436.835	0.21262041
437.046	0.21245402
437.257	0.21220183
437.468	0.21228195
437.679	0.21179546
437.89	0.2114904
438.101	0.211207
438.312	0.21053867
438.523	0.20987419
438.734	0.20960384
438.945	0.2092598
439.156	0.20886777
439.367	0.20859826
439.578	0.20841671
439.789	0.20828614
440	0.20830306
440.211	0.20784359
440.422	0.20750272
440.633	0.20738382
440.844	0.20681445
441.055	0.20635957
441.266	0.206082
441.477	0.20568818
441.687	0.20552283
441.898	0.20509489
442.109	0.20474165
442.32	0.20486604
442.531	0.20460907
442.741	0.20408114
442.952	0.20370478
443.163	0.20344911
443.374	0.20311954
443.584	0.20294512
443.795	0.20245631
444.006	0.20222297
444.216	0.20210157
444.427	0.20191081
444.638	0.20175416
444.848	0.20155929
445.059	0.20134207
445.27	0.20115778
445.48	0.20090476
445.691	0.20072109
445.901	0.20051173
446.112	0.20022215
446.323	0.19985703
446.533	0.19934436
446.744	0.19903711
446.954	0.19877592
447.165	0.19859266
447.375	0.19857966
447.586	0.19847841
447.796	0.1984595
448.006	0.19841597
448.217	0.19831014
448.427	0.19802315
448.638	0.19750724
448.848	0.19679245
449.058	0.19626492
449.269	0.19606654
449.479	0.19570381
449.689	0.19541418
449.9	0.19532847
450.11	0.1952802
450.32	0.19534067
450.531	0.19520612
450.741	0.19489353
450.951	0.19482693
451.161	0.19459769
451.372	0.19432104
451.582	0.1944448
451.792	0.19423176
452.002	0.19410519
452.212	0.19392638
452.422	0.19382288
452.633	0.19351848
452.843	0.19351449
453.053	0.19304928
453.263	0.19292784
453.473	0.19263002
453.683	0.19255857
453.893	0.19237398
454.103	0.19244601
454.313	0.19217297
454.523	0.19200927
454.733	0.1917728
454.943	0.19183147
455.153	0.1917391
455.363	0.19149148
455.573	0.19122521
455.783	0.19106328
455.993	0.19069345
456.203	0.19063561
456.413	0.19051173
456.623	0.19018761
456.833	0.19020267
457.042	0.19012786
457.252	0.19002682
457.462	0.19020408
457.672	0.19002598
457.882	0.18985074
458.091	0.18974295
458.301	0.18946896
458.511	0.18929614
458.721	0.18916699
458.931	0.18910936
459.14	0.18905659
459.35	0.18898059
459.56	0.18900059
459.769	0.18902212
459.979	0.18897052
460.189	0.18884865
460.398	0.18869422
460.608	0.1887957
460.817	0.18870219
461.027	0.18852934
461.237	0.18850957
461.446	0.18855906
461.656	0.18872005
461.865	0.18856718
462.075	0.18835189
462.284	0.18835143
462.494	0.18846373
462.703	0.18821244
462.913	0.18816166
463.122	0.18795214
463.332	0.18791521
463.541	0.18802023
463.751	0.18792626
463.96	0.18777896
464.169	0.18788882
464.379	0.18798454
464.588	0.18802735
464.797	0.18801433
465.007	0.18794114
465.216	0.18789964
465.425	0.18798434
465.635	0.18802679
465.844	0.1878928
466.053	0.18789956
466.263	0.18792151
466.472	0.1879911
466.681	0.18802869
466.89	0.18784263
467.099	0.18780987
467.309	0.18786137
467.518	0.18781192
467.727	0.18788631
467.936	0.18771369
468.145	0.18773839
468.354	0.18789756
468.563	0.18779785
468.772	0.18772544
468.982	0.18775339
469.191	0.18785897
469.4	0.18787246
469.609	0.18788675
469.818	0.18786842
470.027	0.18797942
470.236	0.18797466
470.445	0.18811384
470.654	0.18786221
470.863	0.18783967
471.072	0.18783909
471.28	0.18779404
471.489	0.18786209
471.698	0.18782768
471.907	0.18775596
472.116	0.18793234
472.325	0.18803744
472.534	0.18818305
472.743	0.18818466
472.951	0.18828837
473.16	0.18843165
473.369	0.18844814
473.578	0.1885126
473.786	0.18858464
473.995	0.18855365
474.204	0.18874666
474.413	0.18876453
474.621	0.18888278
474.83	0.18900261
475.039	0.18903634
475.247	0.18908046
475.456	0.18916968
475.665	0.18933188
475.873	0.18938805
476.082	0.18940814
476.291	0.18950062
476.499	0.18967161
476.708	0.18973276
476.916	0.18980778
477.125	0.18982463
477.333	0.1898958
477.542	0.18998331
477.75	0.19004296
477.959	0.19020249
478.167	0.19043797
478.376	0.19052305
478.584	0.1905776
478.793	0.19072733
479.001	0.19084477
479.209	0.19088355
479.418	0.19091782
479.626	0.19097607
479.834	0.19114934
480.043	0.19138795
480.251	0.19146972
480.459	0.1916208
480.668	0.19184497
480.876	0.19190712
481.084	0.19202408
481.293	0.19210821
481.501	0.19217094
481.709	0.19243206
481.917	0.19258044
482.125	0.19277353
482.334	0.19299999
482.542	0.19320445
482.75	0.19342576
482.958	0.19369586
483.166	0.1938104
483.374	0.19400996
483.583	0.19417807
483.791	0.19438651
483.999	0.19444171
484.207	0.19467908
484.415	0.19473917
484.623	0.19490098
484.831	0.19504374
485.039	0.19524048
485.247	0.19532899
485.455	0.19556958
485.663	0.19569238
485.871	0.19588755
486.079	0.1960106
486.287	0.19624646
486.495	0.19638994
486.702	0.19654584
486.91	0.19670038
487.118	0.19689536
487.326	0.19704168
487.534	0.19726445
487.742	0.19745712
487.95	0.19764841
488.157	0.19789386
488.365	0.19810154
488.573	0.19830258
488.781	0.19859468
488.988	0.19889095
489.196	0.19909852
489.404	0.1993495
489.612	0.19966096
489.819	0.19998001
490.027	0.20020005
490.235	0.20045901
490.442	0.20065999
490.65	0.20088872
490.857	0.20111684
491.065	0.20136938
491.273	0.20159124
491.48	0.20184338
491.688	0.20204511
491.895	0.20225867
492.103	0.20248121
492.31	0.2027726
492.518	0.20300524
492.725	0.20328351
492.933	0.20353374
493.14	0.2038038
493.348	0.20414957
493.555	0.20446016
493.763	0.20467797
493.97	0.20495227
494.177	0.20523103
494.385	0.2055751
494.592	0.20584655
494.8	0.20611318
495.007	0.20641296
495.214	0.20670757
495.422	0.20695974
495.629	0.20722232
495.836	0.20751065
496.043	0.20783978
496.251	0.20815417
496.458	0.2084935
496.665	0.20880476
496.872	0.20914957
497.08	0.20951923
497.287	0.20983477
497.494	0.21008822
497.701	0.21036662
497.908	0.21064468
498.115	0.21092395
498.322	0.21112595
498.53	0.21133832
498.737	0.21158264
498.944	0.21189534
499.151	0.212224
499.358	0.21255752
499.565	0.21289012
499.772	0.21329678
499.979	0.21359866
500.186	0.21391285
500.393	0.21422647
500.6	0.21448529
500.807	0.21479853
501.014	0.21510493
501.221	0.21540817
501.427	0.21571414
501.634	0.21605967
501.841	0.21641893
502.048	0.21674978
502.255	0.21699939
502.462	0.21731841
502.669	0.21775141
502.875	0.21815571
503.082	0.21848818
503.289	0.21876797
503.496	0.21909429
503.702	0.21945493
503.909	0.21986774
504.116	0.22009778
504.323	0.22044549
504.529	0.22079733
504.736	0.22118816
504.943	0.22161064
505.149	0.22202687
505.356	0.22245948
505.563	0.22294715
505.769	0.2233333
505.976	0.22364708
506.182	0.22404306
506.389	0.22441365
506.595	0.22479957
506.802	0.22509641
507.008	0.22541666
507.215	0.22586083
507.421	0.22632877
507.628	0.2267114
507.834	0.22713212
508.041	0.22751684
508.247	0.22789148
508.454	0.22831742
508.66	0.22859953
508.866	0.22899899
509.073	0.22945548
509.279	0.2298361
509.486	0.23016933
509.692	0.23052173
509.898	0.23085181
510.105	0.23132152
510.311	0.2316821
510.517	0.23201368
510.723	0.23237715
510.93	0.23277782
511.136	0.23327666
511.342	0.23370433
511.548	0.23410124
511.754	0.23457124
511.961	0.23504926
512.167	0.2354717
512.373	0.23588363
512.579	0.23627458
512.785	0.23675586
512.991	0.23713951
513.197	0.23754015
513.404	0.23797737
513.61	0.23843293
513.816	0.23893251
514.022	0.2394415
514.228	0.23983868
514.434	0.24032352
514.64	0.24072819
514.846	0.24109931
515.052	0.24148948
515.258	0.24192734
515.464	0.24223741
515.669	0.2426884
515.875	0.24308858
516.081	0.24358016
516.287	0.24401376
516.493	0.24450233
516.699	0.2448976
516.905	0.24535316
517.111	0.24573322
517.316	0.24621598
517.522	0.2466296
517.728	0.2471353
517.934	0.24758929
518.139	0.2480377
518.345	0.24845502
518.551	0.24896438
518.757	0.24938927
518.962	0.2498355
519.168	0.25025599
519.374	0.25061326
519.579	0.25105345
519.785	0.25162806
519.991	0.25206373
520.196	0.25249088
520.402	0.25295054
520.607	0.25348916
520.813	0.25407187
521.018	0.25457471
521.224	0.25496958
521.429	0.25548774
521.635	0.25602738
521.84	0.2564862
522.046	0.25691472
522.251	0.25735484
522.457	0.25778508
522.662	0.25826924
522.868	0.25872149
523.073	0.25912323
523.279	0.25964809
523.484	0.26007293
523.689	0.26053999
523.895	0.26106139
524.1	0.2615567
524.305	0.26202019
524.511	0.26255669
524.716	0.2630376
524.921	0.26358575
525.126	0.26407672
525.332	0.26459738
525.537	0.26510187
525.742	0.26563846
525.947	0.2661277
526.153	0.26652689
526.358	0.26698074
526.563	0.26741877
526.768	0.26790533
526.973	0.26827502
527.178	0.26869947
527.383	0.26912644
527.588	0.26959346
527.794	0.27002201
527.999	0.27047096
528.204	0.27089099
528.409	0.27139225
528.614	0.27188208
528.819	0.27233297
529.024	0.27283565
529.229	0.27331551
529.434	0.27388585
529.639	0.27440478
529.843	0.27486513
530.048	0.27529542
530.253	0.27583292
530.458	0.27634439
530.663	0.27684311
530.868	0.27731116
531.073	0.27773484
531.278	0.27820227
531.482	0.27872962
531.687	0.2792181
531.892	0.27971817
532.097	0.28015908
532.302	0.28063958
532.506	0.2811162
532.711	0.28168408
532.916	0.28218123
533.12	0.28258632
533.325	0.28301778
533.53	0.28353237
533.734	0.28396291
533.939	0.28447097
534.144	0.2849086
534.348	0.28539205
534.553	0.28594524
534.757	0.28641568
534.962	0.28694637
535.167	0.28744936
535.371	0.28788067
535.576	0.28842317
535.78	0.28892834
535.985	0.28944027
536.189	0.289924
536.394	0.29040121
536.598	0.29086571
536.803	0.29136919
537.007	0.29181374
537.211	0.29216802
537.416	0.29254076
537.62	0.29299826
537.825	0.29345152
538.029	0.29404185
538.233	0.29454607
538.438	0.29502488
538.642	0.29555006
538.846	0.29610147
539.05	0.29661543
539.255	0.29710806
539.459	0.29751363
539.663	0.29797108
539.867	0.2984438
540.072	0.29892668
540.276	0.29937763
540.48	0.29991486
540.684	0.30035225
540.888	0.30086748
541.092	0.30130545
541.297	0.30179188
541.501	0.30224177
541.705	0.30270818
541.909	0.30313559
542.113	0.30366781
542.317	0.30415555
542.521	0.30467296
542.725	0.30515878
542.929	0.30569587
543.133	0.30617678
543.337	0.30664347
543.541	0.30699969
543.745	0.30737961
543.949	0.30782273
544.153	0.30821709
544.357	0.30859023
544.56	0.30905542
544.764	0.30949325
544.968	0.30993193
545.172	0.3103156
545.376	0.31071505
545.58	0.31117749
545.783	0.31167626
545.987	0.31206825
546.191	0.3124382
546.395	0.31294109
546.598	0.31340883
546.802	0.31390221
547.006	0.31431954
547.21	0.3146647
547.413	0.3151464
547.617	0.31564042
547.821	0.31608693
548.024	0.31654848
548.228	0.31688748
548.431	0.3173015
548.635	0.3177296
548.839	0.31809559
549.042	0.31852872
549.246	0.31884384
549.449	0.31919617
549.653	0.3196263
549.856	0.32000969
550.06	0.32042416
550.263	0.3208532
550.467	0.32118737
550.67	0.32161772
550.874	0.32197267
551.077	0.32235331
551.28	0.32280161
551.484	0.32323745
551.687	0.32361661
551.891	0.32407195
552.094	0.32443514
552.297	0.32486
552.501	0.32529262
552.704	0.32560956
552.907	0.32594105
553.11	0.32632049
553.314	0.32665523
553.517	0.32701044
553.72	0.32742699
553.923	0.32786056
554.127	0.3282742
554.33	0.32858583
554.533	0.32890796
554.736	0.32919812
554.939	0.32957693
555.142	0.32989554
555.345	0.33016681
555.549	0.33052226
555.752	0.33090299
555.955	0.33125176
556.158	0.33173216
556.361	0.33209869
556.564	0.33246429
556.767	0.3328207
556.97	0.33318443
557.173	0.33353308
557.376	0.33394604
557.579	0.3342529
557.782	0.3345827
557.984	0.33490058
558.187	0.33523973
558.39	0.33547839
558.593	0.33580433
558.796	0.33600608
558.999	0.33619987
559.202	0.33651543
559.404	0.33676706
559.607	0.33704952
559.81	0.33732866
560.013	0.33761666
560.216	0.33795113
560.418	0.3383163
560.621	0.33861533
560.824	0.33893768
561.026	0.33926932
561.229	0.33954012
561.432	0.33979966
561.634	0.34005227
561.837	0.34029857
562.04	0.34053679
562.242	0.34078827
562.445	0.34097417
562.647	0.34121785
562.85	0.34141338
563.053	0.34169656
563.255	0.34196096
563.458	0.34224244
563.66	0.34251255
563.863	0.34286182
564.065	0.34311748
564.268	0.34342134
564.47	0.3436517
564.672	0.34384031
564.875	0.34398876
565.077	0.34418436
565.28	0.34434864
565.482	0.34461971
565.684	0.34481211
565.887	0.34494531
566.089	0.34515193
566.291	0.34540606
566.494	0.3456147
566.696	0.34578977
566.898	0.34595976
567.1	0.34611496
567.303	0.34633459
567.505	0.34653078
567.707	0.34664405
567.909	0.34681378
568.111	0.34694583
568.314	0.34707893
568.516	0.34729862
568.718	0.34747873
568.92	0.34766055
569.122	0.34778828
569.324	0.34797824
569.526	0.34815875
569.728	0.3483661
569.93	0.34846751
570.132	0.34859144
570.334	0.34875507
570.536	0.34894667
570.738	0.34902392
570.94	0.34907497
571.142	0.34920078
571.344	0.34929465
571.546	0.34938958
571.748	0.34944292
571.95	0.34948669
572.152	0.34958344
572.354	0.34976033
572.555	0.34989684
572.757	0.35008442
572.959	0.35019832
573.161	0.35032631
573.363	0.35041737
573.564	0.35061107
573.766	0.35071636
573.968	0.35085283
574.17	0.35088435
574.371	0.35088366
574.573	0.35091676
574.775	0.35100562
574.976	0.35094345
575.178	0.35096558
575.38	0.35087769
575.581	0.35090676
575.783	0.35106891
575.985	0.35124081
576.186	0.35129411
576.388	0.35140439
576.589	0.35138463
576.791	0.3515176
576.992	0.35163145
577.194	0.35167091
577.395	0.35164464
577.597	0.35178721
577.798	0.35184148
578	0.35195174
578.201	0.35195317
578.402	0.35186793
578.604	0.35180521
578.805	0.35182728
579.007	0.35178191
579.208	0.35184351
579.409	0.35175943
579.611	0.35179194
579.812	0.35190987
580.013	0.3520262
580.215	0.35191125
580.416	0.35193925
580.617	0.35182738
580.818	0.35192026
581.019	0.35186683
581.221	0.35178006
581.422	0.35168286
581.623	0.35173156
581.824	0.3516205
582.025	0.35169998
582.226	0.35165748
582.428	0.35170848
582.629	0.35167029
582.83	0.35169179
583.031	0.35163809
583.232	0.35170315
583.433	0.35166108
583.634	0.35164266
583.835	0.35154609
584.036	0.35151802
584.237	0.35142685
584.438	0.35142705
584.639	0.35126342
584.84	0.35115666
585.041	0.35106409
585.242	0.3510494
585.442	0.35097063
585.643	0.35097776
585.844	0.35095357
586.045	0.35097048
586.246	0.35084426
586.447	0.35077779
586.647	0.35069423
586.848	0.35072952
587.049	0.35069185
587.25	0.35044905
587.45	0.35030484
587.651	0.35028853
587.852	0.35015964
588.053	0.35014507
588.253	0.35001252
588.454	0.34991341
588.655	0.34992968
588.855	0.34988976
589.056	0.3498242
589.256	0.34981257
589.457	0.34965699
589.658	0.34958024
589.858	0.34944776
590.059	0.3494433
590.259	0.34943185
590.46	0.34940404
590.66	0.34934375
590.861	0.34933731
591.061	0.34922891
591.262	0.3491961
591.462	0.34911677
591.662	0.34900426
591.863	0.34884474
592.063	0.34879015
592.264	0.34875334
592.464	0.34872946
592.664	0.34863256
592.865	0.34857406
593.065	0.34836493
593.265	0.34840632
593.465	0.34825847
593.666	0.3481284
593.866	0.34800767
594.066	0.34799335
594.266	0.3477928
594.467	0.34769174
594.667	0.34746059
594.867	0.34746777
595.067	0.34730976
595.267	0.34726189
595.467	0.34708511
595.668	0.3470164
595.868	0.34701768
596.068	0.34692475
596.268	0.34671365
596.468	0.34669749
596.668	0.34656585
596.868	0.34648547
597.068	0.3463973
597.268	0.34633845
597.468	0.34624413
597.668	0.34615965
597.868	0.34596802
598.068	0.345852
598.268	0.34570522
598.467	0.34569704
598.667	0.34553952
598.867	0.34540614
599.067	0.34533417
599.267	0.34527353
599.467	0.34511315
599.667	0.34500329
599.866	0.34487807
600.066	0.34484706
600.266	0.34481428
600.466	0.3447166
600.665	0.34458153
600.865	0.34454888
601.065	0.34450651
601.264	0.34435946
601.464	0.34417512
601.664	0.3441178
601.863	0.34404456
602.063	0.34402349
602.263	0.34381892
602.462	0.34373016
602.662	0.34363682
602.861	0.34363714
603.061	0.34353416
603.26	0.34346091
603.46	0.34328397
603.659	0.34331429
603.859	0.34319586
604.058	0.34308496
604.258	0.34304276
604.457	0.34304226
604.657	0.3428256
604.856	0.34270971
605.056	0.34270751
605.255	0.34265717
605.454	0.34266767
605.654	0.34248514
605.853	0.34235339
606.052	0.34237452
606.252	0.34239609
606.451	0.34226584
606.65	0.34224154
606.849	0.34203209
607.049	0.34200164
607.248	0.34189531
607.447	0.34182249
607.646	0.34175452
607.845	0.34168679
608.045	0.34146283
608.244	0.34157723
608.443	0.34152777
608.642	0.34158867
608.841	0.34149213
609.04	0.34139615
609.239	0.34140053
609.438	0.34138927
609.637	0.34133688
609.836	0.34132112
610.035	0.34117745
610.234	0.34123852
610.433	0.34129457
610.632	0.34122143
610.831	0.34137926
611.03	0.34129036
611.229	0.34138768
611.428	0.34138092
611.627	0.34136983
611.826	0.34131902
612.025	0.34140237
612.224	0.34124784
612.422	0.34133132
612.621	0.34124175
612.82	0.34130715
613.019	0.34128887
613.218	0.34135576
613.416	0.34124267
613.615	0.3413651
613.814	0.34136037
614.012	0.34140972
614.211	0.34133127
614.41	0.34144456
614.608	0.34142031
614.807	0.34147777
615.006	0.34148897
615.204	0.34145568
615.403	0.34140273
615.602	0.34155106
615.8	0.34159338
615.999	0.34160037
616.197	0.34161597
616.396	0.34171264
616.594	0.34164645
616.793	0.34177013
616.991	0.34172184
617.19	0.34152078
617.388	0.34166807
617.586	0.34172274
617.785	0.34168092
617.983	0.34182961
618.182	0.34175186
618.38	0.34171847
618.578	0.34186811
618.777	0.34186629
618.975	0.34194265
619.173	0.34201814
619.372	0.34212077
619.57	0.3421981
619.768	0.34237376
619.966	0.34251437
620.165	0.34254552
620.363	0.34269747
620.561	0.34263161
620.759	0.34268612
620.957	0.342904
621.155	0.34306867
621.354	0.34309123
621.552	0.34333568
621.75	0.34330909
621.948	0.34358507
622.146	0.34370273
622.344	0.3437111
622.542	0.34374481
622.74	0.34387209
622.938	0.34377332
623.136	0.34398475
623.334	0.34410486
623.532	0.34403844
623.73	0.3441159
623.928	0.34428278
624.126	0.34440815
624.324	0.34466035
624.522	0.34461661
624.719	0.34465731
624.917	0.34492099
625.115	0.3449478
625.313	0.34505275
625.511	0.34520651
625.708	0.34511543
625.906	0.34524604
626.104	0.34533777
626.302	0.34556692
626.499	0.34582913
626.697	0.34592515
626.895	0.34594493
627.093	0.34622227
627.29	0.34650017
627.488	0.34669184
627.686	0.34675692
627.883	0.34678801
628.081	0.34681427
628.278	0.3471871
628.476	0.34729457
628.673	0.34739577
628.871	0.34753751
629.068	0.34772947
629.266	0.34795092
629.463	0.34805667
629.661	0.34803938
629.858	0.34810527
630.056	0.34822396
630.253	0.34832339
630.451	0.34845637
630.648	0.34864875
630.845	0.3488609
631.043	0.34906079
631.24	0.34942603
631.438	0.34962611
631.635	0.3498494
631.832	0.34990196
632.029	0.35004054
632.227	0.35026829
632.424	0.35045169
632.621	0.35050056
632.818	0.35066714
633.016	0.35082796
633.213	0.35101185
633.41	0.35127637
633.607	0.35141279
633.804	0.35155887
634.001	0.35165326
634.199	0.35188851
634.396	0.35212259
634.593	0.35228705
634.79	0.35248946
634.987	0.35277539
635.184	0.3530521
635.381	0.35334948
635.578	0.35353121
635.775	0.35365745
635.972	0.35385158
636.169	0.35398168
636.366	0.35403374
636.563	0.35409986
636.76	0.35420098
636.957	0.35433684
637.153	0.3543398
637.35	0.35458184
637.547	0.35471105
637.744	0.35493345
637.941	0.35515005
638.138	0.35545948
638.334	0.35563843
638.531	0.356058
638.728	0.35628748
638.925	0.35666837
639.121	0.35688139
639.318	0.35701102
639.515	0.35707028
639.711	0.35730978
639.908	0.35729306
640.105	0.35743811
640.301	0.35746204
640.498	0.35758069
640.695	0.35783094
640.891	0.35803432
641.088	0.35812751
641.284	0.35844575
641.481	0.35854427
641.677	0.35869961
641.874	0.35888158
642.07	0.35909859
642.267	0.35951745
642.463	0.35977575
642.66	0.36007211
642.856	0.36031232
643.053	0.36041217
643.249	0.36065927
643.445	0.36081246
643.642	0.36087615
643.838	0.36111744
644.034	0.36122619
644.231	0.36140306
644.427	0.36174022
644.623	0.36194098
644.82	0.36218877
645.016	0.36229202
645.212	0.36229747
645.408	0.36245572
645.604	0.36279869
645.801	0.36296454
645.997	0.3631703
646.193	0.36324778
646.389	0.36361348
646.585	0.3639135
646.781	0.36419468
646.977	0.36432512
647.173	0.3645012
647.37	0.36457324
647.566	0.36485426
647.762	0.36489652
647.958	0.36516274
648.154	0.36528429
648.35	0.36547732
648.546	0.36566434
648.742	0.36608994
648.937	0.36613881
649.133	0.36646789
649.329	0.36666172
649.525	0.36687521
649.721	0.36706927
649.917	0.36737316
650.113	0.36740559
650.309	0.36777499
650.504	0.3678206
650.7	0.36792622
650.896	0.36810084
651.092	0.36821244
651.287	0.3682242
651.483	0.36851464
651.679	0.36858592
651.875	0.36887102
652.07	0.36896553
652.266	0.36914475
652.462	0.3693581
652.657	0.36963371
652.853	0.36969374
653.048	0.36989834
653.244	0.36993634
653.44	0.37018387
653.635	0.37025803
653.831	0.37051608
654.026	0.37081295
654.222	0.3710539
654.417	0.3713608
654.613	0.37160195
654.808	0.37178824
655.004	0.37212238
655.199	0.37219072
655.394	0.37223611
655.59	0.372464
655.785	0.37245987
655.98	0.37268361
656.176	0.37283337
656.371	0.3730643
656.566	0.37330025
656.762	0.37341574
656.957	0.37357746
657.152	0.37381168
657.348	0.37395172
657.543	0.37415333
657.738	0.37428343
657.933	0.37443008
658.128	0.37464448
658.324	0.37471029
658.519	0.37492532
658.714	0.37508571
658.909	0.37518393
659.104	0.37528324
659.299	0.37540568
659.494	0.37553904
659.689	0.37575882
659.884	0.37583702
660.079	0.37589513
660.274	0.37612602
660.469	0.37636423
660.664	0.37658477
660.859	0.37672969
661.054	0.3768762
661.249	0.37702817
661.444	0.37721662
661.639	0.37724593
661.834	0.37719839
662.029	0.3772894
662.224	0.37744873
662.418	0.37763272
662.613	0.37779568
662.808	0.37792902
663.003	0.37813611
663.198	0.37835636
663.392	0.3784106
663.587	0.37864593
663.782	0.37858937
663.977	0.37868456
664.171	0.37886931
664.366	0.37908469
664.561	0.37928787
664.755	0.37958115
664.95	0.37956872
665.144	0.37984071
665.339	0.37997057
665.534	0.38005575
665.728	0.38009328
665.923	0.38016715
666.117	0.38020638
666.312	0.38036598
666.506	0.38057451
666.701	0.38069103
666.895	0.38087471
667.09	0.38095191
667.284	0.38108742
667.479	0.38112615
667.673	0.38116105
667.867	0.38121384
668.062	0.38126697
668.256	0.3813101
668.45	0.38158848
668.645	0.38169916
668.839	0.38193051
669.033	0.38210441
669.228	0.38214691
669.422	0.38229909
669.616	0.38238412
669.81	0.38239778
670.004	0.3823882
670.199	0.38245452
670.393	0.38252417
670.587	0.38258958
670.781	0.38276449
670.975	0.38298007
671.169	0.38308827
671.363	0.3832415
671.558	0.38328596
671.752	0.38342568
671.946	0.3836032
672.14	0.38363245
672.334	0.38354571
672.528	0.38365321
672.722	0.38359061
672.916	0.38367151
673.11	0.38365542
673.304	0.38377381
673.497	0.38373435
673.691	0.38384833
673.885	0.38377562
674.079	0.38394251
674.273	0.3839466
674.467	0.38411068
674.661	0.38410322
674.854	0.38424951
675.048	0.38439834
675.242	0.38460863
675.436	0.38475071
675.629	0.38487276
675.823	0.38489144
676.017	0.38499593
676.211	0.38497153
676.404	0.38495565
676.598	0.3849529
676.792	0.38493642
676.985	0.38510533
677.179	0.38519755
677.372	0.38523389
677.566	0.38553366
677.76	0.38569883
677.953	0.38572438
678.147	0.38586365
678.34	0.38590418
678.534	0.38584938
678.727	0.38591323
678.921	0.38591631
679.114	0.38582364
679.307	0.38595328
679.501	0.38605481
679.694	0.38610104
679.888	0.3862593
680.081	0.38637629
680.274	0.38633129
680.468	0.38652817
680.661	0.38657845
680.854	0.38665656
681.048	0.38674602
681.241	0.38673132
681.434	0.38668939
681.627	0.38681922
681.821	0.38684057
682.014	0.38698495
682.207	0.38695311
682.4	0.38694301
682.593	0.38706012
682.786	0.38708596
682.98	0.38701689
683.173	0.38703828
683.366	0.38695962
683.559	0.38703093
683.752	0.38709867
683.945	0.38719576
684.138	0.38734235
684.331	0.38746717
684.524	0.38764474
684.717	0.38768561
684.91	0.38774315
685.103	0.38777137
685.296	0.3877928
685.489	0.3878014
685.682	0.38784617
685.874	0.38786022
686.067	0.38790967
686.26	0.3879568
686.453	0.38792551
686.646	0.38784303
686.839	0.38784741
687.031	0.38776016
687.224	0.38752798
687.417	0.3876001
687.61	0.38753019
687.802	0.38756696
687.995	0.38770866
688.188	0.38774701
688.38	0.3878192
688.573	0.38797064
688.766	0.38791386
688.958	0.38785281
689.151	0.38776098
689.343	0.38768063
689.536	0.38756726
689.729	0.38753767
689.921	0.38753716
690.114	0.38748366
690.306	0.38756236
690.499	0.38767054
690.691	0.38772036
690.884	0.38788741
691.076	0.38804485
691.268	0.38808533
691.461	0.38798231
691.653	0.38802441
691.846	0.38805421
692.038	0.38802018
692.23	0.38786459
692.423	0.38776731
692.615	0.38772573
692.807	0.38787068
692.999	0.38786088
693.192	0.38774667
693.384	0.38776471
693.576	0.38770421
693.768	0.38770541
693.961	0.38766931
694.153	0.38766123
694.345	0.38755456
694.537	0.3876287
694.729	0.38761873
694.921	0.38767565
695.113	0.38778274
695.305	0.38785381
695.498	0.38781319
695.69	0.38795792
695.882	0.38789211
696.074	0.38792081
696.266	0.38790412
696.458	0.3877444
696.65	0.38765919
696.842	0.38761929
697.033	0.38758038
697.225	0.38754387
697.417	0.38758165
697.609	0.38763249
697.801	0.38769276
697.993	0.38778387
698.185	0.3878024
698.376	0.38775239
698.568	0.38775584
698.76	0.38766617
698.952	0.3876194
699.144	0.38752996
699.335	0.38747024
699.527	0.38746498
699.719	0.38747181
699.91	0.38761782
700.102	0.3875932
700.294	0.38768747
700.485	0.38778003
700.677	0.38772738
700.869	0.38773126
701.06	0.38778708
701.252	0.38762503
701.443	0.38756312
701.635	0.38740804
701.826	0.38738266
702.018	0.38746813
702.209	0.38749763
702.401	0.38741155
702.592	0.38754986
702.784	0.38756242
702.975	0.38762457
703.166	0.38752367
703.358	0.38737022
703.549	0.38736598
703.741	0.38728581
703.932	0.38713065
704.123	0.38706558
704.315	0.38708576
704.506	0.38721545
704.697	0.38728058
704.888	0.38738344
705.08	0.38749676
705.271	0.3875652
705.462	0.38761432
705.653	0.38755106
705.844	0.38746393
706.035	0.38741125
706.227	0.38724467
706.418	0.38714673
706.609	0.38711292
706.8	0.38723843
706.991	0.38728149
707.182	0.38728538
707.373	0.38728165
707.564	0.38731107
707.755	0.38729467
707.946	0.38726146
708.137	0.3870637
708.328	0.38695744
708.519	0.38693618
708.71	0.38692471
708.901	0.38685952
709.092	0.38691928
709.283	0.3869335
709.473	0.38703596
709.664	0.38714393
709.855	0.38713647
710.046	0.38724655
710.237	0.38728632
710.427	0.38726415
710.618	0.38729595
710.809	0.38726456
711	0.38724953
711.19	0.38719507
711.381	0.38722386
711.572	0.38721303
711.762	0.38727611
711.953	0.38722433
712.144	0.38721454
712.334	0.38721521
712.525	0.38733493
712.715	0.38728676
712.906	0.38728212
713.097	0.38716946
713.287	0.38724179
713.478	0.38716916
713.668	0.38719608
713.859	0.38712836
714.049	0.38713974
714.239	0.38726527
714.43	0.38736096
714.62	0.38737302
714.811	0.38751763
715.001	0.38750241
715.191	0.38755277
715.382	0.38747441
715.572	0.38749636
715.762	0.38750568
715.953	0.38752821
716.143	0.38758355
716.333	0.38760802
716.523	0.38763286
716.714	0.3877956
716.904	0.38777265
717.094	0.38782459
717.284	0.38778993
717.474	0.38778872
717.664	0.38778635
717.855	0.3877558
718.045	0.38761707
718.235	0.38754148
718.425	0.38755814
718.615	0.38764747
718.805	0.38770532
718.995	0.38781328
719.185	0.38790869
719.375	0.38811445
719.565	0.38827157
719.755	0.38827649
719.945	0.38824805
720.135	0.38825568
720.325	0.38831324
720.515	0.38836194
720.704	0.38833816
720.894	0.38833007
721.084	0.38836367
721.274	0.38852114
721.464	0.38858051
721.654	0.38856927
721.843	0.38859434
722.033	0.38864224
722.223	0.38869182
722.413	0.38876504
722.602	0.38872604
722.792	0.38870589
722.982	0.38874312
723.171	0.38877388
723.361	0.38882001
723.55	0.38895598
723.74	0.38900018
723.93	0.38914384
724.119	0.38928187
724.309	0.38935759
724.498	0.38933938
724.688	0.38934687
724.877	0.38927293
725.067	0.38927079
725.256	0.3891719
725.446	0.3891521
725.635	0.38909445
725.825	0.38913456
726.014	0.38916358
726.203	0.38923149
726.393	0.38923241
726.582	0.38924382
726.771	0.38924974
726.961	0.3893539
727.15	0.38938149
727.339	0.38939688
727.529	0.38941529
727.718	0.38942874
727.907	0.38938003
728.096	0.38933603
728.286	0.38922922
728.475	0.38926735
728.664	0.38924256
728.853	0.38922084
729.042	0.38920526
729.231	0.38929619
729.42	0.38932208
729.609	0.3893754
729.799	0.38937614
729.988	0.38940671
730.177	0.38938589
730.366	0.38943597
730.555	0.38939224
730.744	0.38940928
730.933	0.38939938
731.122	0.38933454
731.31	0.38939403
731.499	0.38937561
731.688	0.3893741
731.877	0.38942608
732.066	0.38948144
732.255	0.38949996
732.444	0.38956257
732.632	0.38949562
732.821	0.38952995
733.01	0.38958295
733.199	0.38950495
733.388	0.38947798
733.576	0.38947635
733.765	0.38952706
733.954	0.38962355
734.142	0.38959893
734.331	0.38958144
734.52	0.38969164
734.708	0.38968317
734.897	0.38976631
735.086	0.38967693
735.274	0.38953675
735.463	0.38952654
735.651	0.38950054
735.84	0.38951917
736.028	0.38958449
736.217	0.38963197
736.405	0.38973136
736.594	0.38985871
736.782	0.39003938
736.971	0.39005224
737.159	0.39005845
737.347	0.39009216
737.536	0.39001711
737.724	0.39006216
737.912	0.39005756
738.101	0.38998263
738.289	0.39006985
738.477	0.3901201
738.666	0.39014699
738.854	0.39025992
739.042	0.39038719
739.23	0.39048503
739.418	0.39057212
739.607	0.39059982
739.795	0.39067656
739.983	0.3907092
740.171	0.39071418
740.359	0.39063316
740.547	0.39057089
740.735	0.39053724
740.923	0.3906405
741.112	0.39062928
741.3	0.39066616
741.488	0.39068988
741.676	0.39083147
741.864	0.39097498
742.052	0.39114718
742.239	0.39111212
742.427	0.39116732
742.615	0.39114195
742.803	0.39116915
742.991	0.39110515
743.179	0.39113803
743.367	0.39114899
743.555	0.39131341
743.742	0.39142976
743.93	0.39163111
744.118	0.39179443
744.306	0.39199942
744.494	0.39211343
744.681	0.39218989
744.869	0.39220699
745.057	0.39224834
745.244	0.39220829
745.432	0.39219254
745.62	0.39213613
745.807	0.3921358
745.995	0.39211065
746.182	0.39206887
746.37	0.39209972
746.558	0.39219365
746.745	0.39222718
746.933	0.39230547
747.12	0.3922837
747.308	0.39237484
747.495	0.39245225
747.683	0.39247819
747.87	0.39248504
748.057	0.39265663
748.245	0.39269148
748.432	0.39278394
748.62	0.39270845
748.807	0.39273831
748.994	0.39277754
749.182	0.3928343
749.369	0.39277078
749.556	0.39281709
749.743	0.39292162
749.931	0.3930863
750.118	0.39325509
750.305	0.39337588
750.492	0.39342975
750.68	0.39351926
750.867	0.39351225
751.054	0.39350283
751.241	0.39349831
751.428	0.39342751
751.615	0.39335838
751.802	0.39338129
751.989	0.39332385
752.176	0.39352735
752.363	0.39364404
752.55	0.39373751
752.737	0.39386797
752.924	0.39395091
753.111	0.39403616
753.298	0.39420195
753.485	0.39413575
753.672	0.394182
753.859	0.39431653
754.046	0.39436876
754.233	0.39444148
754.42	0.39458582
754.606	0.39459473
754.793	0.39471428
754.98	0.39478899
755.167	0.39475488
755.353	0.39485856
755.54	0.39501046
755.727	0.39504477
755.914	0.39519043
756.1	0.39522618
756.287	0.39527046
756.474	0.39530498
756.66	0.39542003
756.847	0.39552855
757.033	0.39554801
757.22	0.39560551
757.407	0.39576587
757.593	0.39592798
757.78	0.39609863
757.966	0.39617418
758.153	0.39617392
758.339	0.39621476
758.526	0.39628272
758.712	0.39624924
758.898	0.39623084
759.085	0.39619017
759.271	0.39614204
759.458	0.39610408
759.644	0.39625256
759.83	0.39631268
760.017	0.39642388
760.203	0.39651492
760.389	0.39663646
760.576	0.39677451
760.762	0.39696752
760.948	0.39692139
761.134	0.39690185
761.32	0.39689169
761.507	0.39684954
761.693	0.39693315
761.879	0.39691564
762.065	0.39691134
762.251	0.39700049
762.437	0.3971421
762.623	0.39721324
762.809	0.39733284
762.995	0.39742281
763.181	0.39746733
763.367	0.39750104
763.553	0.39758768
763.739	0.39773597
763.925	0.39785918
764.111	0.3979723
764.297	0.39807071
764.483	0.39813542
764.669	0.39807143
764.855	0.39802774
765.041	0.39788409
765.227	0.39779921
765.412	0.39773049
765.598	0.39766516
765.784	0.3977182
765.97	0.39801352
766.156	0.39822683
766.341	0.39836709
766.527	0.39849836
766.713	0.39859662
766.898	0.39869168
767.084	0.39873105
767.27	0.39855196
767.455	0.39847622
767.641	0.39849898
767.827	0.39849283
768.012	0.39858116
768.198	0.39862908
768.383	0.39870836
768.569	0.39899446
768.754	0.39920427
768.94	0.39936247
769.125	0.3995635
769.311	0.39952913
769.496	0.39962865
769.682	0.39966854
769.867	0.39959993
770.052	0.39954241
770.238	0.39952036
770.423	0.39948696
770.608	0.39954384
770.794	0.39953377
770.979	0.39963538
771.164	0.39971176
771.35	0.39975107
771.535	0.39980793
771.72	0.39991945
771.905	0.40009733
772.09	0.40021215
772.276	0.40027178
772.461	0.40026974
772.646	0.40039183
772.831	0.40042666
773.016	0.4004275
773.201	0.40036905
773.386	0.40031782
773.571	0.40019863
773.756	0.40021088
773.941	0.40010952
774.126	0.4002599
774.311	0.4002079
774.496	0.40033234
774.681	0.40038651
774.866	0.40052933
775.051	0.400549
775.236	0.40060803
775.421	0.40044132
775.606	0.40049429
775.791	0.40037411
775.976	0.40045207
776.16	0.40048963
776.345	0.40061238
776.53	0.40077395
776.715	0.40089949
776.899	0.40096355
777.084	0.40112182
777.269	0.40117129
777.454	0.40114661
777.638	0.4011578
777.823	0.40107385
778.008	0.40102474
778.192	0.40103394
778.377	0.40096415
778.561	0.40093185
778.746	0.40091706
778.931	0.40089769
779.115	0.40098416
779.3	0.40101796
779.484	0.40104763
779.669	0.40095615
779.853	0.4009115
780.037	0.40106712
780.222	0.40111354
780.406	0.40114806
780.591	0.40123295
780.775	0.4012697
780.959	0.40140628
781.144	0.40144308
781.328	0.40129121
781.512	0.40122832
781.697	0.40113708
781.881	0.40098703
782.065	0.40090913
782.249	0.40081916
782.434	0.40084858
782.618	0.4009527
782.802	0.40110517
782.986	0.40124357
783.17	0.40141964
783.354	0.4015663
783.539	0.4017246
783.723	0.40176485
783.907	0.4017413
784.091	0.40166964
784.275	0.4016047
784.459	0.40149692
784.643	0.40143051
784.827	0.40131032
785.011	0.40121421
785.195	0.40125618
785.379	0.40126741
785.563	0.40124144
785.747	0.40133314
785.93	0.40147629
786.114	0.40149908
786.298	0.40156502
786.482	0.40153498
786.666	0.40156798
786.85	0.40154231
787.033	0.40155095
787.217	0.40140736
787.401	0.40139871
787.585	0.40138713
787.768	0.40135346
787.952	0.40127631
788.136	0.40131704
788.319	0.40131127
788.503	0.40132075
788.687	0.40137529
788.87	0.40135059
789.054	0.40138247
789.237	0.40141012
789.421	0.40140842
789.605	0.40128786
789.788	0.40116008
789.972	0.40110226
790.155	0.40098129
790.338	0.40087414
790.522	0.40075649
790.705	0.40058342
790.889	0.40047943
791.072	0.40051959
791.256	0.40054189
791.439	0.40066839
791.622	0.40074417
791.806	0.40087408
791.989	0.40093603
792.172	0.40108313
792.355	0.40113156
792.539	0.4011623
792.722	0.40104861
792.905	0.40094712
793.088	0.4008155
793.271	0.40084063
793.455	0.40069158
793.638	0.40055008
793.821	0.40034305
794.004	0.40028997
794.187	0.40032649
794.37	0.4003819
794.553	0.40044226
794.736	0.40050689
794.919	0.40056684
795.102	0.40071203
795.285	0.40081565
795.468	0.40084415
795.651	0.40081877
795.834	0.4007285
796.017	0.40069441
796.2	0.4006155
796.383	0.40051773
796.566	0.40047076
796.749	0.40038085
796.931	0.40026805
797.114	0.40006655
797.297	0.39989016
797.48	0.39985573
797.663	0.39987412
797.845	0.39982622
798.028	0.39982525
798.211	0.39983399
798.393	0.39985779
798.576	0.39990283
798.759	0.39973053
798.941	0.39954754
799.124	0.39933898
799.307	0.39920607
799.489	0.39915428
799.672	0.39912394
799.854	0.39908531
800.037	0.39916077
800.219	0.39915936
800.402	0.39928491
800.584	0.39923838
800.767	0.3991587
800.949	0.39915303
801.132	0.39931788
801.314	0.39933799
801.496	0.39938934
801.679	0.39924078
801.861	0.39922357
802.043	0.39906956
802.226	0.39896349
802.408	0.39873799
802.59	0.39860155
802.772	0.39856274
802.955	0.39863234
803.137	0.39855146
803.319	0.39857382
803.501	0.39852847
803.684	0.39848182
803.866	0.39839144
804.048	0.3982885
804.23	0.39819129
804.412	0.39822804
804.594	0.39819662
804.776	0.39829798
804.958	0.3982514
805.14	0.3983608
805.322	0.39834682
805.504	0.39833683
805.686	0.39817594
805.868	0.39818401
806.05	0.3980298
806.232	0.3979302
806.414	0.39779619
806.596	0.39759723
806.778	0.39743246
806.96	0.39739531
807.141	0.39710394
807.323	0.39703486
807.505	0.39694374
807.687	0.39687743
807.869	0.39684944
808.05	0.39685457
808.232	0.39676128
808.414	0.39692491
808.595	0.39681293
808.777	0.39678648
808.959	0.3967408
809.14	0.3967218
809.322	0.39660008
809.504	0.39655394
809.685	0.39653658
809.867	0.39651001
810.048	0.39648142
810.23	0.39644064
810.411	0.39641522
810.593	0.39634324
810.774	0.39623719
810.956	0.39601855
811.137	0.3958321
811.319	0.3956266
811.5	0.39544222
811.681	0.39525326
811.863	0.39512467
812.044	0.39506942
812.225	0.39507832
812.407	0.39502827
812.588	0.39494584
812.769	0.3948049
812.951	0.39473966
813.132	0.39466182
813.313	0.39463873
813.494	0.39440201
813.675	0.39428991
813.857	0.3941711
814.038	0.39414528
814.219	0.39393987
814.4	0.39383955
814.581	0.39374397
814.762	0.39356294
814.943	0.39347712
815.124	0.3933448
815.305	0.39323598
815.486	0.39315703
815.667	0.39300115
815.848	0.39274885
816.029	0.3926448
816.21	0.39255451
816.391	0.39257689
816.572	0.39241302
816.753	0.39239785
816.934	0.39231782
817.115	0.39223831
817.295	0.39225684
817.476	0.39197302
817.657	0.39185877
817.838	0.39181173
818.019	0.39159791
818.199	0.39133291
818.38	0.39109414
818.561	0.39087172
818.741	0.39076552
818.922	0.39053132
819.103	0.39042461
819.283	0.39046522
819.464	0.39062913
819.645	0.39059452
819.825	0.3905364
820.006	0.39055194
820.186	0.39052635
820.367	0.39036865
820.547	0.39005624
820.728	0.38976842
820.908	0.38964442
821.089	0.38957238
821.269	0.38944698
821.45	0.38932678
821.63	0.38911699
821.81	0.3891257
821.991	0.38911761
822.171	0.38910832
822.351	0.38911243
822.532	0.38907048
822.712	0.38898695
822.892	0.3889774
823.072	0.38884919
823.253	0.3887722
823.433	0.38865123
823.613	0.38851627
823.793	0.38839094
823.973	0.38827234
824.154	0.38805391
824.334	0.38793043
824.514	0.38760564
824.694	0.38735774
824.874	0.38694798
825.054	0.38667575
825.234	0.3863598
825.414	0.38618409
825.594	0.38591129
825.774	0.38581223
825.954	0.38568949
826.134	0.3856606
826.314	0.38547869
826.494	0.38551276
826.674	0.38533027
826.854	0.38516735
827.033	0.38496887
827.213	0.38496257
827.393	0.38468896
827.573	0.38463847
827.753	0.384367
827.932	0.38436652
828.112	0.38432898
828.292	0.38424216
828.472	0.38393054
828.651	0.38400375
828.831	0.38380625
829.011	0.38377914
829.19	0.38354537
829.37	0.38341166
829.549	0.38326756
829.729	0.38308093
829.909	0.38283211
830.088	0.38268926
830.268	0.38234875
830.447	0.38219722
830.627	0.38210497
830.806	0.38188805
830.986	0.38171108
831.165	0.38159373
831.344	0.38148749
831.524	0.38134543
831.703	0.3811636
831.883	0.3808395
832.062	0.38072705
832.241	0.38067131
832.421	0.38048513
832.6	0.38032064
832.779	0.38023755
832.958	0.38016259
833.138	0.38000245
833.317	0.37989557
833.496	0.37969284
833.675	0.37946904
833.854	0.37929991
834.034	0.37911792
834.213	0.37879526
834.392	0.37871811
834.571	0.37840656
834.75	0.37831061
834.929	0.37813265
835.108	0.37777016
835.287	0.37762073
835.466	0.37746922
835.645	0.37728641
835.824	0.37713768
836.003	0.37693241
836.182	0.37680611
836.361	0.37693646
836.54	0.37669785
836.719	0.37667413
836.897	0.3765019
837.076	0.37643072
837.255	0.37614578
837.434	0.37599427
837.613	0.37562427
837.791	0.37537012
837.97	0.37513989
838.149	0.37488282
838.328	0.37461145
838.506	0.37445616
838.685	0.37422059
838.864	0.37414067
839.042	0.37405664
839.221	0.37405618
839.4	0.37399084
839.578	0.37377305
839.757	0.37355189
839.935	0.37340176
840.114	0.37319641
840.292	0.37306263
840.471	0.37267786
840.649	0.37233218
840.828	0.37221561
841.006	0.37216204
841.185	0.3718989
841.363	0.37177488
841.541	0.37146435
841.72	0.37132454
841.898	0.37121014
842.076	0.37102856
842.255	0.37076095
842.433	0.37069486
842.611	0.37040751
842.789	0.37030679
842.968	0.37016078
843.146	0.36995501
843.324	0.36971136
843.502	0.36952747
843.68	0.36936687
843.859	0.36919666
844.037	0.36899
844.215	0.36872893
844.393	0.36850214
844.571	0.36836818
844.749	0.36821406
844.927	0.36788655
845.105	0.36755143
845.283	0.36727853
845.461	0.36706645
845.639	0.36702569
845.817	0.36678583
845.995	0.36674339
846.173	0.3667965
846.351	0.36681475
846.529	0.36671546
846.706	0.36646172
846.884	0.36621823
847.062	0.36607288
847.24	0.3656575
847.418	0.36519457
847.595	0.36485477
847.773	0.36465304
847.951	0.36447013
848.129	0.36419739
848.306	0.36397768
848.484	0.36384501
848.662	0.36390486
848.839	0.36394614
849.017	0.36385569
849.194	0.36381269
849.372	0.36370085
849.549	0.36346115
849.727	0.36329149
849.905	0.36282286
850.082	0.3623512
850.26	0.36202902
850.437	0.36165401
850.614	0.3613547
850.792	0.36121981
850.969	0.36103265
851.147	0.36092282
851.324	0.36078777
851.501	0.36055396
851.679	0.36029697
851.856	0.36005101
852.033	0.35981225
852.211	0.35960288
852.388	0.35936882
852.565	0.35927897
852.742	0.35920938
852.92	0.35908419
853.097	0.35902071
853.274	0.35870288
853.451	0.35832645
853.628	0.35797089
853.805	0.35764172
853.982	0.35721755
854.159	0.35695743
854.336	0.3566478
854.514	0.35641604
854.691	0.35619799
854.868	0.35606679
855.045	0.35578797
855.221	0.35569415
855.398	0.35552844
855.575	0.3553099
855.752	0.35532568
855.929	0.3553205
856.106	0.35512158
856.283	0.35511835
856.46	0.35497858
856.637	0.35494634
856.813	0.35480565
856.99	0.35455041
857.167	0.35434665
857.344	0.35427242
857.52	0.35402992
857.697	0.35364259
857.874	0.35314933
858.05	0.35282926
858.227	0.35252968
858.404	0.35221362
858.58	0.35202131
858.757	0.3517534
858.933	0.35170975
859.11	0.35162462
859.287	0.35139129
859.463	0.35110832
859.64	0.35097983
859.816	0.35061271
859.993	0.35035764
860.169	0.35016457
860.345	0.34990337
860.522	0.34979628
860.698	0.34957816
860.875	0.34933305
861.051	0.34926378
861.227	0.34898206
861.404	0.34877771
861.58	0.34872379
861.756	0.34859248
861.932	0.34858147
862.109	0.34829407
862.285	0.34798224
862.461	0.3479091
862.637	0.34767939
862.813	0.34755487
862.99	0.34724468
863.166	0.34695322
863.342	0.3470527
863.518	0.34686308
863.694	0.3467767
863.87	0.34645232
864.046	0.34602191
864.222	0.34586108
864.398	0.34557066
864.574	0.34505241
864.75	0.34480867
864.926	0.34437512
865.102	0.34417884
865.278	0.34387233
865.454	0.34353004
865.63	0.3432042
865.805	0.34288782
865.981	0.3426813
866.157	0.34254378
866.333	0.3422548
866.509	0.34230532
866.684	0.34219253
866.86	0.34233185
867.036	0.34235015
867.212	0.34214061
867.387	0.34199791
867.563	0.34202547
867.739	0.34177706
867.914	0.34156558
868.09	0.34111137
868.265	0.34070826
868.441	0.34035393
868.617	0.34001068
868.792	0.3394963
868.968	0.33896405
869.143	0.33876897
869.319	0.33870613
869.494	0.33847157
869.67	0.33844657
869.845	0.33826275
870.02	0.33829499
870.196	0.3382927
870.371	0.33795651
870.546	0.33760363
870.722	0.3376087
870.897	0.3371623
871.072	0.33701578
871.248	0.33664406
871.423	0.33631553
871.598	0.33619824
871.773	0.33583869
871.949	0.33547076
872.124	0.33557174
872.299	0.33522198
872.474	0.33503475
872.649	0.33479339
872.824	0.33449552
872.999	0.33446709
873.174	0.33436542
873.349	0.33407157
873.524	0.33400141
873.699	0.33389667
873.874	0.33374171
874.049	0.33362215
874.224	0.33349491
874.399	0.3331497
874.574	0.33305371
874.749	0.33280763
874.924	0.33253361
875.099	0.3323067
875.274	0.33198259
875.449	0.3317741
875.623	0.33153401
875.798	0.33112089
875.973	0.3307802
876.148	0.33027543
876.322	0.3301135
876.497	0.32980997
876.672	0.32933402
876.846	0.32899093
877.021	0.32859471
877.196	0.32810887
877.37	0.32800933
877.545	0.32779419
877.72	0.32750404
877.894	0.32740856
878.069	0.3272924
878.243	0.32701103
878.418	0.3269611
878.592	0.32674223
878.767	0.32626949
878.941	0.32607965
879.116	0.32562961
879.29	0.32517294
879.464	0.32488607
879.639	0.32463156
879.813	0.32457746
879.987	0.32456737
880.162	0.32441981
880.336	0.32439191
880.51	0.32454375
880.685	0.3246754
880.859	0.32455445
881.033	0.32420779
881.207	0.32383339
881.381	0.32362564
881.556	0.32333339
881.73	0.3229258
881.904	0.32265638
882.078	0.32232084
882.252	0.32228714
882.426	0.32212329
882.6	0.32185679
882.774	0.32167578
882.948	0.32131638
883.122	0.32103589
883.296	0.32088987
883.47	0.32048445
883.644	0.32042423
883.818	0.31993542
883.992	0.31988931
884.166	0.3199197
884.34	0.31984789
884.514	0.31976852
884.687	0.31978508
884.861	0.31963229
885.035	0.3199638
885.209	0.31983683
885.382	0.31972168
885.556	0.31956408
885.73	0.31940306
885.904	0.31920948
886.077	0.3189007
886.251	0.31859683
886.425	0.31824282
886.598	0.31804291
886.772	0.31756549
886.945	0.31699815
887.119	0.31643535
887.292	0.31619678
887.466	0.315971
887.64	0.31560371
887.813	0.31523906
887.986	0.31521417
888.16	0.315323
888.333	0.31511041
888.507	0.31495599
888.68	0.31456464
888.854	0.31447998
889.027	0.31416865
889.2	0.31399776
889.374	0.31370546
889.547	0.31370653
889.72	0.31351995
889.893	0.31332124
890.067	0.31311156
890.24	0.31296884
890.413	0.31258301
890.586	0.3120645
890.759	0.31179462
890.933	0.31154798
891.106	0.31151528
891.279	0.31124776
891.452	0.31110469
891.625	0.31103599
891.798	0.31109871
891.971	0.3110058
892.144	0.31087313
892.317	0.31068824
892.49	0.3104952
892.663	0.31029385
892.836	0.31015434
893.009	0.31002244
893.182	0.3096658
893.355	0.30941788
893.527	0.30914446
893.7	0.30905949
893.873	0.30867253
894.046	0.30810491
894.219	0.30793351
894.391	0.30766465
894.564	0.3074084
894.737	0.30714247
894.91	0.30691205
895.082	0.30696369
895.255	0.30690829
895.428	0.30662102
895.6	0.30640766
895.773	0.30613896
895.945	0.30590957
896.118	0.30555841
896.291	0.30524562
896.463	0.30517808
896.636	0.30500166
896.808	0.30493325
896.981	0.30487531
897.153	0.30471904
897.326	0.30463802
897.498	0.30438058
897.67	0.30412093
897.843	0.30386489
898.015	0.30384425
898.187	0.30364247
898.36	0.30315249
898.532	0.30276841
898.704	0.30268569
898.877	0.30247776
899.049	0.30238788
899.221	0.30217485
899.393	0.3019903
899.566	0.30212251
899.738	0.30217318
899.91	0.30201106
900.082	0.3017794
900.254	0.30145285
900.426	0.30113544
900.598	0.30078033
900.77	0.30042977
900.942	0.30002738
901.114	0.2997229
901.286	0.29958617
901.458	0.29940488
901.63	0.2990658
901.802	0.29887409
901.974	0.2988111
902.146	0.29880348
902.318	0.2985648
902.49	0.29828412
902.662	0.29807543
902.834	0.29789904
903.005	0.29793391
903.177	0.29767668
903.349	0.29758641
903.521	0.29749184
903.693	0.29742707
903.864	0.29723704
904.036	0.29708471
904.208	0.29652102
904.379	0.2963639
904.551	0.29608352
904.723	0.29594621
904.894	0.29554045
905.066	0.29548992
905.237	0.29543401
905.409	0.2954007
905.58	0.2953653
905.752	0.2951234
905.923	0.29480875
906.095	0.29451687
906.266	0.29401983
906.438	0.29363986
906.609	0.29337859
906.78	0.29285268
906.952	0.29263998
907.123	0.29231458
907.295	0.29225344
907.466	0.29220499
907.637	0.29213046
907.808	0.29192197
907.98	0.29180605
908.151	0.29168277
908.322	0.29182238
908.493	0.29175616
908.665	0.29164189
908.836	0.29127977
909.007	0.29111276
909.178	0.2908706
909.349	0.29057285
909.52	0.29020298
909.691	0.28967979
909.862	0.28962986
910.033	0.28940455
910.204	0.28926945
910.375	0.28923665
910.546	0.28904742
910.717	0.28891106
910.888	0.28905716
911.059	0.28880635
911.23	0.28877602
911.401	0.28870686
911.572	0.28844477
911.742	0.28816155
911.913	0.28794784
912.084	0.28758037
912.255	0.28717228
912.426	0.28681706
912.596	0.28641801
912.767	0.28633319
912.938	0.28614671
913.108	0.28586114
913.279	0.28553057
913.45	0.28545121
913.62	0.28544254
913.791	0.28546837
913.962	0.28522338
914.132	0.28506248
914.303	0.28497375
914.473	0.28509049
914.644	0.28492225
914.814	0.28482966
914.985	0.28467446
915.155	0.2846154
915.326	0.284468
915.496	0.28418713
915.666	0.28390955
915.837	0.28395423
916.007	0.28349542
916.177	0.28303587
916.348	0.28269355
916.518	0.28263167
916.688	0.28249111
916.858	0.28227423
917.029	0.28163528
917.199	0.28149932
917.369	0.28140715
917.539	0.28136369
917.709	0.2810542
917.88	0.28085362
918.05	0.28051781
918.22	0.2804438
918.39	0.28021181
918.56	0.28003572
918.73	0.28000663
918.9	0.27977937
919.07	0.27955983
919.24	0.27960277
919.41	0.27984453
919.58	0.27957955
919.75	0.27955106
919.92	0.27891928
920.09	0.27903508
920.26	0.2787613
920.429	0.27867906
920.599	0.27823726
920.769	0.27826619
920.939	0.2778077
921.109	0.27764664
921.278	0.2771518
921.448	0.27708898
921.618	0.27693256
921.787	0.27664173
921.957	0.27658065
922.127	0.27653223
922.296	0.27678833
922.466	0.27675202
922.636	0.27688385
922.805	0.27668984
922.975	0.27662503
923.144	0.27635205
923.314	0.27627584
923.483	0.27601245
923.653	0.27577318
923.822	0.27532232
923.992	0.27503699
924.161	0.2748581
924.331	0.27469215
924.5	0.27461464
924.669	0.27429594
924.839	0.27429801
925.008	0.27412645
925.177	0.27373215
925.347	0.2735927
925.516	0.2736518
925.685	0.27343351
925.854	0.27319733
926.023	0.27302438
926.193	0.27299717
926.362	0.27304079
926.531	0.27286646
926.7	0.27251531
926.869	0.27247823
927.038	0.27227691
927.207	0.2721141
927.376	0.27180665
927.545	0.27170843
927.715	0.2715522
927.884	0.27147203
928.052	0.27127224
928.221	0.2708258
928.39	0.27041901
928.559	0.27012498
928.728	0.2700431
928.897	0.27008062
929.066	0.26986038
929.235	0.26925025
929.404	0.26936096
929.572	0.26931142
929.741	0.26938219
929.91	0.26893912
930.079	0.26866616
930.247	0.26855037
930.416	0.26870507
930.585	0.268497
930.753	0.26841172
930.922	0.26822933
931.091	0.26849168
931.259	0.26826257
931.428	0.26811853
931.596	0.2679793
931.765	0.26827635
931.934	0.26825954
932.102	0.26776641
932.27	0.26757934
932.439	0.26728129
932.607	0.26711763
932.776	0.26712177
932.944	0.26673941
933.113	0.26645741
933.281	0.26661219
933.449	0.26587726
933.618	0.26556765
933.786	0.26548749
933.954	0.26491405
934.123	0.26471737
934.291	0.26446337
934.459	0.26419457
934.627	0.26434887
934.795	0.26449289
934.964	0.26403505
935.132	0.26381012
935.3	0.26329893
935.468	0.26296556
935.636	0.26303983
935.804	0.26280618
935.972	0.26250476
936.14	0.26231253
936.308	0.26255055
936.476	0.2631916
936.644	0.26337296
936.812	0.26315254
936.98	0.26314697
937.148	0.2627745
937.316	0.26211711
937.484	0.26219606
937.652	0.26115402
937.82	0.26118118
937.987	0.26044132
938.155	0.26004797
938.323	0.25999577
938.491	0.25985714
938.658	0.26067387
938.826	0.2604941
938.994	0.26024003
939.162	0.26099565
939.329	0.26198909
939.497	0.26313043
939.665	0.26423824
939.832	0.26341871
940	0.26385214
940.167	0.26401357
940.335	0.2631363
940.502	0.26229379
940.67	0.26146575
940.837	0.26231885
941.005	0.26130336
941.172	0.26163501
941.34	0.26185239
941.507	0.26444003
941.674	0.26506424
941.842	0.26542248
942.009	0.26645716
942.177	0.26594604
942.344	0.26696836
942.511	0.26613339
942.678	0.26546947
942.846	0.26493082
943.013	0.26499502
943.18	0.26316965
943.347	0.26502379
943.514	0.26378864
943.682	0.26530873
943.849	0.26319504
944.016	0.2622319
944.183	0.26259923
944.35	0.26298789
944.517	0.26356639
944.684	0.26434091
944.851	0.26004167
945.018	0.25989203
945.185	0.26023424
945.352	0.25980995
945.519	0.25794897
945.686	0.25534692
945.853	0.25858095
946.02	0.26011978
946.187	0.26050322
946.353	0.26115035
946.52	0.26044936
946.687	0.26041186
946.854	0.26137488
947.021	0.25747571
947.187	0.25748306
947.354	0.2558609
947.521	0.25526123
947.687	0.25373472
947.854	0.25425365
948.021	0.25360638
948.187	0.25332662
948.354	0.25273815
948.52	0.25236858
948.687	0.25306538
948.854	0.2554512
949.02	0.25404798
949.187	0.25379644
949.353	0.25398201
949.52	0.25267387
949.686	0.25341609
949.852	0.25355596
950.019	0.25261028
950.185	0.2536827
950.352	0.25406818
950.518	0.2525488
950.684	0.2549847
950.851	0.25579799
951.017	0.25293103
951.183	0.25283552
951.349	0.2519522
951.516	0.24995456
951.682	0.25044534
951.848	0.24855848
952.014	0.24753076
952.18	0.24914124
952.346	0.24847247
952.512	0.24890904
952.679	0.25002092
952.845	0.25003741
953.011	0.2498331
953.177	0.24915224
953.343	0.24854582
953.509	0.24871692
953.675	0.24811437
953.841	0.2477646
954.007	0.24846875
954.172	0.24913075
954.338	0.24871082
954.504	0.24808687
954.67	0.24626885
954.836	0.24678174
955.002	0.24643556
955.167	0.24610002
955.333	0.24503326
955.499	0.24565897
955.665	0.24505194
955.83	0.24569816
955.996	0.24487816
956.162	0.24489401
956.327	0.24345509
956.493	0.24303611
956.659	0.24301406
956.824	0.24331042
956.99	0.24343112
957.155	0.24302366
957.321	0.24276357
957.486	0.24278185
957.652	0.24274252
957.817	0.2432577
957.983	0.24236032
958.148	0.24198746
958.314	0.24150748
958.479	0.24053069
958.644	0.24064266
958.81	0.24102902
958.975	0.24020134
959.14	0.24046741
959.306	0.24001849
959.471	0.24032061
959.636	0.24007119
959.801	0.24125313
959.967	0.24081968
960.132	0.24067442
960.297	0.24074887
960.462	0.24133923
960.627	0.24083316
960.792	0.24072722
960.957	0.2397833
961.123	0.24059279
961.288	0.24056985
961.453	0.24083716
961.618	0.24052999
961.783	0.24087679
961.948	0.24076526
962.113	0.2397594
962.277	0.23786819
962.442	0.23753119
962.607	0.2367303
962.772	0.23614663
962.937	0.23527612
963.102	0.2355319
963.267	0.23578564
963.431	0.23663575
963.596	0.2362824
963.761	0.23655804
963.926	0.23647847
964.09	0.23673871
964.255	0.2367817
964.42	0.23713191
964.584	0.23725509
964.749	0.2369138
964.914	0.23603164
965.078	0.23543526
965.243	0.23466552
965.407	0.23383336
965.572	0.23251863
965.736	0.23230067
965.901	0.2328288
966.065	0.23473258
966.23	0.23480932
966.394	0.23551766
966.559	0.23579879
966.723	0.23623793
966.887	0.2360833
967.052	0.23525066
967.216	0.23313431
967.38	0.23239458
967.545	0.23165478
967.709	0.23205101
967.873	0.23228409
968.037	0.23252072
968.202	0.23268162
968.366	0.23309569
968.53	0.23377628
968.694	0.23344389
968.858	0.23256913
969.022	0.23162151
969.187	0.22998176
969.351	0.22949467
969.515	0.22919876
969.679	0.22829696
969.843	0.22850599
970.007	0.22812856
970.171	0.22877049
970.335	0.22964819
970.499	0.22973944
970.662	0.23009529
970.826	0.23060342
970.99	0.23094803
971.154	0.23140117
971.318	0.23091814
971.482	0.22987631
971.645	0.23017908
971.809	0.23023051
971.973	0.23021415
972.137	0.2294891
972.3	0.22910238
972.464	0.22952029
972.628	0.23086586
972.791	0.23124929
972.955	0.23115702
973.119	0.23068977
973.282	0.23102914
973.446	0.23112725
973.609	0.23042725
973.773	0.22995897
973.936	0.22881158
974.1	0.2276204
974.263	0.2280609
974.427	0.22820889
974.59	0.22769453
974.754	0.22761269
974.917	0.22725463
975.08	0.22706765
975.244	0.22700975
975.407	0.22638694
975.57	0.22612034
975.734	0.22595197
975.897	0.22573267
976.06	0.22546861
976.223	0.22565106
976.387	0.22646257
976.55	0.22633371
976.713	0.2256764
976.876	0.2261152
977.039	0.22563634
977.202	0.22506203
977.365	0.22445573
977.528	0.22402418
977.692	0.22465202
977.855	0.22411731
978.018	0.22346964
978.181	0.22426258
978.344	0.22429517
978.506	0.22424712
978.669	0.22383086
978.832	0.22259072
978.995	0.22289513
979.158	0.22382468
979.321	0.22245962
979.484	0.22255427
979.646	0.22251284
979.809	0.22342707
979.972	0.22348017
980.135	0.22367262
980.297	0.22294384
980.46	0.22281373
980.623	0.22345196
980.786	0.22359659
980.948	0.22270068
981.111	0.22266712
981.273	0.22215565
981.436	0.22218936
981.599	0.22262489
981.761	0.22135929
981.924	0.22131613
982.086	0.22076747
982.249	0.2211643
982.411	0.22088441
982.573	0.22018526
982.736	0.22144681
982.898	0.22136287
983.061	0.22114717
983.223	0.22056013
983.385	0.2198674
983.548	0.22091127
983.71	0.22028168
983.872	0.21889991
984.034	0.21921113
984.197	0.21805497
984.359	0.21847948
984.521	0.21935135
984.683	0.21829427
984.845	0.21944656
985.008	0.21822229
985.17	0.2187113
985.332	0.22020604
985.494	0.21914263
985.656	0.21875977
985.818	0.21827376
985.98	0.21757831
986.142	0.21772941
986.304	0.2167973
986.466	0.21588298
986.628	0.21618933
986.79	0.21583874
986.952	0.21533461
987.113	0.21508284
987.275	0.21523173
987.437	0.21504307
987.599	0.21484515
987.761	0.21541849
987.922	0.21498729
988.084	0.2156099
988.246	0.21592544
988.408	0.21659206
988.569	0.2164858
988.731	0.21716386
988.893	0.21717093
989.054	0.21778456
989.216	0.21746501
989.377	0.2168371
989.539	0.21661251
989.701	0.21581224
989.862	0.21516047
990.024	0.213945
990.185	0.21212142
990.347	0.21289496
990.508	0.21238356
990.669	0.21275978
990.831	0.21363754
990.992	0.21421573
991.154	0.21412275
991.315	0.21658178
991.476	0.21625313
991.638	0.21679314
991.799	0.21619874
991.96	0.21565422
992.121	0.21612348
992.283	0.21718219
992.444	0.21496629
992.605	0.21497128
992.766	0.21454939
992.927	0.21423688
993.088	0.21402244
993.249	0.21216158
993.41	0.21109609
993.572	0.21165616
993.733	0.21047324
993.894	0.20985844
994.055	0.20745443
994.216	0.20833907
994.376	0.20765926
994.537	0.20894069
994.698	0.20962552
994.859	0.20992899
995.02	0.21065292
995.181	0.21155548
995.342	0.21084059
995.503	0.21178714
995.663	0.21128722
995.824	0.21003753
995.985	0.21183602
996.146	0.21171242
996.306	0.21315094
996.467	0.21389937
996.628	0.21493467
996.788	0.21440938
996.949	0.21595808
997.11	0.2135162
997.27	0.21272479
997.431	0.21207104
997.591	0.20944071
997.752	0.20596847
997.912	0.20702885
998.073	0.20575708
998.233	0.20665083
998.394	0.20688143
998.554	0.20763542
998.714	0.20893772
998.875	0.21021587
999.035	0.20802802
999.196	0.20809756
999.356	0.20720587
999.516	0.20801742
999.676	0.20767853
999.837	0.20763262
999.997	0.20723367
1000.157	0.20727463
1000.317	0.20494572
1000.477	0.20451616
1000.638	0.20287101
1000.798	0.20393569
1000.958	0.20545502
1001.118	0.20710933
1001.278	0.20771811
1001.438	0.20884799
1001.598	0.20972565
1001.758	0.2112797
1001.918	0.2096004
1002.078	0.2057222
1002.238	0.20378206
1002.398	0.20407698
1002.558	0.20348939
1002.718	0.202412
1002.878	0.20228074
1003.037	0.19962202
1003.197	0.20192502
1003.357	0.20181189
1003.517	0.20329611
1003.677	0.20224107
1003.836	0.20255634
1003.996	0.20161221
1004.156	0.20312179
1004.315	0.20311356
1004.475	0.20537033
1004.635	0.20547466
1004.794	0.20883575
1004.954	0.20920572
1005.114	0.20878343
1005.273	0.21080733
1005.433	0.21012912
1005.592	0.20896396
1005.752	0.20695959
1005.911	0.20492862
1006.071	0.20722831
1006.23	0.20592396
1006.389	0.20599904
1006.549	0.20572214
1006.708	0.20570467
1006.868	0.20272614
1007.027	0.20480121
1007.186	0.20338514
1007.345	0.20569828
1007.505	0.20434721
1007.664	0.20588379
1007.823	0.2048352
1007.982	0.20752216
1008.142	0.20776621
1008.301	0.2074835
1008.46	0.20588858
1008.619	0.20415231
1008.778	0.20273055
1008.937	0.20306768
1009.096	0.20234539
1009.255	0.2002075
1009.414	0.1965938
1009.573	0.19726546
1009.732	0.19924593
1009.891	0.19942128
1010.05	0.19917678
1010.209	0.19958667
1010.368	0.20076518
1010.527	0.20229461
1010.686	0.20468952
1010.845	0.20203821
1011.003	0.20187135
1011.162	0.20068753
1011.321	0.19694947
1011.48	0.19703395
1011.638	0.19821666
1011.797	0.1962649
1011.956	0.19889156
1012.115	0.19875828
1012.273	0.19933645
1012.432	0.2013245
1012.59	0.19856624
1012.749	0.19704545
1012.908	0.19499019
1013.066	0.19780962
1013.225	0.19744601
1013.383	0.20012011
1013.542	0.20200435
1013.7	0.20368204
1013.859	0.20775793
1014.017	0.21228945
1014.175	0.20732004
1014.334	0.21041658
1014.492	0.21116746
1014.65	0.2117431
1014.809	0.21434997
1014.967	0.21406497
1015.125	0.21252553
1015.284	0.21731946
1015.442	0.21518932
1015.6	0.21366419
1015.758	0.21184875
1015.916	0.20501023
1016.075	0.20197645
1016.233	0.19968092
1016.391	0.19965704
1016.549	0.20054736
1016.707	0.1987921
1016.865	0.19951313
1017.023	0.19916584
1017.181	0.1997814
1017.339	0.20150364
1017.497	0.19549845
1017.655	0.19512842
1017.813	0.19513768
1017.971	0.19463233
1018.129	0.19791974
1018.286	0.19872742
1018.444	0.19233654
1018.602	0.19634532
1018.76	0.19374881
1018.918	0.19610474
1019.075	0.19780289
1019.233	0.1977317
1019.391	0.19705693
1019.549	0.20569707
1019.706	0.20542647
1019.864	0.20554529
1020.022	0.20596134
1020.179	0.2052839
1020.337	0.20327188
1020.494	0.1999934
1020.652	0.19654288
1020.809	0.19786736
1020.967	0.19677458
1021.124	0.19468675
1021.282	0.19799859
1021.439	0.19914546
1021.597	0.20097424
1021.754	0.19903889
1021.911	0.19890358
1022.069	0.19678176
1022.226	0.19418293
1022.384	0.18806205
1022.541	0.18702383
1022.698	0.1866788
1022.855	0.19216875
1023.013	0.19065096
1023.17	0.19121478
1023.327	0.19663835
1023.484	0.2026057
1023.641	0.20713854
1023.798	0.21443309
1023.956	0.21720991
1024.113	0.2113069
1024.27	0.20968152
1024.427	0.20998081
1024.584	0.20562893
1024.741	0.19940858
1024.898	0.1906189
1025.055	0.18022954
1025.212	0.18061837
1025.369	0.17840808
1025.525	0.1724591
1025.682	0.17670104
1025.839	0.18179011
1025.996	0.1846688
1026.153	0.19094762
1026.31	0.19589717
1026.466	0.20604965
1026.623	0.20944687
1026.78	0.20961975
1026.937	0.20948386
1027.093	0.21130094
1027.25	0.21888135
1027.407	0.21133655
1027.563	0.20634067
1027.72	0.20988119
1027.876	0.20096483
1028.033	0.20306331
1028.19	0.2038098
1028.346	0.19136947
1028.503	0.19810088
1028.659	0.20629863
1028.816	0.20822116
1028.972	0.21958638
1029.128	0.21925622
1029.285	0.21477488
1029.441	0.21442396
1029.598	0.21047194
1029.754	0.21127718
1029.91	0.2089481
1030.067	0.20156236
1030.223	0.20536662
1030.379	0.20595668
1030.535	0.21540185
1030.691	0.21704418
1030.848	0.21548525
1031.004	0.22073139
1031.16	0.22693705
1031.316	0.22809374
1031.472	0.24236817
1031.628	0.23709161
1031.784	0.23327183
1031.94	0.23939379
1032.096	0.23640499
1032.252	0.23378776
1032.408	0.23677508
1032.564	0.2362319
1032.72	0.23310293
1032.876	0.23756631
1033.032	0.22922924
1033.188	0.21688852
1033.344	0.22389964
1033.5	0.2237416
1033.655	0.21314584
1033.811	0.22336611
1033.967	0.23082845
