Data from 0_1_mm_pl_90pc_Absorbance__0__16-15-02-659.txt Node

Date: Fri Feb 24 16:15:02 CET 2023
User: Ange
Spectrometer: FLMT08341
Trigger mode: 0
Integration Time (sec): 1.000000E-2
Scans to average: 400
Electric dark correction enabled: true
Nonlinearity correction enabled: false
Boxcar width: 3
XAxis mode: Wavelengths
Number of Pixels in Spectrum: 3648
>>>>>Begin Spectral Data<<<<<
345.271	-0.00631528
345.487	-0.00444327
345.704	0.00874931
345.921	0.00731589
346.137	0.01091524
346.354	0.01523957
346.571	-0.00860928
346.787	-0.0586059
347.004	0.04143881
347.22	0.06118261
347.437	0.05440395
347.653	0.16891438
347.87	-0.19545123
348.086	-0.06447398
348.303	-0.32555391
348.519	0.3720822
348.736	0.35919329
348.952	0.36017547
349.169	0.37369925
349.385	0.38871509
349.601	0.38807744
349.818	0.38339514
350.034	0.38145012
350.251	0.37938083
350.467	0.38277116
350.683	0.37299426
350.9	0.37450967
351.116	0.37369687
351.332	0.37461736
351.549	0.38613347
351.765	0.39803778
351.981	0.40315509
352.197	0.42018627
352.414	0.43549623
352.63	0.44834661
352.846	0.46038719
353.062	0.45637271
353.278	0.45080941
353.495	0.46746015
353.711	0.47111399
353.927	0.47436218
354.143	0.47257562
354.359	0.46531809
354.575	0.46442732
354.792	0.47627125
355.008	0.47012347
355.224	0.4666897
355.44	0.46322777
355.656	0.46321961
355.872	0.47255107
356.088	0.49669924
356.304	0.49821356
356.52	0.49900659
356.736	0.5044073
356.952	0.5116637
357.168	0.51727314
357.384	0.52767104
357.6	0.51554016
357.816	0.52756808
358.032	0.53985486
358.248	0.5553242
358.464	0.55367271
358.679	0.56026706
358.895	0.56378437
359.111	0.57578983
359.327	0.56779318
359.543	0.56958413
359.759	0.57429166
359.974	0.57908747
360.19	0.57982877
360.406	0.57993143
360.622	0.57673886
360.838	0.57647719
361.053	0.5837528
361.269	0.58759588
361.485	0.59112197
361.701	0.59814952
361.916	0.59205391
362.132	0.59478682
362.348	0.60323877
362.563	0.60343119
362.779	0.59773255
362.995	0.60463081
363.21	0.61184272
363.426	0.6182079
363.641	0.62062094
363.857	0.62594161
364.073	0.62163976
364.288	0.62084233
364.504	0.63281515
364.719	0.63397041
364.935	0.63590237
365.15	0.63972433
365.366	0.64222898
365.581	0.65710901
365.797	0.66206459
366.012	0.65202674
366.228	0.64554017
366.443	0.65964812
366.658	0.66208399
366.874	0.65523897
367.089	0.66160652
367.305	0.66524473
367.52	0.6693662
367.735	0.67256171
367.951	0.66182757
368.166	0.66640412
368.381	0.68248292
368.597	0.67623631
368.812	0.68239601
369.027	0.68793231
369.243	0.69243319
369.458	0.71173391
369.673	0.71531298
369.888	0.71559393
370.104	0.71211114
370.319	0.7174024
370.534	0.71519335
370.749	0.71952662
370.964	0.72018502
371.179	0.72096083
371.395	0.71639191
371.61	0.72653055
371.825	0.71956427
372.04	0.72554398
372.255	0.72119816
372.47	0.71128433
372.685	0.70472216
372.9	0.7068359
373.115	0.70265093
373.33	0.70650234
373.545	0.70661782
373.76	0.71287847
373.975	0.71388719
374.19	0.71356839
374.405	0.71794369
374.62	0.72561037
374.835	0.73730177
375.05	0.73892272
375.265	0.74015505
375.48	0.74575483
375.695	0.76666247
375.91	0.76223919
376.125	0.75247324
376.339	0.7399221
376.554	0.74199535
376.769	0.74320474
376.984	0.74216873
377.199	0.742634
377.414	0.74009566
377.628	0.75110903
377.843	0.75871541
378.058	0.75994771
378.273	0.76568496
378.487	0.76940755
378.702	0.767982
378.917	0.77437915
379.131	0.76963226
379.346	0.76301835
379.561	0.75873268
379.775	0.75319714
379.99	0.74603496
380.205	0.73885599
380.419	0.73330604
380.634	0.72525208
380.848	0.73215258
381.063	0.73328304
381.278	0.73980454
381.492	0.73854784
381.707	0.74396258
381.921	0.74376495
382.136	0.75552661
382.35	0.75061877
382.565	0.7469478
382.779	0.74484329
382.994	0.74817254
383.208	0.74105079
383.422	0.74846814
383.637	0.74452718
383.851	0.75031263
384.066	0.75563496
384.28	0.75860896
384.494	0.76047942
384.709	0.76604253
384.923	0.76592301
385.137	0.76003622
385.352	0.75781898
385.566	0.76061169
385.78	0.75672475
385.995	0.75100899
386.209	0.74622923
386.423	0.74614637
386.637	0.75044303
386.852	0.74466533
387.066	0.73930614
387.28	0.73500492
387.494	0.74094341
387.708	0.74198407
387.923	0.73913758
388.137	0.74102621
388.351	0.74444225
388.565	0.74701801
388.779	0.74902162
388.993	0.75395884
389.207	0.75390071
389.421	0.75438334
389.635	0.74952284
389.85	0.74614511
390.064	0.74360824
390.278	0.74278126
390.492	0.73946625
390.706	0.73804649
390.92	0.73602813
391.134	0.74025964
391.348	0.74680922
391.561	0.74281862
391.775	0.73963319
391.989	0.7323001
392.203	0.73412413
392.417	0.73438675
392.631	0.7337432
392.845	0.72596516
393.059	0.72992711
393.273	0.7271165
393.486	0.72263777
393.7	0.71423341
393.914	0.71383107
394.128	0.70936617
394.342	0.70640615
394.555	0.69767094
394.769	0.69740471
394.983	0.69941599
395.197	0.70256762
395.41	0.70064876
395.624	0.70031437
395.838	0.69857442
396.051	0.70467559
396.265	0.70044562
396.479	0.69896149
396.692	0.69650598
396.906	0.69068963
397.12	0.68773209
397.333	0.68847763
397.547	0.68245055
397.76	0.68405872
397.974	0.68262958
398.187	0.68111949
398.401	0.68297157
398.614	0.68018136
398.828	0.6775922
399.041	0.67679952
399.255	0.67301088
399.468	0.67050797
399.682	0.66731028
399.895	0.66553249
400.109	0.66333367
400.322	0.66007585
400.536	0.65451214
400.749	0.65552114
400.962	0.65269287
401.176	0.65035081
401.389	0.64699539
401.602	0.64143271
401.816	0.6404133
402.029	0.6415992
402.242	0.63646571
402.456	0.6346159
402.669	0.63024342
402.882	0.62423373
403.095	0.62683526
403.309	0.62477748
403.522	0.62276898
403.735	0.61995061
403.948	0.61750493
404.161	0.6208641
404.375	0.62087659
404.588	0.61722892
404.801	0.61401906
405.014	0.61008855
405.227	0.61095645
405.44	0.60997087
405.653	0.60727988
405.866	0.60333459
406.079	0.6004385
406.293	0.59846462
406.506	0.59621339
406.719	0.59286883
406.932	0.58928186
407.145	0.58451301
407.358	0.58553068
407.571	0.58280589
407.784	0.58066105
407.996	0.57901595
408.209	0.57481867
408.422	0.5712937
408.635	0.56995459
408.848	0.56740758
409.061	0.56283135
409.274	0.56026014
409.487	0.55697803
409.7	0.55552645
409.912	0.55529102
410.125	0.55297958
410.338	0.55009608
410.551	0.54885852
410.764	0.54635344
410.976	0.54520463
411.189	0.54302982
411.402	0.53918461
411.615	0.53699909
411.827	0.53516449
412.04	0.53387433
412.253	0.53138075
412.465	0.52810179
412.678	0.5256956
412.891	0.52558202
413.103	0.52096827
413.316	0.51812273
413.529	0.51713636
413.741	0.51595212
413.954	0.51444991
414.166	0.5127546
414.379	0.5090552
414.591	0.50916502
414.804	0.50591184
415.016	0.50322352
415.229	0.50085459
415.441	0.4979699
415.654	0.49669574
415.866	0.49541692
416.079	0.49346362
416.291	0.49225922
416.504	0.49118342
416.716	0.48950002
416.928	0.48833388
417.141	0.48536626
417.353	0.48343666
417.566	0.47987843
417.778	0.47829895
417.99	0.47442098
418.203	0.47132454
418.415	0.46894403
418.627	0.46743235
418.839	0.46577795
419.052	0.4658799
419.264	0.46371739
419.476	0.4624808
419.688	0.46117313
419.901	0.45928151
420.113	0.45703058
420.325	0.4543431
420.537	0.45142412
420.749	0.44993568
420.961	0.44841397
421.174	0.4463274
421.386	0.44441371
421.598	0.44224407
421.81	0.4405084
422.022	0.4383966
422.234	0.43646226
422.446	0.43455178
422.658	0.43242365
422.87	0.43059317
423.082	0.42896115
423.294	0.42700082
423.506	0.42566524
423.718	0.42363914
423.93	0.42128376
424.142	0.41949296
424.354	0.41752437
424.566	0.4157117
424.778	0.41437165
424.99	0.41232404
425.202	0.41015864
425.414	0.40888657
425.625	0.40740453
425.837	0.40521334
426.049	0.40348476
426.261	0.40139577
426.473	0.39912801
426.684	0.39769249
426.896	0.39613129
427.108	0.3944753
427.32	0.39337199
427.531	0.39161745
427.743	0.39021696
427.955	0.38952773
428.167	0.38767837
428.378	0.38587303
428.59	0.38412719
428.802	0.3824097
429.013	0.38071859
429.225	0.37895756
429.436	0.37687782
429.648	0.37575462
429.86	0.3743361
430.071	0.37274946
430.283	0.37143211
430.494	0.36986382
430.706	0.36846097
430.917	0.3668207
431.129	0.36514742
431.34	0.3635675
431.552	0.36222431
431.763	0.36042782
431.975	0.35926234
432.186	0.35742347
432.398	0.35608326
432.609	0.35395353
432.821	0.35248781
433.032	0.35110274
433.243	0.34965042
433.455	0.34791529
433.666	0.34664707
433.877	0.345586
434.089	0.34405597
434.3	0.34234269
434.511	0.3402111
434.723	0.33877865
434.934	0.33710422
435.145	0.33526337
435.356	0.33332503
435.568	0.33221491
435.779	0.33078657
435.99	0.32952875
436.201	0.32808379
436.412	0.32681818
436.624	0.32577483
436.835	0.32490804
437.046	0.32383278
437.257	0.32240001
437.468	0.32171324
437.679	0.32071969
437.89	0.31940336
438.101	0.31811183
438.312	0.31661946
438.523	0.31525529
438.734	0.31408474
438.945	0.31272671
439.156	0.31105513
439.367	0.30991607
439.578	0.30910766
439.789	0.30750344
440	0.30624569
440.211	0.30478885
440.422	0.3035377
440.633	0.30250249
440.844	0.3010183
441.055	0.29930385
441.266	0.29844084
441.477	0.29694897
441.687	0.29588189
441.898	0.29469653
442.109	0.29315843
442.32	0.29201249
442.531	0.29045006
442.741	0.28873743
442.952	0.28756765
443.163	0.28640343
443.374	0.28486137
443.584	0.28380345
443.795	0.28272836
444.006	0.28188825
444.216	0.28098513
444.427	0.27971871
444.638	0.27846792
444.848	0.27714596
445.059	0.27584287
445.27	0.2746675
445.48	0.27331861
445.691	0.27230192
445.901	0.27117464
446.112	0.27001932
446.323	0.26888121
446.533	0.2678389
446.744	0.26646142
446.954	0.26525424
447.165	0.2639434
447.375	0.26304516
447.586	0.2621739
447.796	0.26130096
448.006	0.26031647
448.217	0.25958981
448.427	0.25867399
448.638	0.25756765
448.848	0.25616942
449.058	0.25501714
449.269	0.25379161
449.479	0.2527766
449.689	0.25149242
449.9	0.25045501
450.11	0.24943179
450.32	0.248836
450.531	0.24756854
450.741	0.24641741
450.951	0.24531094
451.161	0.24421529
451.372	0.24314773
451.582	0.24238967
451.792	0.24102409
452.002	0.23999445
452.212	0.23911912
452.422	0.23797812
452.633	0.23682326
452.843	0.23576034
453.053	0.23415263
453.263	0.2331664
453.473	0.23213015
453.683	0.23118947
453.893	0.2301492
454.103	0.2293552
454.313	0.22833673
454.523	0.22759416
454.733	0.22666662
454.943	0.22586556
455.153	0.22483554
455.363	0.22386337
455.573	0.22289014
455.783	0.22211756
455.993	0.22110607
456.203	0.22029371
456.413	0.21927342
456.623	0.21829818
456.833	0.21755633
457.042	0.21664317
457.252	0.21565675
457.462	0.21467568
457.672	0.21376394
457.882	0.21294365
458.091	0.21194392
458.301	0.21069214
458.511	0.2097014
458.721	0.20862601
458.931	0.20793038
459.14	0.20701129
459.35	0.20622167
459.56	0.20552991
459.769	0.20486831
459.979	0.20402842
460.189	0.20336395
460.398	0.20239642
460.608	0.20157899
460.817	0.20064967
461.027	0.19980674
461.237	0.19906404
461.446	0.19828358
461.656	0.19772303
461.865	0.19690736
462.075	0.19605434
462.284	0.19545587
462.494	0.19473478
462.703	0.19383528
462.913	0.19316334
463.122	0.19239392
463.332	0.19168853
463.541	0.19105598
463.751	0.19012429
463.96	0.18928719
464.169	0.18865233
464.379	0.18795211
464.588	0.18701619
464.797	0.18620987
465.007	0.18545544
465.216	0.18481564
465.425	0.18424015
465.635	0.18355724
465.844	0.1828122
466.053	0.18213595
466.263	0.18151008
466.472	0.18085716
466.681	0.18017348
466.89	0.17932319
467.099	0.17857544
467.309	0.17787724
467.518	0.17722702
467.727	0.17652686
467.936	0.1758736
468.145	0.17510876
468.354	0.17448616
468.563	0.17379835
468.772	0.17302396
468.982	0.17218567
469.191	0.17160514
469.4	0.17087829
469.609	0.1703483
469.818	0.16974513
470.027	0.16911295
470.236	0.16847713
470.445	0.16799111
470.654	0.16719376
470.863	0.16650312
471.072	0.16585494
471.28	0.16518411
471.489	0.16458588
471.698	0.1640466
471.907	0.16348406
472.116	0.16302425
472.325	0.162452
472.534	0.16178056
472.743	0.1612124
472.951	0.1606322
473.16	0.15995524
473.369	0.15920716
473.578	0.15865021
473.786	0.15810741
473.995	0.15748039
474.204	0.15687439
474.413	0.15628621
474.621	0.15583235
474.83	0.15543254
475.039	0.15482211
475.247	0.15422892
475.456	0.15382648
475.665	0.15329782
475.873	0.1527857
476.082	0.15212351
476.291	0.15156498
476.499	0.15111195
476.708	0.15060078
476.916	0.15006765
477.125	0.14957002
477.333	0.14912575
477.542	0.14869973
477.75	0.14816787
477.959	0.14771126
478.167	0.14728514
478.376	0.14675694
478.584	0.14626966
478.793	0.14570681
479.001	0.14517644
479.209	0.14476702
479.418	0.14425338
479.626	0.14375869
479.834	0.14331442
480.043	0.14286786
480.251	0.14242536
480.459	0.14207081
480.668	0.14162773
480.876	0.14119393
481.084	0.14075113
481.293	0.14034208
481.501	0.13989946
481.709	0.13944078
481.917	0.13900789
482.125	0.13853512
482.334	0.13812812
482.542	0.13769885
482.75	0.13728601
482.958	0.13699769
483.166	0.13662212
483.374	0.13615838
483.583	0.13578832
483.791	0.13535113
483.999	0.13492297
484.207	0.13456232
484.415	0.1341185
484.623	0.13371903
484.831	0.1333656
485.039	0.13303649
485.247	0.13263551
485.455	0.13226075
485.663	0.1318384
485.871	0.13147766
486.079	0.1311285
486.287	0.13080023
486.495	0.13048452
486.702	0.13010755
486.91	0.12977267
487.118	0.12945831
487.326	0.12906506
487.534	0.12876675
487.742	0.12845674
487.95	0.12805043
488.157	0.12780507
488.365	0.12753178
488.573	0.12726586
488.781	0.12698652
488.988	0.12670235
489.196	0.12641472
489.404	0.12621485
489.612	0.12588435
489.819	0.12555727
490.027	0.12527769
490.235	0.12492181
490.442	0.1246524
490.65	0.12433009
490.857	0.12398239
491.065	0.12377039
491.273	0.12352837
491.48	0.12315483
491.688	0.12295858
491.895	0.12261973
492.103	0.12236367
492.31	0.12211162
492.518	0.12183178
492.725	0.121597
492.933	0.12140198
493.14	0.12111811
493.348	0.12085551
493.555	0.12060534
493.763	0.12040479
493.97	0.12020594
494.177	0.1199566
494.385	0.11967552
494.592	0.11949703
494.8	0.11931851
495.007	0.11912941
495.214	0.11890475
495.422	0.11863888
495.629	0.11837472
495.836	0.11815164
496.043	0.1179016
496.251	0.11768904
496.458	0.11749042
496.665	0.11732735
496.872	0.1170929
497.08	0.11700751
497.287	0.11687381
497.494	0.11667382
497.701	0.11650002
497.908	0.1163068
498.115	0.11604987
498.322	0.1158699
498.53	0.1156127
498.737	0.1154102
498.944	0.11523691
499.151	0.11503911
499.358	0.11490425
499.565	0.11473163
499.772	0.11457545
499.979	0.11442406
500.186	0.11426498
500.393	0.11417601
500.6	0.11401601
500.807	0.11384595
501.014	0.11369921
501.221	0.11352908
501.427	0.11334485
501.634	0.11321818
501.841	0.11306906
502.048	0.11292842
502.255	0.11274278
502.462	0.11266273
502.669	0.1125427
502.875	0.11243598
503.082	0.11230052
503.289	0.11214897
503.496	0.11199222
503.702	0.11188712
503.909	0.11168462
504.116	0.11163491
504.323	0.11154245
504.529	0.11150127
504.736	0.11141627
504.943	0.1113532
505.149	0.11128702
505.356	0.11121905
505.563	0.11113616
505.769	0.11109493
505.976	0.11098364
506.182	0.11090782
506.389	0.11085451
506.595	0.11076853
506.802	0.11077432
507.008	0.11064937
507.215	0.11057344
507.421	0.1104951
507.628	0.11042533
507.834	0.11031676
508.041	0.11019751
508.247	0.11001628
508.454	0.10993795
508.66	0.10982824
508.866	0.10973391
509.073	0.10963797
509.279	0.10962678
509.486	0.10966007
509.692	0.10967847
509.898	0.10966848
510.105	0.10966149
510.311	0.10966499
510.517	0.10967352
510.723	0.10963303
510.93	0.10952948
511.136	0.10949292
511.342	0.10943817
511.548	0.10938829
511.754	0.10930487
511.961	0.10923019
512.167	0.10918228
512.373	0.1091465
512.579	0.10913184
512.785	0.10915768
512.991	0.10911522
513.197	0.10911652
513.404	0.10909493
513.61	0.10909847
513.816	0.1091243
514.022	0.10909447
514.228	0.10901991
514.434	0.10901397
514.64	0.10901291
514.846	0.10901146
515.052	0.10899356
515.258	0.10896345
515.464	0.10892259
515.669	0.10894515
515.875	0.10897078
516.081	0.10901343
516.287	0.10901912
516.493	0.1090733
516.699	0.10909379
516.905	0.10914809
517.111	0.10918287
517.316	0.10919626
517.522	0.10916162
517.728	0.10919297
517.934	0.10914591
518.139	0.10913678
518.345	0.10917794
518.551	0.10922402
518.757	0.10926623
518.962	0.10927919
519.168	0.10929185
519.374	0.10932259
519.579	0.10937274
519.785	0.10937005
519.991	0.10938635
520.196	0.10940323
520.402	0.10947841
520.607	0.10958283
520.813	0.10964303
521.018	0.10969548
521.224	0.10974464
521.429	0.10980801
521.635	0.10982192
521.84	0.10985912
522.046	0.10987734
522.251	0.10994765
522.457	0.10994836
522.662	0.11002949
522.868	0.11002536
523.073	0.11011243
523.279	0.11018194
523.484	0.1102391
523.689	0.11032318
523.895	0.1104252
524.1	0.11044799
524.305	0.11053827
524.511	0.11060282
524.716	0.11060857
524.921	0.11069389
525.126	0.11068303
525.332	0.11080421
525.537	0.11089792
525.742	0.11095676
525.947	0.11105969
526.153	0.11113752
526.358	0.11114588
526.563	0.11121028
526.768	0.11124044
526.973	0.11132844
527.178	0.11141476
527.383	0.11140961
527.588	0.11151275
527.794	0.11157439
527.999	0.11170682
528.204	0.11174634
528.409	0.11181247
528.614	0.11185653
528.819	0.11197773
529.024	0.11200796
529.229	0.11212083
529.434	0.112173
529.639	0.11227674
529.843	0.112333
530.048	0.11241055
530.253	0.11248631
530.458	0.11260634
530.663	0.11268313
530.868	0.11276239
531.073	0.11285041
531.278	0.11293531
531.482	0.11304257
531.687	0.11312057
531.892	0.11319864
532.097	0.11324465
532.302	0.11337224
532.506	0.11347979
532.711	0.1135538
532.916	0.1136868
533.12	0.11382203
533.325	0.11394114
533.53	0.11405532
533.734	0.11414724
533.939	0.1142254
534.144	0.11436926
534.348	0.11443234
534.553	0.11452023
534.757	0.11463519
534.962	0.11476371
535.167	0.1148618
535.371	0.11496596
535.576	0.11503338
535.78	0.11515751
535.985	0.11524967
536.189	0.11534412
536.394	0.11548265
536.598	0.11557456
536.803	0.11565061
537.007	0.11577845
537.211	0.11587212
537.416	0.11594131
537.62	0.11601733
537.825	0.11610055
538.029	0.11624949
538.233	0.11638013
538.438	0.1165128
538.642	0.11663763
538.846	0.11671715
539.05	0.11680871
539.255	0.11689857
539.459	0.11695779
539.663	0.1170545
539.867	0.11710524
540.072	0.11719196
540.276	0.11732458
540.48	0.11748391
540.684	0.11763236
540.888	0.11777668
541.092	0.11788136
541.297	0.11802914
541.501	0.11814513
541.705	0.11826249
541.909	0.11831188
542.113	0.11838924
542.317	0.11847496
542.521	0.11862296
542.725	0.11875311
542.929	0.11881352
543.133	0.11895947
543.337	0.11909591
543.541	0.11919068
543.745	0.11928699
543.949	0.11939993
544.153	0.11942212
544.357	0.11949851
544.56	0.11960426
544.764	0.11972473
544.968	0.11978259
545.172	0.11987759
545.376	0.1199268
545.58	0.12008956
545.783	0.12026208
545.987	0.12034773
546.191	0.1204407
546.395	0.12060229
546.598	0.12072416
546.802	0.12086146
547.006	0.12093729
547.21	0.12100668
547.413	0.12113752
547.617	0.12128496
547.821	0.12139353
548.024	0.12148766
548.228	0.12156826
548.431	0.12169228
548.635	0.12187217
548.839	0.12195707
549.042	0.12203427
549.246	0.1221229
549.449	0.12223207
549.653	0.12234354
549.856	0.12246489
550.06	0.12254164
550.263	0.1226348
550.467	0.12276147
550.67	0.12292968
550.874	0.12299517
551.077	0.12309186
551.28	0.12318569
551.484	0.12326362
551.687	0.12335885
551.891	0.12347698
552.094	0.12352668
552.297	0.12367692
552.501	0.12380266
552.704	0.12390002
552.907	0.1239838
553.11	0.1240633
553.314	0.12411436
553.517	0.12419193
553.72	0.12427243
553.923	0.12438601
554.127	0.12441499
554.33	0.12449269
554.533	0.12463099
554.736	0.12470303
554.939	0.12477365
555.142	0.12487787
555.345	0.1249474
555.549	0.1250864
555.752	0.12519525
555.955	0.12524563
556.158	0.12538531
556.361	0.12548064
556.564	0.12555545
556.767	0.12562351
556.97	0.1257419
557.173	0.12584772
557.376	0.12597248
557.579	0.12603277
557.782	0.12613265
557.984	0.12617647
558.187	0.12628568
558.39	0.12634076
558.593	0.12640826
558.796	0.12641639
558.999	0.12647099
559.202	0.12656652
559.404	0.1266396
559.607	0.12667954
559.81	0.12672849
560.013	0.12675701
560.216	0.12685282
560.418	0.12691133
560.621	0.12693761
560.824	0.12701548
561.026	0.12712919
561.229	0.12717851
561.432	0.12729732
561.634	0.12732741
561.837	0.12743888
562.04	0.1275229
562.242	0.12765471
562.445	0.1276834
562.647	0.12770538
562.85	0.12771708
563.053	0.12781312
563.255	0.12783452
563.458	0.12792205
563.66	0.12790994
563.863	0.12798541
564.065	0.1280168
564.268	0.12812664
564.47	0.12822982
564.672	0.12826663
564.875	0.1282586
565.077	0.12831315
565.28	0.12835258
565.482	0.12847521
565.684	0.12845964
565.887	0.1284159
566.089	0.12842251
566.291	0.12848141
566.494	0.12848105
566.696	0.12848667
566.898	0.12847904
567.1	0.12851263
567.303	0.12860243
567.505	0.12867762
567.707	0.12874118
567.909	0.12880678
568.111	0.12884591
568.314	0.12890342
568.516	0.12896503
568.718	0.12895836
568.92	0.12897777
569.122	0.12893156
569.324	0.12899156
569.526	0.12901605
569.728	0.12905387
569.93	0.12904369
570.132	0.12906249
570.334	0.12910975
570.536	0.12914422
570.738	0.12909622
570.94	0.12905968
571.142	0.1290958
571.344	0.1291175
571.546	0.12911088
571.748	0.12909556
571.95	0.12909153
572.152	0.1291049
572.354	0.1291688
572.555	0.12913905
572.757	0.12912792
572.959	0.12914759
573.161	0.12912168
573.363	0.12911468
573.564	0.12918254
573.766	0.12914414
573.968	0.12916443
574.17	0.12915456
574.371	0.1291095
574.573	0.12910669
574.775	0.12913898
574.976	0.12903963
575.178	0.12908598
575.38	0.12901169
575.581	0.12900153
575.783	0.12902288
575.985	0.12902461
576.186	0.12897861
576.388	0.12903327
576.589	0.12895858
576.791	0.12901582
576.992	0.12902697
577.194	0.12900485
577.395	0.12902289
577.597	0.12908707
577.798	0.12902907
578	0.12903448
578.201	0.12904399
578.402	0.12900082
578.604	0.12893455
578.805	0.12887277
579.007	0.12876842
579.208	0.12875379
579.409	0.12866396
579.611	0.12862073
579.812	0.12858976
580.013	0.12863936
580.215	0.12862114
580.416	0.12863102
580.617	0.12854785
580.818	0.12857144
581.019	0.12847057
581.221	0.12843315
581.422	0.12839152
581.623	0.12835876
581.824	0.12826556
582.025	0.12827233
582.226	0.1282227
582.428	0.12823765
582.629	0.12819974
582.83	0.1281429
583.031	0.12803861
583.232	0.12799816
583.433	0.12799338
583.634	0.12796614
583.835	0.12787404
584.036	0.12784136
584.237	0.12777724
584.438	0.12776094
584.639	0.1277315
584.84	0.12767961
585.041	0.12759645
585.242	0.127552
585.442	0.1274951
585.643	0.12749471
585.844	0.12751456
586.045	0.12747084
586.246	0.12733271
586.447	0.1273377
586.647	0.12730536
586.848	0.12726242
587.049	0.12717607
587.25	0.12703667
587.45	0.12694938
587.651	0.12694405
587.852	0.12686015
588.053	0.12685993
588.253	0.12684689
588.454	0.12680434
588.655	0.12678941
588.855	0.1267474
589.056	0.12670647
589.256	0.12665687
589.457	0.12656257
589.658	0.12646296
589.858	0.12637571
590.059	0.12630712
590.259	0.12630456
590.46	0.12624913
590.66	0.12618936
590.861	0.126169
591.061	0.12610895
591.262	0.12611829
591.462	0.12608004
591.662	0.12597859
591.863	0.12591166
592.063	0.125868
592.264	0.12580902
592.464	0.12579736
592.664	0.12569539
592.865	0.12566492
593.065	0.1255629
593.265	0.12555026
593.465	0.12545508
593.666	0.1254009
593.866	0.12527894
594.066	0.1252569
594.266	0.12510018
594.467	0.12508096
594.667	0.124941
594.867	0.12497022
595.067	0.12484314
595.267	0.12476893
595.467	0.12461781
595.668	0.12457012
595.868	0.12450137
596.068	0.12443942
596.268	0.12424227
596.468	0.12421728
596.668	0.12414571
596.868	0.12409839
597.068	0.12404506
597.268	0.12396971
597.468	0.1238561
597.668	0.12384069
597.868	0.12372185
598.068	0.12367052
598.268	0.12362161
598.467	0.12361379
598.667	0.12348578
598.867	0.12342903
599.067	0.12333538
599.267	0.12324461
599.467	0.12314797
599.667	0.1230513
599.866	0.12289972
600.066	0.12285189
600.266	0.12279574
600.466	0.12273669
600.665	0.12265827
600.865	0.1226029
601.065	0.12254817
601.264	0.12249441
601.464	0.12241514
601.664	0.12236878
601.863	0.12227625
602.063	0.12224888
602.263	0.12208983
602.462	0.12205574
602.662	0.12197441
602.861	0.12195838
603.061	0.12187798
603.26	0.12184696
603.46	0.12175919
603.659	0.12179836
603.859	0.12164122
604.058	0.12156508
604.258	0.12155134
604.457	0.12153636
604.657	0.12137878
604.856	0.1212648
605.056	0.1212223
605.255	0.12121164
605.454	0.12119817
605.654	0.12102154
605.853	0.120949
606.052	0.12093738
606.252	0.12091707
606.451	0.12077338
606.65	0.12069027
606.849	0.12056308
607.049	0.12051534
607.248	0.12039351
607.447	0.12030355
607.646	0.1202473
607.845	0.12025518
608.045	0.12013536
608.244	0.12014192
608.443	0.12003511
608.642	0.1200289
608.841	0.11998088
609.04	0.11986427
609.239	0.11978093
609.438	0.11971364
609.637	0.11968003
609.836	0.11968723
610.035	0.11960794
610.234	0.11958901
610.433	0.11960282
610.632	0.1195183
610.831	0.1195773
611.03	0.11943719
611.229	0.1194401
611.428	0.11941793
611.627	0.11935631
611.826	0.11931883
612.025	0.11939003
612.224	0.11929862
612.422	0.11928815
612.621	0.11923339
612.82	0.11923824
613.019	0.11922689
613.218	0.11925084
613.416	0.11913203
613.615	0.11914705
613.814	0.1191682
614.012	0.11915616
614.211	0.11904089
614.41	0.11904275
614.608	0.11897614
614.807	0.11894182
615.006	0.11896034
615.204	0.11892784
615.403	0.11896216
615.602	0.11903687
615.8	0.11910935
615.999	0.11906753
616.197	0.11902259
616.396	0.11904839
616.594	0.11899125
616.793	0.11896357
616.991	0.11893991
617.19	0.11876689
617.388	0.11884666
617.586	0.11890425
617.785	0.11879719
617.983	0.11884859
618.182	0.1187398
618.38	0.11864239
618.578	0.11865215
618.777	0.11859577
618.975	0.11859607
619.173	0.11863508
619.372	0.11859047
619.57	0.11856736
619.768	0.1185937
619.966	0.11861535
620.165	0.11855428
620.363	0.11860329
620.561	0.11847962
620.759	0.11849579
620.957	0.11857677
621.155	0.11863916
621.354	0.11857313
621.552	0.11868181
621.75	0.11856895
621.948	0.11869395
622.146	0.11870367
622.344	0.11869007
622.542	0.11868872
622.74	0.1187619
622.938	0.11865382
623.136	0.11875047
623.334	0.1187986
623.532	0.11874094
623.73	0.11872602
623.928	0.11875278
624.126	0.11878428
624.324	0.1189435
624.522	0.11886009
624.719	0.11879592
624.917	0.11888075
625.115	0.11886288
625.313	0.11890498
625.511	0.1189607
625.708	0.11880184
625.906	0.11882881
626.104	0.11885003
626.302	0.11896873
626.499	0.11907916
626.697	0.11904685
626.895	0.11895947
627.093	0.11908177
627.29	0.1192046
627.488	0.11926556
627.686	0.11921614
627.883	0.11916238
628.081	0.11915109
628.278	0.11936643
628.476	0.11936388
628.673	0.11937338
628.871	0.11938576
629.068	0.11941281
629.266	0.11948541
629.463	0.11943766
629.661	0.11938588
629.858	0.1193945
630.056	0.11942621
630.253	0.11940173
630.451	0.11945385
630.648	0.11945965
630.845	0.11956239
631.043	0.11959157
631.24	0.11970217
631.438	0.11974302
631.635	0.11981767
631.832	0.11976924
632.029	0.11984794
632.227	0.11997788
632.424	0.12004677
632.621	0.1200175
632.818	0.11998185
633.016	0.12005442
633.213	0.12012635
633.41	0.12023467
633.607	0.12018301
633.804	0.12018084
634.001	0.1202005
634.199	0.12037456
634.396	0.12039243
634.593	0.12038659
634.79	0.1204123
634.987	0.12055754
635.184	0.12060491
635.381	0.12073561
635.578	0.12078154
635.775	0.12084007
635.972	0.12092949
636.169	0.12098503
636.366	0.12093527
636.563	0.12098879
636.76	0.12093578
636.957	0.12094488
637.153	0.12089953
637.35	0.12101526
637.547	0.12101182
637.744	0.12109617
637.941	0.12116036
638.138	0.12131983
638.334	0.12132104
638.531	0.12145614
638.728	0.12147191
638.925	0.12161431
639.121	0.121621
639.318	0.12165392
639.515	0.12163437
639.711	0.12172419
639.908	0.12172335
640.105	0.12182509
640.301	0.1217888
640.498	0.12187033
640.695	0.1219396
640.891	0.12200629
641.088	0.12206354
641.284	0.12217839
641.481	0.1221543
641.677	0.12219858
641.874	0.12222994
642.07	0.1223573
642.267	0.12249952
642.463	0.12258205
642.66	0.12269201
642.856	0.12273465
643.053	0.12276105
643.249	0.12283889
643.445	0.12280002
643.642	0.122807
643.838	0.12285653
644.034	0.12289224
644.231	0.12294557
644.427	0.12310291
644.623	0.12317361
644.82	0.12327672
645.016	0.12331586
645.212	0.12326949
645.408	0.12328338
645.604	0.12344571
645.801	0.12345774
645.997	0.12353061
646.193	0.12353057
646.389	0.1236912
646.585	0.12381289
646.781	0.12395222
646.977	0.12396754
647.173	0.12401811
647.37	0.12400487
647.566	0.12408952
647.762	0.12403954
647.958	0.12415952
648.154	0.12414038
648.35	0.12420461
648.546	0.12425484
648.742	0.12444919
648.937	0.12440379
649.133	0.12455194
649.329	0.12464374
649.525	0.1247163
649.721	0.12477248
649.917	0.1249428
650.113	0.12490821
650.309	0.12515127
650.504	0.12513766
650.7	0.12513784
650.896	0.12525357
651.092	0.12529224
651.287	0.12523328
651.483	0.125405
651.679	0.12538629
651.875	0.12551991
652.07	0.12557914
652.266	0.12556308
652.462	0.12562566
652.657	0.12573739
652.853	0.12571087
653.048	0.12576957
653.244	0.12571094
653.44	0.1257239
653.635	0.12576182
653.831	0.12588558
654.026	0.12598544
654.222	0.12606387
654.417	0.1261819
654.613	0.12626053
654.808	0.12633728
655.004	0.12650054
655.199	0.12647012
655.394	0.12647917
655.59	0.12658197
655.785	0.12656972
655.98	0.12668969
656.176	0.12669368
656.371	0.12677174
656.566	0.12687841
656.762	0.12685706
656.957	0.12687068
657.152	0.12691433
657.348	0.12694225
657.543	0.12703562
657.738	0.12706904
657.933	0.12707108
658.128	0.12716041
658.324	0.12713794
658.519	0.1272313
658.714	0.12729414
658.909	0.12729665
659.104	0.1273445
659.299	0.12742294
659.494	0.12747861
659.689	0.12758597
659.884	0.12760669
660.079	0.12761767
660.274	0.12773179
660.469	0.12777105
660.664	0.12785452
660.859	0.12788125
661.054	0.12793462
661.249	0.12797736
661.444	0.12803867
661.639	0.12801333
661.834	0.12799534
662.029	0.12799786
662.224	0.12807269
662.418	0.128159
662.613	0.12821728
662.808	0.12823507
663.003	0.12831772
663.198	0.1283473
663.392	0.12835359
663.587	0.12849792
663.782	0.12848347
663.977	0.12849789
664.171	0.12858113
664.366	0.12863804
664.561	0.12870389
664.755	0.12882439
664.95	0.1287458
665.144	0.1287751
665.339	0.12889125
665.534	0.12893237
665.728	0.12902693
665.923	0.12909162
666.117	0.12907585
666.312	0.12910808
666.506	0.12920055
666.701	0.12914727
666.895	0.12911233
667.09	0.12911121
667.284	0.12917027
667.479	0.12920612
667.673	0.12924646
667.867	0.12927996
668.062	0.12929551
668.256	0.12939235
668.45	0.12944931
668.645	0.12944687
668.839	0.12949978
669.033	0.12958424
669.228	0.12960358
669.422	0.12973255
669.616	0.12973638
669.81	0.12977334
670.004	0.12976729
670.199	0.12982035
670.393	0.12981151
670.587	0.12980933
670.781	0.12978195
670.975	0.12985383
671.169	0.12983848
671.363	0.12992065
671.558	0.1299656
671.752	0.13003194
671.946	0.13013481
672.14	0.13021901
672.334	0.13016596
672.528	0.13027866
672.722	0.13020126
672.916	0.13018911
673.11	0.1301009
673.304	0.13011423
673.497	0.13001472
673.691	0.13007424
673.885	0.12994434
674.079	0.13005555
674.273	0.13003141
674.467	0.1301244
674.661	0.13010026
674.854	0.13017894
675.048	0.13022196
675.242	0.13029779
675.436	0.13027676
675.629	0.13031825
675.823	0.13028917
676.017	0.13030436
676.211	0.1303235
676.404	0.13036634
676.598	0.13041535
676.792	0.13047471
676.985	0.13054234
677.179	0.13061558
677.372	0.13061095
677.566	0.13070646
677.76	0.13071872
677.953	0.13072905
678.147	0.1307309
678.34	0.13076217
678.534	0.13071069
678.727	0.1307888
678.921	0.13080783
679.114	0.13072862
679.307	0.13078872
679.501	0.13082935
679.694	0.13080072
679.888	0.13086207
680.081	0.13090023
680.274	0.13080356
680.468	0.13091747
680.661	0.13092972
680.854	0.13106253
681.048	0.13112531
681.241	0.13115016
681.434	0.13110175
681.627	0.13124774
681.821	0.13126612
682.014	0.13131807
682.207	0.13119931
682.4	0.1311697
682.593	0.13120541
682.786	0.13121828
682.98	0.13115635
683.173	0.13117185
683.366	0.13117287
683.559	0.13115599
683.752	0.13124635
683.945	0.13130737
684.138	0.13137232
684.331	0.13135762
684.524	0.13142113
684.717	0.13135354
684.91	0.13146528
685.103	0.13143778
685.296	0.13146063
685.489	0.13144164
685.682	0.13144644
685.874	0.13142837
686.067	0.13141994
686.26	0.1313648
686.453	0.13132025
686.646	0.13122701
686.839	0.13121668
687.031	0.13125844
687.224	0.13116436
687.417	0.13125395
687.61	0.13123568
687.802	0.13123219
687.995	0.13130187
688.188	0.13136177
688.38	0.13135742
688.573	0.13144706
688.766	0.13138421
688.958	0.13135214
689.151	0.13134354
689.343	0.13130049
689.536	0.13127293
689.729	0.13123489
689.921	0.13123147
690.114	0.13122098
690.306	0.13123169
690.499	0.13125768
690.691	0.13126235
690.884	0.13123183
691.076	0.13130354
691.268	0.1312586
691.461	0.13121253
691.653	0.13121931
691.846	0.13124253
692.038	0.13122703
692.23	0.13118424
692.423	0.13111999
692.615	0.13110654
692.807	0.13107526
692.999	0.13109504
693.192	0.1310113
693.384	0.1310289
693.576	0.13099834
693.768	0.13100649
693.961	0.13096171
694.153	0.13104742
694.345	0.13102353
694.537	0.1310665
694.729	0.13101733
694.921	0.13103037
695.113	0.1310476
695.305	0.1310607
695.498	0.13101459
695.69	0.13103802
695.882	0.13099457
696.074	0.13100778
696.266	0.13102756
696.458	0.1309543
696.65	0.13095133
696.842	0.13093462
697.033	0.13084217
697.225	0.13079301
697.417	0.13084714
697.609	0.13081663
697.801	0.13085526
697.993	0.13088126
698.185	0.13086062
698.376	0.13091857
698.568	0.13093711
698.76	0.13084892
698.952	0.1308016
699.144	0.13075603
699.335	0.13070378
699.527	0.13070206
699.719	0.13063447
699.91	0.1306683
700.102	0.13061231
700.294	0.13067297
700.485	0.13072428
700.677	0.13068259
700.869	0.13066787
701.06	0.13075729
701.252	0.13067188
701.443	0.13072279
701.635	0.13066883
701.826	0.13065076
702.018	0.13068638
702.209	0.13072586
702.401	0.13062399
702.592	0.13072678
702.784	0.13070637
702.975	0.13071616
703.166	0.13067955
703.358	0.13062152
703.549	0.13058289
703.741	0.13060482
703.932	0.13052561
704.123	0.13048928
704.315	0.13049289
704.506	0.13051089
704.697	0.13055381
704.888	0.13057533
705.08	0.13057733
705.271	0.13057676
705.462	0.13055113
705.653	0.13054147
705.844	0.13049125
706.035	0.13048408
706.227	0.13044307
706.418	0.13040765
706.609	0.13042975
706.8	0.13047851
706.991	0.130435
707.182	0.13043076
707.373	0.1303332
707.564	0.13034372
707.755	0.13026208
707.946	0.13025482
708.137	0.13020921
708.328	0.13018494
708.519	0.13015095
708.71	0.1302016
708.901	0.13011446
709.092	0.13022614
709.283	0.13016942
709.473	0.13018126
709.664	0.13025225
709.855	0.13019348
710.046	0.13022497
710.237	0.13026363
710.427	0.13020909
710.618	0.1302018
710.809	0.13013403
711	0.13002181
711.19	0.13002313
711.381	0.13000743
711.572	0.13000342
711.762	0.13001818
711.953	0.13001229
712.144	0.13003416
712.334	0.13005362
712.525	0.13011951
712.715	0.13007263
712.906	0.13006583
713.097	0.12999686
713.287	0.12997043
713.478	0.12999099
713.668	0.13002428
713.859	0.12994781
714.049	0.1299548
714.239	0.12993911
714.43	0.12995889
714.62	0.13000711
714.811	0.12996571
715.001	0.12997772
715.191	0.13004461
715.382	0.13003327
715.572	0.13007837
715.762	0.13011573
715.953	0.1301228
716.143	0.1301619
716.333	0.13010591
716.523	0.13008416
716.714	0.13013352
716.904	0.13008003
717.094	0.13010926
717.284	0.13005666
717.474	0.13004158
717.664	0.13008581
717.855	0.13008424
718.045	0.13007836
718.235	0.13009686
718.425	0.13007937
718.615	0.13007738
718.805	0.13013301
718.995	0.13012665
719.185	0.13015549
719.375	0.13015753
719.565	0.13023485
719.755	0.13024136
719.945	0.13028803
720.135	0.1303292
720.325	0.13036711
720.515	0.13042533
720.704	0.13046907
720.894	0.13042879
721.084	0.1304136
721.274	0.13046486
721.464	0.13043704
721.654	0.13042183
721.843	0.13039234
722.033	0.13039994
722.223	0.13044129
722.413	0.13051704
722.602	0.13055515
722.792	0.13061282
722.982	0.13064997
723.171	0.1306774
723.361	0.13065709
723.55	0.1306779
723.74	0.13064015
723.93	0.13057842
724.119	0.13054979
724.309	0.1305594
724.498	0.1305957
724.688	0.13065203
724.877	0.13068492
725.067	0.13071278
725.256	0.1307531
725.446	0.13074956
725.635	0.13075315
725.825	0.13067083
726.014	0.13063401
726.203	0.13055666
726.393	0.13050138
726.582	0.13044345
726.771	0.13046679
726.961	0.13042557
727.15	0.13040763
727.339	0.13033125
727.529	0.13030418
727.718	0.13032472
727.907	0.13032566
728.096	0.13024689
728.286	0.13022047
728.475	0.13027689
728.664	0.13032338
728.853	0.13035773
729.042	0.13032196
729.231	0.1303227
729.42	0.13037236
729.609	0.13040013
729.799	0.13033309
729.988	0.13032182
730.177	0.13033448
730.366	0.1303739
730.555	0.13034584
730.744	0.1303073
730.933	0.13029349
731.122	0.13032235
731.31	0.13032608
731.499	0.13025774
731.688	0.13019473
731.877	0.13022139
732.066	0.13018988
732.255	0.13015275
732.444	0.13015548
732.632	0.13008336
732.821	0.13005694
733.01	0.13005639
733.199	0.13003571
733.388	0.13000512
733.576	0.12997145
733.765	0.12996466
733.954	0.1299585
734.142	0.12992328
734.331	0.12999216
734.52	0.13000351
734.708	0.12999969
734.897	0.13003094
735.086	0.12998653
735.274	0.12998434
735.463	0.13004032
735.651	0.12998172
735.84	0.12993671
736.028	0.12997265
736.217	0.12996949
736.405	0.12994503
736.594	0.12997472
736.782	0.12997163
736.971	0.1299244
737.159	0.12988004
737.347	0.12987696
737.536	0.1298921
737.724	0.12989623
737.912	0.12990114
738.101	0.12985079
738.289	0.12989689
738.477	0.12997008
738.666	0.12992799
738.854	0.12989681
739.042	0.12989238
739.23	0.12989835
739.418	0.12991047
739.607	0.12992808
739.795	0.12993121
739.983	0.13004229
740.171	0.13011382
740.359	0.13016619
740.547	0.13017129
740.735	0.13024558
740.923	0.13025048
741.112	0.13027428
741.3	0.13018472
741.488	0.13013158
741.676	0.13013947
741.864	0.13013054
742.052	0.13019654
742.239	0.13017735
742.427	0.13016091
742.615	0.1301996
742.803	0.13021165
742.991	0.13020227
743.179	0.1302545
743.367	0.13017756
743.555	0.1302096
743.742	0.13022453
743.93	0.13023572
744.118	0.1302563
744.306	0.13028509
744.494	0.1302915
744.681	0.13032828
744.869	0.13036318
745.057	0.13032426
745.244	0.13035092
745.432	0.13039903
745.62	0.1303838
745.807	0.13039662
745.995	0.13036099
746.182	0.13036661
746.37	0.13039385
746.558	0.13037006
746.745	0.13032669
746.933	0.13037424
747.12	0.13035476
747.308	0.13041459
747.495	0.13043861
747.683	0.13052264
747.87	0.13057621
748.057	0.13066273
748.245	0.13064267
748.432	0.13072278
748.62	0.13069557
748.807	0.13065396
748.994	0.13063644
749.182	0.13059697
749.369	0.13053412
749.556	0.13053611
749.743	0.13051489
749.931	0.13055883
750.118	0.1306132
750.305	0.1306617
750.492	0.13069646
750.68	0.13076545
750.867	0.13074727
751.054	0.13070891
751.241	0.13063621
751.428	0.13061172
751.615	0.13058916
751.802	0.13060936
751.989	0.13063444
752.176	0.1307525
752.363	0.13081895
752.55	0.13094614
752.737	0.13094049
752.924	0.13095077
753.111	0.13097043
753.298	0.13100493
753.485	0.1310074
753.672	0.13099034
753.859	0.13102749
754.046	0.13109079
754.233	0.13112209
754.42	0.13117884
754.606	0.1311816
754.793	0.13119387
754.98	0.131233
755.167	0.13121058
755.353	0.13126172
755.54	0.13130182
755.727	0.13127974
755.914	0.13129803
756.1	0.13130347
756.287	0.13137704
756.474	0.13140375
756.66	0.13140648
756.847	0.13139451
757.033	0.13142046
757.22	0.13139687
757.407	0.13145798
757.593	0.13143299
757.78	0.13146147
757.966	0.13153287
758.153	0.13160824
758.339	0.13163989
758.526	0.13164603
758.712	0.13163335
758.898	0.13167421
759.085	0.13166086
759.271	0.13161518
759.458	0.13166892
759.644	0.13175262
759.83	0.13184248
760.017	0.13193588
760.203	0.13194044
760.389	0.13200687
760.576	0.13206999
760.762	0.13205904
760.948	0.132095
761.134	0.1321657
761.32	0.13214843
761.507	0.1321769
761.693	0.13220585
761.879	0.13227766
762.065	0.13230553
762.251	0.13230798
762.437	0.13229999
762.623	0.13230652
762.809	0.13232426
762.995	0.13231426
763.181	0.13232001
763.367	0.13230879
763.553	0.13227579
763.739	0.13229242
763.925	0.13233339
764.111	0.13241086
764.297	0.13251275
764.483	0.13251708
764.669	0.13255137
764.855	0.13262281
765.041	0.13259272
765.227	0.13262806
765.412	0.13268266
765.598	0.13270138
765.784	0.13274039
765.97	0.13278273
766.156	0.13278012
766.341	0.13283276
766.527	0.1328046
766.713	0.1327363
766.898	0.13273795
767.084	0.13277169
767.27	0.13278536
767.455	0.13285951
767.641	0.13294206
767.827	0.13305064
768.012	0.1331581
768.198	0.13322393
768.383	0.13319723
768.569	0.13324188
768.754	0.13324965
768.94	0.13325661
769.125	0.13324985
769.311	0.13318581
769.496	0.13315552
769.682	0.13323282
769.867	0.13322559
770.052	0.13323487
770.238	0.13325546
770.423	0.13327513
770.608	0.13332982
770.794	0.13337378
770.979	0.13334831
771.164	0.13339032
771.35	0.13342744
771.535	0.13342943
771.72	0.13342512
771.905	0.13349337
772.09	0.13345383
772.276	0.1335013
772.461	0.13349157
772.646	0.13350633
772.831	0.13355602
773.016	0.13361037
773.201	0.1336459
773.386	0.1337082
773.571	0.13366889
773.756	0.13369902
773.941	0.13368381
774.126	0.13368389
774.311	0.13374095
774.496	0.1337689
774.681	0.13383732
774.866	0.13392593
775.051	0.13398971
775.236	0.13409327
775.421	0.13409261
775.606	0.13406071
775.791	0.13402244
775.976	0.13403781
776.16	0.13407289
776.345	0.13412276
776.53	0.13417436
776.715	0.13427052
776.899	0.13433621
777.084	0.13441432
777.269	0.13445434
777.454	0.13446468
777.638	0.1344357
777.823	0.13447006
778.008	0.13445124
778.192	0.1344549
778.377	0.13439435
778.561	0.1343807
778.746	0.13440781
778.931	0.1344851
779.115	0.13445904
779.3	0.13448729
779.484	0.13451665
779.669	0.13459072
779.853	0.13460607
780.037	0.13462938
780.222	0.13462867
780.406	0.1346547
780.591	0.13469667
780.775	0.13472768
780.959	0.13476624
781.144	0.13475179
781.328	0.13474844
781.512	0.13474865
781.697	0.13472541
781.881	0.13469244
782.065	0.13476232
782.249	0.13473608
782.434	0.13478749
782.618	0.1348514
782.802	0.13483711
782.986	0.13489688
783.17	0.13495414
783.354	0.13494277
783.539	0.13502036
783.723	0.13500725
783.907	0.13494872
784.091	0.13495088
784.275	0.13489598
784.459	0.13490061
784.643	0.13485373
784.827	0.13484265
785.011	0.13483997
785.195	0.13489912
785.379	0.13500344
785.563	0.13507667
785.747	0.13509811
785.93	0.13517806
786.114	0.13515131
786.298	0.13519634
786.482	0.13520054
786.666	0.13520435
786.85	0.13518864
787.033	0.13521455
787.217	0.13513301
787.401	0.13514786
787.585	0.13515885
787.768	0.13518364
787.952	0.13511493
788.136	0.13509392
788.319	0.13508082
788.503	0.13509904
788.687	0.13512884
788.87	0.13516085
789.054	0.13515334
789.237	0.13519768
789.421	0.13522996
789.605	0.13520683
789.788	0.13522989
789.972	0.13522778
790.155	0.13524842
790.338	0.13521557
790.522	0.13518022
790.705	0.13519546
790.889	0.13528054
791.072	0.13528188
791.256	0.13533185
791.439	0.13536151
791.622	0.13544259
791.806	0.13549298
791.989	0.13551977
792.172	0.13552455
792.355	0.13559889
792.539	0.13561713
792.722	0.13561016
792.905	0.13562915
793.088	0.13561113
793.271	0.1356212
793.455	0.13563464
793.638	0.13561491
793.821	0.13558508
794.004	0.13558452
794.187	0.1355799
794.37	0.13565489
794.553	0.13565621
794.736	0.13570977
794.919	0.13572914
795.102	0.13578056
795.285	0.13582593
795.468	0.13586769
795.651	0.1358509
795.834	0.135906
796.017	0.1358579
796.2	0.13589957
796.383	0.13591071
796.566	0.13588521
796.749	0.1358481
796.931	0.13588491
797.114	0.13584254
797.297	0.13579396
797.48	0.13576326
797.663	0.13575181
797.845	0.13577519
798.028	0.13580754
798.211	0.13584329
798.393	0.1358951
798.576	0.13597679
798.759	0.13599476
798.941	0.13596823
799.124	0.13597
799.307	0.13599967
799.489	0.13601961
799.672	0.13598278
799.854	0.13596271
800.037	0.13597305
800.219	0.13601014
800.402	0.1360848
800.584	0.13607905
800.767	0.13604648
800.949	0.13614929
801.132	0.13618709
801.314	0.13629083
801.496	0.13636693
801.679	0.13628199
801.861	0.13630878
802.043	0.13628825
802.226	0.13623741
802.408	0.13624482
802.59	0.13618717
802.772	0.13616606
802.955	0.13621437
803.137	0.13619221
803.319	0.13625061
803.501	0.13623843
803.684	0.13625876
803.866	0.1363086
804.048	0.13630409
804.23	0.13631777
804.412	0.13634782
804.594	0.1363364
804.776	0.13634056
804.958	0.13634914
805.14	0.13626362
805.322	0.13628849
805.504	0.1363039
805.686	0.1362795
805.868	0.13631387
806.05	0.13627245
806.232	0.13622643
806.414	0.13625423
806.596	0.13622606
806.778	0.1361668
806.96	0.13615772
807.141	0.13610763
807.323	0.13617066
807.505	0.13617118
807.687	0.1362075
807.869	0.13622355
808.05	0.13627313
808.232	0.13633763
808.414	0.13641125
808.595	0.13642219
808.777	0.13648241
808.959	0.13643052
809.14	0.13642529
809.322	0.13647607
809.504	0.13642753
809.685	0.13643225
809.867	0.13644916
810.048	0.13645432
810.23	0.13648083
810.411	0.13650008
810.593	0.13643932
810.774	0.1364109
810.956	0.13630357
811.137	0.13623133
811.319	0.13613375
811.5	0.13607002
811.681	0.13612432
811.863	0.13608098
812.044	0.13608012
812.225	0.13621716
812.407	0.13632308
812.588	0.13638929
812.769	0.13645453
812.951	0.13637295
813.132	0.1364323
813.313	0.13651592
813.494	0.13634132
813.675	0.13627269
813.857	0.13622793
814.038	0.13620989
814.219	0.13624319
814.4	0.13624395
814.581	0.13617556
814.762	0.13630761
814.943	0.1363702
815.124	0.13642911
815.305	0.13645922
815.486	0.13640739
815.667	0.13638443
815.848	0.13637363
816.029	0.13631901
816.21	0.13622178
816.391	0.13618213
816.572	0.13611564
816.753	0.13615516
816.934	0.13609189
817.115	0.13609711
817.295	0.13605718
817.476	0.13602045
817.657	0.1359772
817.838	0.13596628
818.019	0.13584926
818.199	0.13592977
818.38	0.13589162
818.561	0.13588657
818.741	0.13592258
818.922	0.13595535
819.103	0.13598557
819.283	0.13604191
819.464	0.13601212
819.645	0.13609092
819.825	0.13607784
820.006	0.13608134
820.186	0.13603355
820.367	0.13599611
820.547	0.13596668
820.728	0.13597184
820.908	0.13585676
821.089	0.13589836
821.269	0.13589453
821.45	0.13592827
821.63	0.1359354
821.81	0.13596819
821.991	0.13595235
822.171	0.13596764
822.351	0.13597798
822.532	0.13598541
822.712	0.13597064
822.892	0.13592427
823.072	0.13587156
823.253	0.1358614
823.433	0.13586558
823.613	0.13583183
823.793	0.13579104
823.973	0.13574222
824.154	0.13574265
824.334	0.13577491
824.514	0.13562815
824.694	0.13552798
824.874	0.13545569
825.054	0.13536762
825.234	0.13530232
825.414	0.13520929
825.594	0.13510497
825.774	0.13511605
825.954	0.13514115
826.134	0.13507642
826.314	0.1350535
826.494	0.13506535
826.674	0.13508216
826.854	0.13499267
827.033	0.13496694
827.213	0.13499553
827.393	0.13498923
827.573	0.13500731
827.753	0.13497988
827.932	0.13497244
828.112	0.13505651
828.292	0.13504791
828.472	0.13494181
828.651	0.13499633
828.831	0.13495187
829.011	0.13486582
829.19	0.13481809
829.37	0.13477651
829.549	0.13480572
829.729	0.13480644
829.909	0.13471184
830.088	0.13468486
830.268	0.13466268
830.447	0.13459678
830.627	0.13455902
830.806	0.13452703
830.986	0.13442464
831.165	0.13439408
831.344	0.13440663
831.524	0.13440299
831.703	0.13440027
831.883	0.13431986
832.062	0.13428672
832.241	0.13433894
832.421	0.13422877
832.6	0.13419995
832.779	0.1342257
832.958	0.13419507
833.138	0.13414439
833.317	0.13411803
833.496	0.13416413
833.675	0.13422745
833.854	0.1341928
834.034	0.13408326
834.213	0.13408497
834.392	0.13415876
834.571	0.13411417
834.75	0.13401387
834.929	0.13396573
835.108	0.13390234
835.287	0.13392916
835.466	0.13388434
835.645	0.1338793
835.824	0.13386427
836.003	0.13386662
836.182	0.13385995
836.361	0.13387081
836.54	0.13383735
836.719	0.13383296
836.897	0.13373217
837.076	0.13364124
837.255	0.13351097
837.434	0.13346855
837.613	0.13340665
837.791	0.13338047
837.97	0.13330551
838.149	0.13333289
838.328	0.1333301
838.506	0.13340528
838.685	0.13333355
838.864	0.13334387
839.042	0.13327181
839.221	0.13329768
839.4	0.13319879
839.578	0.13313408
839.757	0.13298395
839.935	0.13294712
840.114	0.13284081
840.292	0.13279663
840.471	0.13275052
840.649	0.13272225
840.828	0.13266758
841.006	0.13271837
841.185	0.13273261
841.363	0.13281921
841.541	0.1328295
841.72	0.13282318
841.898	0.13274386
842.076	0.13268202
842.255	0.13262359
842.433	0.13250632
842.611	0.1323218
842.789	0.13223753
842.968	0.13215691
843.146	0.13213501
843.324	0.13217157
843.502	0.13210505
843.68	0.13215811
843.859	0.13215997
844.037	0.13214658
844.215	0.13206056
844.393	0.13201636
844.571	0.13189207
844.749	0.13188705
844.927	0.13175283
845.105	0.13164405
845.283	0.13154499
845.461	0.13157061
845.639	0.13150182
845.817	0.13153416
845.995	0.13152298
846.173	0.13159637
846.351	0.13160524
846.529	0.13158233
846.706	0.13145291
846.884	0.13149514
847.062	0.13142146
847.24	0.13128991
847.418	0.13117519
847.595	0.13105477
847.773	0.13103637
847.951	0.13101735
848.129	0.13092762
848.306	0.1309202
848.484	0.13089447
848.662	0.13089228
848.839	0.13097741
849.017	0.13099014
849.194	0.13096656
849.372	0.13095436
849.549	0.1308305
849.727	0.13064676
849.905	0.13052059
850.082	0.13029158
850.26	0.1300644
850.437	0.12999265
850.614	0.12991958
850.792	0.12989367
850.969	0.13002157
851.147	0.13009448
851.324	0.13012554
851.501	0.13019944
851.679	0.13019468
851.856	0.13012874
852.033	0.13004395
852.211	0.12997777
852.388	0.12974079
852.565	0.12969349
852.742	0.12966079
852.92	0.12959575
853.097	0.1295303
853.274	0.12949201
853.451	0.12936313
853.628	0.12938556
853.805	0.12941016
853.982	0.12929232
854.159	0.12919216
854.336	0.12914278
854.514	0.12906965
854.691	0.12907766
854.868	0.12904054
855.045	0.1288672
855.221	0.12889175
855.398	0.1288517
855.575	0.12881256
855.752	0.12882029
855.929	0.12879799
856.106	0.12876328
856.283	0.12882351
856.46	0.12879261
856.637	0.12875859
856.813	0.12869271
856.99	0.12870008
857.167	0.12864968
857.344	0.12856995
857.52	0.12845881
857.697	0.12829417
857.874	0.12817113
858.05	0.12810198
858.227	0.12799164
858.404	0.12790995
858.58	0.12793769
858.757	0.12793044
858.933	0.12792712
859.11	0.12801185
859.287	0.12797327
859.463	0.12783668
859.64	0.12781437
859.816	0.12765819
859.993	0.12752425
860.169	0.12743777
860.345	0.12723747
860.522	0.12713543
860.698	0.127151
860.875	0.12706997
861.051	0.1270744
861.227	0.12712111
861.404	0.12719421
861.58	0.12727913
861.756	0.12731575
861.932	0.12731278
862.109	0.12725907
862.285	0.12715086
862.461	0.12711902
862.637	0.12696327
862.813	0.12679141
862.99	0.1266016
863.166	0.12648704
863.342	0.12644934
863.518	0.12642814
863.694	0.12632281
863.87	0.1263239
864.046	0.12633496
864.222	0.12652161
864.398	0.12661803
864.574	0.12656332
864.75	0.12654848
864.926	0.12656566
865.102	0.12651739
865.278	0.12643275
865.454	0.12619718
865.63	0.12591963
865.805	0.12580121
865.981	0.12569393
866.157	0.12562434
866.333	0.12545607
866.509	0.12549346
866.684	0.12553383
866.86	0.12565309
867.036	0.12566991
867.212	0.12569858
867.387	0.12549594
867.563	0.12554251
867.739	0.12541708
867.914	0.12530636
868.09	0.12509124
868.265	0.124946
868.441	0.12482763
868.617	0.12485621
868.792	0.12476215
868.968	0.12473623
869.143	0.12474996
869.319	0.12484532
869.494	0.12482381
869.67	0.12477165
869.845	0.12469935
870.02	0.12463291
870.196	0.12460988
870.371	0.12443351
870.546	0.1242773
870.722	0.12421462
870.897	0.12412343
871.072	0.12410608
871.248	0.12400069
871.423	0.12386523
871.598	0.12391729
871.773	0.12382203
871.949	0.12381095
872.124	0.12380618
872.299	0.12371604
872.474	0.12378254
872.649	0.12373493
872.824	0.12363645
872.999	0.12355723
873.174	0.12345884
873.349	0.12333958
873.524	0.12316853
873.699	0.12300329
873.874	0.12294052
874.049	0.12286903
874.224	0.12293899
874.399	0.12288157
874.574	0.12296091
874.749	0.12304142
874.924	0.12303346
875.099	0.1229823
875.274	0.12299096
875.449	0.12298993
875.623	0.12288516
875.798	0.12274278
875.973	0.12264392
876.148	0.1225405
876.322	0.1224255
876.497	0.12216518
876.672	0.12196545
876.846	0.12197615
877.021	0.12184796
877.196	0.12172023
877.37	0.1216248
877.545	0.1215485
877.72	0.1216061
877.894	0.12150372
878.069	0.12134792
878.243	0.12122395
878.418	0.1212229
878.592	0.1211748
878.767	0.12111824
878.941	0.12097358
879.116	0.12090128
879.29	0.12083351
879.464	0.12075527
879.639	0.12074263
879.813	0.12075287
879.987	0.12086988
880.162	0.12092548
880.336	0.12094541
880.51	0.1210864
880.685	0.12108506
880.859	0.12098506
881.033	0.12091075
881.207	0.12062477
881.381	0.12050876
881.556	0.12033183
881.73	0.12007321
881.904	0.11997138
882.078	0.11985192
882.252	0.11972039
882.426	0.11964923
882.6	0.1196613
882.774	0.1197346
882.948	0.11972805
883.122	0.11969324
883.296	0.11962592
883.47	0.11960255
883.644	0.11963531
883.818	0.11942162
883.992	0.11931835
884.166	0.11919707
884.34	0.11918873
884.514	0.11919077
884.687	0.11915944
884.861	0.11908253
885.035	0.11914638
885.209	0.11927372
885.382	0.11944785
885.556	0.1195314
885.73	0.11948201
885.904	0.11951118
886.077	0.11951341
886.251	0.11935904
886.425	0.11914296
886.598	0.11881444
886.772	0.1185795
886.945	0.11843964
887.119	0.11824128
887.292	0.11822232
887.466	0.11828083
887.64	0.11817415
887.813	0.11824812
887.986	0.11821668
888.16	0.11835383
888.333	0.11825487
888.507	0.11816462
888.68	0.11802518
888.854	0.11799807
889.027	0.11783877
889.2	0.11782025
889.374	0.11752041
889.547	0.11750571
889.72	0.1173646
889.893	0.11726146
890.067	0.11711754
890.24	0.11705619
890.413	0.11692933
890.586	0.11695102
890.759	0.11693839
890.933	0.1168417
891.106	0.11694851
891.279	0.11704859
891.452	0.11713034
891.625	0.11707654
891.798	0.11704037
891.971	0.1169832
892.144	0.1169294
892.317	0.11670105
892.49	0.11645499
892.663	0.11633569
892.836	0.11627591
893.009	0.11605311
893.182	0.11588804
893.355	0.11589086
893.527	0.11586138
893.7	0.11591376
893.873	0.11581063
894.046	0.11570889
894.219	0.11581438
894.391	0.11578157
894.564	0.11574615
894.737	0.11577244
894.91	0.11566247
895.082	0.11562846
895.255	0.11554981
895.428	0.11544205
895.6	0.11532886
895.773	0.11519075
895.945	0.11498343
896.118	0.11487993
896.291	0.11477172
896.463	0.11477408
896.636	0.11472715
896.808	0.11484886
896.981	0.11483178
897.153	0.11486774
897.326	0.11495585
897.498	0.11499066
897.67	0.11507078
897.843	0.11508422
898.015	0.11494536
898.187	0.11497861
898.36	0.11485205
898.532	0.11473888
898.704	0.1146008
898.877	0.11434752
899.049	0.11427861
899.221	0.11430181
899.393	0.11418692
899.566	0.11434929
899.738	0.11438345
899.91	0.11449357
900.082	0.11450574
900.254	0.11441871
900.426	0.11417403
900.598	0.11389266
900.77	0.11363162
900.942	0.11341261
901.114	0.11321585
901.286	0.11309344
901.458	0.11309493
901.63	0.11312901
901.802	0.11324507
901.974	0.11328903
902.146	0.11336225
902.318	0.11335586
902.49	0.11341023
902.662	0.11338089
902.834	0.11342276
903.005	0.11339488
903.177	0.11338128
903.349	0.11336483
903.521	0.11328541
903.693	0.11324299
903.864	0.11311047
904.036	0.11299228
904.208	0.1127464
904.379	0.11260788
904.551	0.11246241
904.723	0.11237404
904.894	0.11225975
905.066	0.11223749
905.237	0.1121114
905.409	0.11228692
905.58	0.11230914
905.752	0.11219355
905.923	0.11209943
906.095	0.11197197
906.266	0.11184589
906.438	0.11175237
906.609	0.11164251
906.78	0.11145466
906.952	0.11146011
907.123	0.1114471
907.295	0.11143419
907.466	0.11134406
907.637	0.11136485
907.808	0.11133236
907.98	0.11133185
908.151	0.11123114
908.322	0.11128993
908.493	0.11127939
908.665	0.11136902
908.836	0.11138099
909.007	0.11118171
909.178	0.11113877
909.349	0.11109405
909.52	0.11096489
909.691	0.11077919
909.862	0.11057371
910.033	0.11039205
910.204	0.11041948
910.375	0.11034612
910.546	0.11029115
910.717	0.11022663
910.888	0.11031521
911.059	0.11030448
911.23	0.11030311
911.401	0.11022999
911.572	0.11017365
911.742	0.1100944
911.913	0.11003065
912.084	0.10989252
912.255	0.10993298
912.426	0.10978078
912.596	0.10970557
912.767	0.10964569
912.938	0.10962927
913.108	0.10944943
913.279	0.10941569
913.45	0.10923354
913.62	0.10934487
913.791	0.10937631
913.962	0.10943133
914.132	0.10934268
914.303	0.10947552
914.473	0.10949696
914.644	0.10947419
914.814	0.10937996
914.985	0.10933165
915.155	0.10914562
915.326	0.10901265
915.496	0.10880376
915.666	0.10866502
915.837	0.10854246
916.007	0.10827195
916.177	0.10809838
916.348	0.1080079
916.518	0.10802133
916.688	0.1080229
916.858	0.10802454
917.029	0.10801391
917.199	0.10813452
917.369	0.10813508
917.539	0.10813344
917.709	0.10825174
917.88	0.10806379
918.05	0.10776487
918.22	0.10762672
918.39	0.10746801
918.56	0.10740147
918.73	0.10722732
918.9	0.10686583
919.07	0.10678238
919.24	0.10690615
919.41	0.10694159
919.58	0.10692131
919.75	0.10690503
919.92	0.10690055
920.09	0.10697519
920.26	0.10692588
920.429	0.10688288
920.599	0.10690385
920.769	0.10683003
920.939	0.10660022
921.109	0.10651151
921.278	0.10624237
921.448	0.10619144
921.618	0.10605924
921.787	0.10574895
921.957	0.10573429
922.127	0.10574113
922.296	0.10561921
922.466	0.10559295
922.636	0.10572909
922.805	0.10569602
922.975	0.10586089
923.144	0.10575987
923.314	0.10568372
923.483	0.10570245
923.653	0.10576225
923.822	0.10563801
923.992	0.10550231
924.161	0.1052115
924.331	0.10513805
924.5	0.10506344
924.669	0.10491745
924.839	0.10481157
925.008	0.10474054
925.177	0.10465328
925.347	0.10469193
925.516	0.1048017
925.685	0.10476491
925.854	0.10482309
926.023	0.10479674
926.193	0.10461599
926.362	0.10467228
926.531	0.10479064
926.7	0.10451749
926.869	0.10450169
927.038	0.1043205
927.207	0.10425597
927.376	0.10420065
927.545	0.1041523
927.715	0.10387979
927.884	0.10377177
928.052	0.10366506
928.221	0.10358759
928.39	0.10358387
928.559	0.10370618
928.728	0.10362125
928.897	0.10379039
929.066	0.10386803
929.235	0.1039983
929.404	0.10405002
929.572	0.10398175
929.741	0.10400021
929.91	0.10393612
930.079	0.10393374
930.247	0.1038914
930.416	0.10383789
930.585	0.10394407
930.753	0.10405148
930.922	0.10390706
931.091	0.10396625
931.259	0.10378221
931.428	0.10402681
931.596	0.10400773
931.765	0.10394457
931.934	0.10373142
932.102	0.1035563
932.27	0.10354997
932.439	0.10344949
932.607	0.10312351
932.776	0.1028876
932.944	0.10275404
933.113	0.10268585
933.281	0.10258213
933.449	0.10220246
933.618	0.10211299
933.786	0.10196147
933.954	0.10189992
934.123	0.1018305
934.291	0.10179589
934.459	0.10174493
934.627	0.10177023
934.795	0.10200701
934.964	0.1019349
935.132	0.10182572
935.3	0.10153627
935.468	0.10155798
935.636	0.10168433
935.804	0.1016405
935.972	0.10124794
936.14	0.10138395
936.308	0.10141156
936.476	0.10168587
936.644	0.1015258
936.812	0.10137891
936.98	0.10139116
937.148	0.10135875
937.316	0.1010586
937.484	0.10111647
937.652	0.10069503
937.82	0.10097128
937.987	0.10085503
938.155	0.1011925
938.323	0.10087946
938.491	0.10066222
938.658	0.10065082
938.826	0.10065404
938.994	0.10035162
939.162	0.1003515
939.329	0.10004859
939.497	0.10007873
939.665	0.10014173
939.832	0.1001761
940	0.10046499
940.167	0.10026776
940.335	0.10079489
940.502	0.10055435
940.67	0.10085375
940.837	0.10103063
941.005	0.10097256
941.172	0.10078744
941.34	0.10140818
941.507	0.10083317
941.674	0.10148055
941.842	0.10115847
942.009	0.10194977
942.177	0.1012484
942.344	0.10130436
942.511	0.10057529
942.678	0.10118325
942.846	0.10025749
943.013	0.1007889
943.18	0.09975503
943.347	0.10024069
943.514	0.09987645
943.682	0.10085114
943.849	0.10027109
944.016	0.09914014
944.183	0.09904927
944.35	0.09962315
944.517	0.10069144
944.684	0.10111265
944.851	0.09935343
945.018	0.0989486
945.185	0.10024832
945.352	0.10002895
945.519	0.09942118
945.686	0.09883015
945.853	0.09978718
946.02	0.10011684
946.187	0.1001919
946.353	0.1001907
946.52	0.10022614
946.687	0.10061762
946.854	0.09979112
947.021	0.09818049
947.187	0.09837911
947.354	0.09843225
947.521	0.09814001
947.687	0.0968754
947.854	0.09681476
948.021	0.09740302
948.187	0.09808963
948.354	0.09778234
948.52	0.09764836
948.687	0.09844192
948.854	0.0994075
949.02	0.09947578
949.187	0.09892735
949.353	0.09856875
949.52	0.09851742
949.686	0.0982481
949.852	0.09793168
950.019	0.09776076
950.185	0.09812253
950.352	0.09821168
950.518	0.09859485
950.684	0.09863036
950.851	0.09883409
951.017	0.09833605
951.183	0.09834081
951.349	0.09771995
951.516	0.096889
951.682	0.09620876
951.848	0.09636368
952.014	0.09586424
952.18	0.09602117
952.346	0.09609391
952.512	0.09643079
952.679	0.09669333
952.845	0.09657928
953.011	0.0957979
953.177	0.09583127
953.343	0.09513453
953.509	0.0955048
953.675	0.09524892
953.841	0.09526443
954.007	0.09578665
954.172	0.0966153
954.338	0.09677333
954.504	0.09647892
954.67	0.09559309
954.836	0.09554864
955.002	0.09568167
955.167	0.09530599
955.333	0.09429975
955.499	0.09362046
955.665	0.09420314
955.83	0.09447883
955.996	0.09406383
956.162	0.09442687
956.327	0.09438121
956.493	0.09432737
956.659	0.09497398
956.824	0.09470759
956.99	0.09457936
957.155	0.09520655
957.321	0.09485309
957.486	0.09435606
957.652	0.09452985
957.817	0.09448709
957.983	0.0946874
958.148	0.09459618
958.314	0.09390141
958.479	0.0934185
958.644	0.09387526
958.81	0.09407636
958.975	0.09381655
959.14	0.09333766
959.306	0.09313081
959.471	0.09268485
959.636	0.09245585
959.801	0.0924957
959.967	0.09257729
960.132	0.09252712
960.297	0.09239534
960.462	0.09296061
960.627	0.09326346
960.792	0.09359434
960.957	0.09299319
961.123	0.09283696
961.288	0.09268081
961.453	0.0929386
961.618	0.09236666
961.783	0.09224416
961.948	0.0919859
962.113	0.09218579
962.277	0.09175645
962.442	0.09211623
962.607	0.09217559
962.772	0.09195252
962.937	0.09181417
963.102	0.09170268
963.267	0.09169193
963.431	0.0919009
963.596	0.09185273
963.761	0.091466
963.926	0.09183681
964.09	0.09186255
964.255	0.09233249
964.42	0.09250733
964.584	0.09262909
964.749	0.09241813
964.914	0.09251507
965.078	0.09251844
965.243	0.0920531
965.407	0.09170565
965.572	0.09152886
965.736	0.09151268
965.901	0.09147502
966.065	0.09165002
966.23	0.0914735
966.394	0.09209623
966.559	0.0918197
966.723	0.09170024
966.887	0.09121185
967.052	0.09069195
967.216	0.09027957
967.38	0.0899676
967.545	0.08981541
967.709	0.09014848
967.873	0.09019215
968.037	0.09020883
968.202	0.09055396
968.366	0.09084459
968.53	0.09096637
968.694	0.09072424
968.858	0.09075025
969.022	0.0906683
969.187	0.09088268
969.351	0.09076508
969.515	0.09038856
969.679	0.0904595
969.843	0.09055226
970.007	0.09016839
970.171	0.09015857
970.335	0.09009698
970.499	0.09000411
970.662	0.09031067
970.826	0.09006595
970.99	0.09028343
971.154	0.09021699
971.318	0.09002153
971.482	0.08948859
971.645	0.08966615
971.809	0.08969527
971.973	0.08996374
972.137	0.08975049
972.3	0.08967809
972.464	0.08972051
972.628	0.0903628
972.791	0.09040595
972.955	0.0903092
973.119	0.08989902
973.282	0.08975481
973.446	0.08971852
973.609	0.08961326
973.773	0.08997221
973.936	0.08931206
974.1	0.08901162
974.263	0.08843802
974.427	0.08832002
974.59	0.08868844
974.754	0.08879686
974.917	0.08789888
975.08	0.08822781
975.244	0.08816257
975.407	0.0888413
975.57	0.08876246
975.734	0.08810706
975.897	0.087936
976.06	0.08802774
976.223	0.08787164
976.387	0.08797118
976.55	0.08769345
976.713	0.08762806
976.876	0.08791706
977.039	0.08790663
977.202	0.0879765
977.365	0.08801045
977.528	0.08782153
977.692	0.08791943
977.855	0.08777373
978.018	0.08754523
978.181	0.08731269
978.344	0.08711626
978.506	0.0869729
978.669	0.08682934
978.832	0.08611119
978.995	0.08658944
979.158	0.08697197
979.321	0.08688799
979.484	0.08675781
979.646	0.08643079
979.809	0.08706149
979.972	0.08757714
980.135	0.08729066
980.297	0.08756136
980.46	0.08736043
980.623	0.08733814
980.786	0.08759292
980.948	0.08730089
981.111	0.08697696
981.273	0.08686303
981.436	0.08628569
981.599	0.08684005
981.761	0.08693684
981.924	0.0873057
982.086	0.08732742
982.249	0.08770366
982.411	0.08774559
982.573	0.08746203
982.736	0.0875875
982.898	0.08760734
983.061	0.08722376
983.223	0.08690566
983.385	0.08675938
983.548	0.08724474
983.71	0.08722596
983.872	0.0865432
984.034	0.08639536
984.197	0.08605032
984.359	0.08598676
984.521	0.08620903
984.683	0.08581534
984.845	0.08633096
985.008	0.08641682
985.17	0.08635816
985.332	0.08709612
985.494	0.08623149
985.656	0.08643699
985.818	0.08572142
985.98	0.08525072
986.142	0.08471527
986.304	0.08479766
986.466	0.08406534
986.628	0.08488017
986.79	0.08461719
986.952	0.08488787
987.113	0.0844646
987.275	0.08499444
987.437	0.08475811
987.599	0.08516531
987.761	0.08559313
987.922	0.08478224
988.084	0.08440645
988.246	0.08473379
988.408	0.08446116
988.569	0.08498704
988.731	0.08497801
988.893	0.08424013
989.054	0.08505681
989.216	0.08521472
989.377	0.08556103
989.539	0.08496461
989.701	0.08424063
989.862	0.08438107
990.024	0.08412807
990.185	0.08313906
990.347	0.08323867
990.508	0.08284495
990.669	0.08378638
990.831	0.08434324
990.992	0.08447816
991.154	0.08445763
991.315	0.08589456
991.476	0.08604718
991.638	0.08616969
991.799	0.08588595
991.96	0.08503842
992.121	0.08407414
992.283	0.08473429
992.444	0.08382807
992.605	0.08384724
992.766	0.08279885
992.927	0.0831575
993.088	0.08423916
993.249	0.08435023
993.41	0.08393819
993.572	0.08454891
993.733	0.08422787
993.894	0.08527065
994.055	0.08504032
994.216	0.08413813
994.376	0.08365299
994.537	0.08434201
994.698	0.08357973
994.859	0.08355295
995.02	0.08365986
995.181	0.08293103
995.342	0.08327372
995.503	0.08346915
995.663	0.08292442
995.824	0.08270434
995.985	0.08402106
996.146	0.08412313
996.306	0.08504665
996.467	0.08543665
996.628	0.08621763
996.788	0.08635021
996.949	0.08718476
997.11	0.08521606
997.27	0.084033
997.431	0.08320148
997.591	0.08158529
997.752	0.08041493
997.912	0.07993409
998.073	0.0792552
998.233	0.08035721
998.394	0.08137918
998.554	0.08190499
998.714	0.0827384
998.875	0.08324182
999.035	0.08278932
999.196	0.08314628
999.356	0.08191226
999.516	0.08149421
999.676	0.08225739
999.837	0.0823396
999.997	0.08188887
1000.157	0.08278919
1000.317	0.08174952
1000.477	0.08222284
1000.638	0.08125282
1000.798	0.08077836
1000.958	0.08042351
1001.118	0.08155087
1001.278	0.08100981
1001.438	0.08219121
1001.598	0.08231914
1001.758	0.0829932
1001.918	0.08315507
1002.078	0.08348627
1002.238	0.0830001
1002.398	0.08276027
1002.558	0.08158233
1002.718	0.08164833
1002.878	0.08171721
1003.037	0.07958469
1003.197	0.07925486
1003.357	0.07850008
1003.517	0.07957601
1003.677	0.07856454
1003.836	0.07777404
1003.996	0.07739091
1004.156	0.07863722
1004.315	0.07973874
1004.475	0.07921219
1004.635	0.07880806
1004.794	0.08051027
1004.954	0.08097408
1005.114	0.08150264
1005.273	0.08162127
1005.433	0.07983468
1005.592	0.08127335
1005.752	0.08013526
1005.911	0.07983033
1006.071	0.08045051
1006.23	0.07937038
1006.389	0.07905303
1006.549	0.07961787
1006.708	0.07900435
1006.868	0.0791921
1007.027	0.07887526
1007.186	0.08001828
1007.345	0.08109898
1007.505	0.08160676
1007.664	0.08220084
1007.823	0.08319379
1007.982	0.08445189
1008.142	0.08452006
1008.301	0.08379059
1008.46	0.08326056
1008.619	0.08143994
1008.778	0.08007245
1008.937	0.07922156
1009.096	0.07886757
1009.255	0.07904142
1009.414	0.07742998
1009.573	0.0778855
1009.732	0.08023031
1009.891	0.08128082
1010.05	0.081525
1010.209	0.08035848
1010.368	0.08113979
1010.527	0.08119377
1010.686	0.08100083
1010.845	0.0788913
1011.003	0.07918767
1011.162	0.07929259
1011.321	0.07965608
1011.48	0.07939578
1011.638	0.07926179
1011.797	0.07956965
1011.956	0.07971151
1012.115	0.07927667
1012.273	0.07910451
1012.432	0.07968139
1012.59	0.07876127
1012.749	0.07876645
1012.908	0.07784166
1013.066	0.07885527
1013.225	0.07965593
1013.383	0.08040825
1013.542	0.08198663
1013.7	0.08223875
1013.859	0.08446806
1014.017	0.0856633
1014.175	0.08405095
1014.334	0.08362397
1014.492	0.08316989
1014.65	0.0806101
1014.809	0.08107707
1014.967	0.08001096
1015.125	0.07894014
1015.284	0.08144306
1015.442	0.08054829
1015.6	0.07978506
1015.758	0.07996405
1015.916	0.07963779
1016.075	0.07782557
1016.233	0.07762921
1016.391	0.07617116
1016.549	0.07635698
1016.707	0.07539953
1016.865	0.07668805
1017.023	0.07745292
1017.181	0.07796514
1017.339	0.0773878
1017.497	0.07784644
1017.655	0.07804577
1017.813	0.07916226
1017.971	0.07901493
1018.129	0.07728334
1018.286	0.07764575
1018.444	0.07822954
1018.602	0.07971842
1018.76	0.07994908
1018.918	0.07906647
1019.075	0.07807808
1019.233	0.07845741
1019.391	0.07869733
1019.549	0.08013092
1019.706	0.07731378
1019.864	0.0772894
1020.022	0.07654341
1020.179	0.0755584
1020.337	0.0746122
1020.494	0.07381918
1020.652	0.07385817
1020.809	0.07646092
1020.967	0.07600719
1021.124	0.07780192
1021.282	0.0804132
1021.439	0.080977
1021.597	0.0801962
1021.754	0.07683069
1021.911	0.07778302
1022.069	0.07677759
1022.226	0.07826971
1022.384	0.07551688
1022.541	0.07723345
1022.698	0.07884453
1022.855	0.08212191
1023.013	0.08072213
1023.17	0.07818159
1023.327	0.07604332
1023.484	0.07724186
1023.641	0.07574414
1023.798	0.07887234
1023.956	0.08148159
1024.113	0.07860422
1024.27	0.07953454
1024.427	0.0820486
1024.584	0.08115907
1024.741	0.07848636
1024.898	0.07601374
1025.055	0.0733926
1025.212	0.07273703
1025.369	0.07329331
1025.525	0.07050476
1025.682	0.07391619
1025.839	0.0761511
1025.996	0.07396796
1026.153	0.07461648
1026.31	0.07683509
1026.466	0.07951578
1026.623	0.08168204
1026.78	0.07925649
1026.937	0.08224189
1027.093	0.08139728
1027.25	0.0825596
1027.407	0.08075246
1027.563	0.08038678
1027.72	0.08039036
1027.876	0.07966934
1028.033	0.07929072
1028.19	0.08339833
1028.346	0.07759111
1028.503	0.07800988
1028.659	0.0817404
1028.816	0.08251295
1028.972	0.08474951
1029.128	0.08547708
1029.285	0.08767817
1029.441	0.0917507
1029.598	0.09373533
1029.754	0.09373956
1029.91	0.08998857
1030.067	0.08582342
1030.223	0.08680806
1030.379	0.08629512
1030.535	0.08743375
1030.691	0.09055098
1030.848	0.08800587
1031.004	0.09202759
1031.16	0.09530159
1031.316	0.09702665
1031.472	0.09557978
1031.628	0.09355462
1031.784	0.09074029
1031.94	0.09506179
1032.096	0.09002172
1032.252	0.09071493
1032.408	0.09126414
1032.564	0.08673846
1032.72	0.08978096
1032.876	0.08464369
1033.032	0.07896559
1033.188	0.07942448
1033.344	0.08027347
1033.5	0.07838301
1033.655	0.08105267
1033.811	0.07897702
1033.967	0.08595526
