Data from 0_1_mm_pl_10pc_Absorbance__0__16-07-30-738.txt Node

Date: Fri Feb 24 16:07:30 CET 2023
User: Ange
Spectrometer: FLMT08341
Trigger mode: 0
Integration Time (sec): 1.000000E-2
Scans to average: 400
Electric dark correction enabled: true
Nonlinearity correction enabled: false
Boxcar width: 3
XAxis mode: Wavelengths
Number of Pixels in Spectrum: 3648
>>>>>Begin Spectral Data<<<<<
345.271	0.09776937
345.487	0.09222852
345.704	0.08423311
345.921	0.08518951
346.137	0.09239656
346.354	0.07826472
346.571	0.09128125
346.787	0.1454678
347.004	0.00823211
347.22	-0.06530136
347.437	-0.09810664
347.653	-0.09384012
347.87	0.05199288
348.086	-0.64965581
348.303	-0.07873078
348.519	0.25011146
348.736	0.22052218
348.952	0.21785985
349.169	0.22088264
349.385	0.22548855
349.601	0.22632669
349.818	0.22290429
350.034	0.21957056
350.251	0.2201784
350.467	0.22106853
350.683	0.2157034
350.9	0.21693777
351.116	0.21491648
351.332	0.2123374
351.549	0.21603733
351.765	0.21889862
351.981	0.22153733
352.197	0.22677859
352.414	0.23136463
352.63	0.23329858
352.846	0.2368608
353.062	0.23263657
353.278	0.22700291
353.495	0.2292652
353.711	0.22878768
353.927	0.22882965
354.143	0.226954
354.359	0.22375321
354.575	0.22296315
354.792	0.22602148
355.008	0.22122197
355.224	0.21848668
355.44	0.21357133
355.656	0.21347234
355.872	0.21529861
356.088	0.22266401
356.304	0.2217819
356.52	0.22275003
356.736	0.22452472
356.952	0.22497471
357.168	0.22458086
357.384	0.22577864
357.6	0.21940343
357.816	0.22100734
358.032	0.22189537
358.248	0.22497992
358.464	0.22535936
358.679	0.22481224
358.895	0.22189277
359.111	0.22301857
359.327	0.21972214
359.543	0.21870319
359.759	0.21714685
359.974	0.2150394
360.19	0.21436528
360.406	0.2156397
360.622	0.2136678
360.838	0.21279541
361.053	0.21300741
361.269	0.21180105
361.485	0.21263097
361.701	0.21215487
361.916	0.20820998
362.132	0.20702161
362.348	0.20665504
362.563	0.2046645
362.779	0.20200091
362.995	0.20092529
363.21	0.19990811
363.426	0.20058294
363.641	0.19997135
363.857	0.19864838
364.073	0.19766125
364.288	0.19657398
364.504	0.19731117
364.719	0.19691152
364.935	0.19553591
365.15	0.19494125
365.366	0.19485533
365.581	0.19537566
365.797	0.19418504
366.012	0.1910018
366.228	0.18884425
366.443	0.18937978
366.658	0.1892053
366.874	0.18741619
367.089	0.18722557
367.305	0.18688028
367.52	0.1857329
367.735	0.18455851
367.951	0.18199465
368.166	0.18001823
368.381	0.18036084
368.597	0.1766024
368.812	0.17651382
369.027	0.17756773
369.243	0.17705007
369.458	0.17843124
369.673	0.17820004
369.888	0.17632411
370.104	0.17582479
370.319	0.17502624
370.534	0.17321625
370.749	0.17365104
370.964	0.17288601
371.179	0.17177919
371.395	0.17123072
371.61	0.17062804
371.825	0.16768378
372.04	0.16672112
372.255	0.16478122
372.47	0.16236355
372.685	0.16078187
372.9	0.15970002
373.115	0.15925876
373.33	0.15952726
373.545	0.1583395
373.76	0.15765366
373.975	0.15613883
374.19	0.1551321
374.405	0.15452534
374.62	0.15346798
374.835	0.1533385
375.05	0.15234319
375.265	0.1508878
375.48	0.15034191
375.695	0.15022493
375.91	0.14852759
376.125	0.14689074
376.339	0.14486905
376.554	0.14439567
376.769	0.14389462
376.984	0.14290549
377.199	0.14270354
377.414	0.14229499
377.628	0.14143456
377.843	0.14135969
378.058	0.14036398
378.273	0.1403634
378.487	0.1402892
378.702	0.13836676
378.917	0.13722346
379.131	0.13704992
379.346	0.13510444
379.561	0.13413901
379.775	0.13299313
379.99	0.13073895
380.205	0.12909221
380.419	0.1276931
380.634	0.12614448
380.848	0.12606161
381.063	0.12542623
381.278	0.12441752
381.492	0.12396672
381.707	0.12424456
381.921	0.12346078
382.136	0.12347115
382.35	0.12236816
382.565	0.12139565
382.779	0.12073861
382.994	0.12027343
383.208	0.11997296
383.422	0.1199413
383.637	0.11885236
383.851	0.11907673
384.066	0.11887589
384.28	0.11828811
384.494	0.11812812
384.709	0.11701603
384.923	0.11631928
385.137	0.11554853
385.352	0.11355795
385.566	0.11272901
385.78	0.11187214
385.995	0.11002864
386.209	0.10902865
386.423	0.10823817
386.637	0.10773522
386.852	0.10724108
387.066	0.10671119
387.28	0.10603629
387.494	0.10641942
387.708	0.10564384
387.923	0.10559738
388.137	0.10503697
388.351	0.10491257
388.565	0.10472716
388.779	0.10408861
388.993	0.10378866
389.207	0.1038084
389.421	0.10310705
389.635	0.1021137
389.85	0.10150984
390.064	0.10057448
390.278	0.10026819
390.492	0.09919874
390.706	0.09857916
390.92	0.09749887
391.134	0.09718264
391.348	0.0971799
391.561	0.09613244
391.775	0.09558557
391.989	0.09527565
392.203	0.09475528
392.417	0.09449962
392.631	0.09445483
392.845	0.09352479
393.059	0.09373976
393.273	0.09285001
393.486	0.0921289
393.7	0.0915551
393.914	0.09100922
394.128	0.09021931
394.342	0.08972939
394.555	0.08895415
394.769	0.08834593
394.983	0.08775607
395.197	0.08738453
395.41	0.08694946
395.624	0.08660162
395.838	0.08589604
396.051	0.08562343
396.265	0.08529488
396.479	0.08517014
396.692	0.08516401
396.906	0.08495365
397.12	0.0847906
397.333	0.0845776
397.547	0.08393297
397.76	0.08384942
397.974	0.08362644
398.187	0.08294104
398.401	0.08255538
398.614	0.08235731
398.828	0.08211887
399.041	0.08177643
399.255	0.08161228
399.468	0.08130575
399.682	0.08108788
399.895	0.08091397
400.109	0.08001322
400.322	0.07971074
400.536	0.0793138
400.749	0.07919912
400.962	0.07902319
401.176	0.07834285
401.389	0.07795725
401.602	0.07756597
401.816	0.07716527
402.029	0.07707837
402.242	0.07642669
402.456	0.07567734
402.669	0.07548761
402.882	0.07512188
403.095	0.07548337
403.309	0.07518831
403.522	0.07487886
403.735	0.07461108
403.948	0.07457372
404.161	0.07461534
404.375	0.07467657
404.588	0.07427311
404.801	0.07434148
405.014	0.07413138
405.227	0.0739081
405.44	0.07376467
405.653	0.07349963
405.866	0.07267401
406.079	0.07218173
406.293	0.07160027
406.506	0.07124137
406.719	0.07104245
406.932	0.07054448
407.145	0.0698924
407.358	0.06973825
407.571	0.06948003
407.784	0.0695377
407.996	0.06958951
408.209	0.06933761
408.422	0.06910043
408.635	0.06918593
408.848	0.06913409
409.061	0.06876506
409.274	0.06825501
409.487	0.06781578
409.7	0.0677773
409.912	0.06757013
410.125	0.06755242
410.338	0.06743244
410.551	0.06717575
410.764	0.06722942
410.976	0.06701967
411.189	0.06664687
411.402	0.06652199
411.615	0.06624137
411.827	0.06607442
412.04	0.06626343
412.253	0.06610955
412.465	0.06603035
412.678	0.0657904
412.891	0.06561884
413.103	0.06531783
413.316	0.06518204
413.529	0.06486727
413.741	0.06443187
413.954	0.06442568
414.166	0.06439411
414.379	0.06433494
414.591	0.06447583
414.804	0.06430322
415.016	0.0642972
415.229	0.06430293
415.441	0.06389526
415.654	0.06367265
415.866	0.06333072
416.079	0.06314396
416.291	0.06301928
416.504	0.06295041
416.716	0.06308471
416.928	0.06326342
417.141	0.06301924
417.353	0.06299772
417.566	0.06264342
417.778	0.06246571
417.99	0.06220115
418.203	0.06194067
418.415	0.06179329
418.627	0.06204749
418.839	0.06199849
419.052	0.06211522
419.264	0.06188414
419.476	0.06178072
419.688	0.06176609
419.901	0.06138363
420.113	0.0610667
420.325	0.06107635
420.537	0.06078715
420.749	0.06093535
420.961	0.06084307
421.174	0.06039201
421.386	0.06034163
421.598	0.06012954
421.81	0.05967605
422.022	0.05956984
422.234	0.05924636
422.446	0.05909061
422.658	0.05919905
422.87	0.05927513
423.082	0.05951146
423.294	0.05950109
423.506	0.05946191
423.718	0.05945048
423.93	0.05924608
424.142	0.05915308
424.354	0.05898918
424.566	0.05866501
424.778	0.05879095
424.99	0.05869661
425.202	0.0585216
425.414	0.05853946
425.625	0.05856554
425.837	0.05844282
426.049	0.05840554
426.261	0.0581927
426.473	0.05799907
426.684	0.05781937
426.896	0.05794977
427.108	0.05771492
427.32	0.05772522
427.531	0.0578022
427.743	0.05775266
427.955	0.0579213
428.167	0.05790634
428.378	0.05773339
428.59	0.05773338
428.802	0.05774549
429.013	0.05751997
429.225	0.05758378
429.436	0.0573913
429.648	0.05764626
429.86	0.05773829
430.071	0.0578117
430.283	0.05768494
430.494	0.05775008
430.706	0.05778214
430.917	0.0578669
431.129	0.05782848
431.34	0.05767967
431.552	0.05755424
431.763	0.0575553
431.975	0.05763046
432.186	0.05759289
432.398	0.05758089
432.609	0.0573519
432.821	0.05725496
433.032	0.05718289
433.243	0.05709451
433.455	0.05694005
433.666	0.05682218
433.877	0.05675362
434.089	0.05678946
434.3	0.05686656
434.511	0.0567773
434.723	0.05657987
434.934	0.05633535
435.145	0.05606838
435.356	0.05596719
435.568	0.05587601
435.779	0.05587414
435.99	0.05578809
436.201	0.05589575
436.412	0.05597982
436.624	0.0560224
436.835	0.05596087
437.046	0.05587713
437.257	0.05579009
437.468	0.05587289
437.679	0.0557259
437.89	0.05570165
438.101	0.05575581
438.312	0.05553964
438.523	0.05547764
438.734	0.05535453
438.945	0.05535608
439.156	0.05529565
439.367	0.0552533
439.578	0.05517805
439.789	0.0552806
440	0.05540169
440.211	0.05529833
440.422	0.05522912
440.633	0.05533925
440.844	0.05510515
441.055	0.05505284
441.266	0.05498444
441.477	0.05485857
441.687	0.05487577
441.898	0.05480601
442.109	0.05463816
442.32	0.05482956
442.531	0.05489329
442.741	0.05494291
442.952	0.0549252
443.163	0.05500284
443.374	0.05489655
443.584	0.05496031
443.795	0.05489984
444.006	0.054748
444.216	0.05460833
444.427	0.05462932
444.638	0.05463212
444.848	0.05466452
445.059	0.05467339
445.27	0.05450794
445.48	0.0546785
445.691	0.05476267
445.901	0.05469044
446.112	0.05462206
446.323	0.05446877
446.533	0.05435282
446.744	0.05449797
446.954	0.05443889
447.165	0.05432264
447.375	0.05438985
447.586	0.05434822
447.796	0.05456357
448.006	0.05462442
448.217	0.05455805
448.427	0.05432975
448.638	0.05435805
448.848	0.05421671
449.058	0.05418902
449.269	0.05417472
449.479	0.05411747
449.689	0.05415781
449.9	0.05443898
450.11	0.05459365
450.32	0.05468427
450.531	0.05462003
450.741	0.05456366
450.951	0.05462513
451.161	0.05466076
451.372	0.05458777
451.582	0.05455657
451.792	0.05468034
452.002	0.0547643
452.212	0.05477157
452.422	0.05469078
452.633	0.05472522
452.843	0.05466764
453.053	0.05463205
453.263	0.05446536
453.473	0.05453154
453.683	0.05465417
453.893	0.05472307
454.103	0.05474792
454.313	0.05481679
454.523	0.05491927
454.733	0.05483453
454.943	0.05479983
455.153	0.05486079
455.363	0.05493868
455.573	0.05490344
455.783	0.05489965
455.993	0.05476084
456.203	0.05488642
456.413	0.05490749
456.623	0.05468507
456.833	0.05467695
457.042	0.0546689
457.252	0.05465075
457.462	0.05479438
457.672	0.05477609
457.882	0.05479881
458.091	0.05497503
458.301	0.05499603
458.511	0.05496404
458.721	0.05501293
458.931	0.05497691
459.14	0.05498643
459.35	0.05509071
459.56	0.05507795
459.769	0.05514663
459.979	0.05530209
460.189	0.05525907
460.398	0.05533153
460.608	0.05549882
460.817	0.05554217
461.027	0.05556408
461.237	0.05558671
461.446	0.05560913
461.656	0.05572546
461.865	0.05574827
462.075	0.0556516
462.284	0.05566393
462.494	0.05576472
462.703	0.05566786
462.913	0.05568161
463.122	0.05567947
463.332	0.05558156
463.541	0.05575903
463.751	0.05570615
463.96	0.0556628
464.169	0.05578832
464.379	0.05587135
464.588	0.05595728
464.797	0.05599173
465.007	0.0558815
465.216	0.05588513
465.425	0.05599998
465.635	0.05605458
465.844	0.05603781
466.053	0.05607054
466.263	0.05622288
466.472	0.05637799
466.681	0.05644015
466.89	0.05627388
467.099	0.05630042
467.309	0.05632012
467.518	0.0563281
467.727	0.05639695
467.936	0.05636484
468.145	0.0564061
468.354	0.05650481
468.563	0.05649294
468.772	0.05648937
468.982	0.05650069
469.191	0.0565812
469.4	0.05665093
469.609	0.05671539
469.818	0.05686822
470.027	0.05690159
470.236	0.05698003
470.445	0.05715991
470.654	0.05704581
470.863	0.05707575
471.072	0.05708405
471.28	0.05711893
471.489	0.05727477
471.698	0.05737564
471.907	0.05735736
472.116	0.05753344
472.325	0.05766982
472.534	0.0578748
472.743	0.0579108
472.951	0.05800857
473.16	0.05809639
473.369	0.05811033
473.578	0.05819817
473.786	0.05822231
473.995	0.05825812
474.204	0.05837533
474.413	0.05838623
474.621	0.05844922
474.83	0.05857382
475.039	0.05859898
475.247	0.05862462
475.456	0.05863092
475.665	0.05866905
475.873	0.05873093
476.082	0.05878701
476.291	0.05880832
476.499	0.058912
476.708	0.05897257
476.916	0.05907078
477.125	0.05919154
477.333	0.05930927
477.542	0.05937767
477.75	0.05943917
477.959	0.05949784
478.167	0.05962405
478.376	0.05962048
478.584	0.05956665
478.793	0.05951022
479.001	0.05947491
479.209	0.05946702
479.418	0.05953068
479.626	0.05958525
479.834	0.0597234
480.043	0.05985728
480.251	0.05996776
480.459	0.06016255
480.668	0.06033919
480.876	0.06042382
481.084	0.06055055
481.293	0.0606664
481.501	0.06073842
481.709	0.06094459
481.917	0.06102215
482.125	0.06116164
482.334	0.06128028
482.542	0.06133268
482.75	0.06140905
482.958	0.06152715
483.166	0.06160141
483.374	0.06170298
483.583	0.06178922
483.791	0.06193695
483.999	0.06200285
484.207	0.06212711
484.415	0.06226746
484.623	0.06227177
484.831	0.06239982
485.039	0.06247635
485.247	0.06245165
485.455	0.06255017
485.663	0.06259678
485.871	0.06269366
486.079	0.06274086
486.287	0.06284626
486.495	0.06292208
486.702	0.06301014
486.91	0.06315322
487.118	0.06331541
487.326	0.0634337
487.534	0.06359461
487.742	0.06367226
487.95	0.06383069
488.157	0.06398425
488.365	0.0640191
488.573	0.06415325
488.781	0.06423579
488.988	0.06444836
489.196	0.0646238
489.404	0.06472564
489.612	0.0649368
489.819	0.06514588
490.027	0.06521201
490.235	0.06532289
490.442	0.06539157
490.65	0.06545537
490.857	0.06562551
491.065	0.06569176
491.273	0.06578444
491.48	0.06592447
491.688	0.06608592
491.895	0.06625416
492.103	0.06634103
492.31	0.06643251
492.518	0.06659175
492.725	0.06678284
492.933	0.06688013
493.14	0.06697664
493.348	0.06714013
493.555	0.06725497
493.763	0.06735517
493.97	0.0674271
494.177	0.0674926
494.385	0.067672
494.592	0.06776045
494.8	0.06783578
495.007	0.06803537
495.214	0.06818101
495.422	0.06825043
495.629	0.06836793
495.836	0.068486
496.043	0.06865134
496.251	0.06880861
496.458	0.06894778
496.665	0.06908679
496.872	0.06929217
497.08	0.06943647
497.287	0.06952285
497.494	0.06963153
497.701	0.06975681
497.908	0.06989917
498.115	0.07002791
498.322	0.07014341
498.53	0.07027743
498.737	0.07048383
498.944	0.07064729
499.151	0.070807
499.358	0.07095454
499.565	0.07109055
499.772	0.07122922
499.979	0.07140153
500.186	0.07150807
500.393	0.07167616
500.6	0.07177556
500.807	0.07193824
501.014	0.07208143
501.221	0.0722681
501.427	0.07238312
501.634	0.07254777
501.841	0.07274693
502.048	0.07288761
502.255	0.07297575
502.462	0.07314868
502.669	0.07326604
502.875	0.07346315
503.082	0.07361088
503.289	0.0737436
503.496	0.07390339
503.702	0.07408521
503.909	0.07422349
504.116	0.07443264
504.323	0.07459187
504.529	0.0747169
504.736	0.07483862
504.943	0.07497275
505.149	0.07514531
505.356	0.07538382
505.563	0.07557737
505.769	0.07579503
505.976	0.07598788
506.182	0.076164
506.389	0.07636745
506.595	0.07652609
506.802	0.07664753
507.008	0.07678305
507.215	0.07690124
507.421	0.07709468
507.628	0.07727662
507.834	0.0775038
508.041	0.07770461
508.247	0.07782858
508.454	0.07800691
508.66	0.07816235
508.866	0.07829882
509.073	0.07849021
509.279	0.07858676
509.486	0.07873026
509.692	0.07895074
509.898	0.07907724
510.105	0.07929358
510.311	0.07949966
510.517	0.07962911
510.723	0.07979634
510.93	0.07996047
511.136	0.08014609
511.342	0.08039236
511.548	0.0805585
511.754	0.08073677
511.961	0.08095605
512.167	0.08122848
512.373	0.08142875
512.579	0.08157923
512.785	0.08176641
512.991	0.08193814
513.197	0.08210103
513.404	0.08230415
513.61	0.08245969
513.816	0.08260837
514.022	0.0828488
514.228	0.08306849
514.434	0.08328239
514.64	0.08348055
514.846	0.08361081
515.052	0.08378064
515.258	0.08399194
515.464	0.08416776
515.669	0.08431722
515.875	0.08450583
516.081	0.08473104
516.287	0.08498308
516.493	0.08523001
516.699	0.08544427
516.905	0.08560664
517.111	0.08580765
517.316	0.08599289
517.522	0.08615802
517.728	0.0863744
517.934	0.08657094
518.139	0.08678432
518.345	0.08702587
518.551	0.08720772
518.757	0.08741159
518.962	0.08765264
519.168	0.08784394
519.374	0.08801067
519.579	0.08823204
519.785	0.08845732
519.991	0.08864171
520.196	0.08883118
520.402	0.08904923
520.607	0.08927993
520.813	0.08953499
521.018	0.08972837
521.224	0.08993272
521.429	0.09018281
521.635	0.09040622
521.84	0.09058413
522.046	0.09075758
522.251	0.09092892
522.457	0.09111053
522.662	0.09128213
522.868	0.09151484
523.073	0.09175392
523.279	0.09199194
523.484	0.09219208
523.689	0.09242232
523.895	0.09267474
524.1	0.09290475
524.305	0.09313702
524.511	0.09335958
524.716	0.09360563
524.921	0.09383502
525.126	0.09399734
525.332	0.09424498
525.537	0.09451239
525.742	0.09473575
525.947	0.094952
526.153	0.09512468
526.358	0.09538318
526.563	0.09566638
526.768	0.09587446
526.973	0.09601305
527.178	0.0961986
527.383	0.09640312
527.588	0.09662642
527.794	0.09686401
527.999	0.09706664
528.204	0.09728366
528.409	0.09756129
528.614	0.09778414
528.819	0.09799517
529.024	0.09821346
529.229	0.09839879
529.434	0.09866101
529.639	0.09888493
529.843	0.09906799
530.048	0.09928852
530.253	0.09958907
530.458	0.09982576
530.663	0.10006023
530.868	0.10028569
531.073	0.10048649
531.278	0.10075564
531.482	0.10100413
531.687	0.10117373
531.892	0.10138533
532.097	0.10157618
532.302	0.10184073
532.506	0.1020853
532.711	0.10233363
532.916	0.10255551
533.12	0.10274987
533.325	0.10294663
533.53	0.10323593
533.734	0.10340918
533.939	0.10363404
534.144	0.10384578
534.348	0.10404627
534.553	0.10428961
534.757	0.10456309
534.962	0.10478109
535.167	0.10499494
535.371	0.10522969
535.576	0.1054838
535.78	0.10577316
535.985	0.10608154
536.189	0.10628592
536.394	0.10654631
536.598	0.10679613
536.803	0.10706273
537.007	0.10731981
537.211	0.10753615
537.416	0.10771243
537.62	0.10798127
537.825	0.10819192
538.029	0.10846536
538.233	0.10867168
538.438	0.10889486
538.642	0.10914219
538.846	0.10938895
539.05	0.10963645
539.255	0.10985355
539.459	0.11007509
539.663	0.11028543
539.867	0.11053553
540.072	0.11078099
540.276	0.11102917
540.48	0.11131857
540.684	0.11156059
540.888	0.11180954
541.092	0.11213259
541.297	0.11238429
541.501	0.11257262
541.705	0.11278296
541.909	0.11298088
542.113	0.11330986
542.317	0.11358936
542.521	0.11382546
542.725	0.11404787
542.929	0.11436568
543.133	0.11465762
543.337	0.1148713
543.541	0.11502912
543.745	0.11526112
543.949	0.11547893
544.153	0.11567833
544.357	0.11586601
544.56	0.11613304
544.764	0.11643518
544.968	0.11665504
545.172	0.1168335
545.376	0.11706514
545.58	0.11732404
545.783	0.11758449
545.987	0.11777185
546.191	0.1179472
546.395	0.11826798
546.598	0.11854805
546.802	0.11879843
547.006	0.11905626
547.21	0.11929593
547.413	0.1195809
547.617	0.11991926
547.821	0.12011426
548.024	0.12036568
548.228	0.12058046
548.431	0.12082225
548.635	0.12106514
548.839	0.12131824
549.042	0.12153908
549.246	0.12177784
549.449	0.12194697
549.653	0.1221767
549.856	0.12242662
550.06	0.12265266
550.263	0.12289023
550.467	0.12304222
550.67	0.12328611
550.874	0.12354339
551.077	0.12380959
551.28	0.12403745
551.484	0.12432752
551.687	0.12455634
551.891	0.12492225
552.094	0.12514042
552.297	0.12543055
552.501	0.1256565
552.704	0.12585978
552.907	0.12603327
553.11	0.12622237
553.314	0.12641592
553.517	0.12670967
553.72	0.12697643
553.923	0.12727259
554.127	0.12755419
554.33	0.12781626
554.533	0.12811395
554.736	0.12830594
554.939	0.12853946
555.142	0.12877237
555.345	0.12898026
555.549	0.12920683
555.752	0.12942526
555.955	0.12960059
556.158	0.12989814
556.361	0.13012619
556.564	0.13035547
556.767	0.13057427
556.97	0.13079615
557.173	0.13107342
557.376	0.13137722
557.579	0.13164568
557.782	0.13188132
557.984	0.13209865
558.187	0.13241017
558.39	0.13267384
558.593	0.13288449
558.796	0.13308433
558.999	0.13320623
559.202	0.13344442
559.404	0.13365999
559.607	0.13380539
559.81	0.13401031
560.013	0.13424586
560.216	0.13452511
560.418	0.13477902
560.621	0.13499667
560.824	0.13523407
561.026	0.13552569
561.229	0.13573688
561.432	0.13594401
561.634	0.13608622
561.837	0.13633981
562.04	0.136508
562.242	0.13672486
562.445	0.13690528
562.647	0.13714542
562.85	0.13733192
563.053	0.13758983
563.255	0.13781558
563.458	0.13810947
563.66	0.13833883
563.863	0.13860289
564.065	0.1388238
564.268	0.13911094
564.47	0.13935561
564.672	0.13955776
564.875	0.13974428
565.077	0.13995502
565.28	0.14014051
565.482	0.14038617
565.684	0.1405829
565.887	0.14072901
566.089	0.1409284
566.291	0.14115812
566.494	0.14138308
566.696	0.14156804
566.898	0.14174063
567.1	0.14190166
567.303	0.14222879
567.505	0.14244313
567.707	0.14261843
567.909	0.14282548
568.111	0.14306684
568.314	0.14330384
568.516	0.14357401
568.718	0.14371459
568.92	0.14392596
569.122	0.1440915
569.324	0.1443095
569.526	0.14450452
569.728	0.14474535
569.93	0.14494938
570.132	0.1451326
570.334	0.14535077
570.536	0.14555667
570.738	0.1457262
570.94	0.1458956
571.142	0.14605815
571.344	0.1462107
571.546	0.14640131
571.748	0.14657867
571.95	0.14679694
572.152	0.14701954
572.354	0.1473047
572.555	0.14749843
572.757	0.14773013
572.959	0.14792072
573.161	0.14814705
573.363	0.14829032
573.564	0.14850889
573.766	0.14864622
573.968	0.14888044
574.17	0.14907336
574.371	0.1492283
574.573	0.14937128
574.775	0.14961116
574.976	0.14969578
575.178	0.14983999
575.38	0.14994058
575.581	0.15007347
575.783	0.15027281
575.985	0.15049027
576.186	0.15063946
576.388	0.15086729
576.589	0.15103886
576.791	0.15126778
576.992	0.15148519
577.194	0.15167856
577.395	0.15188284
577.597	0.15215363
577.798	0.15239911
578	0.15264904
578.201	0.15289894
578.402	0.15303709
578.604	0.15321665
578.805	0.15341224
579.007	0.15357902
579.208	0.15376457
579.409	0.15382232
579.611	0.15394503
579.812	0.15418623
580.013	0.15444192
580.215	0.15451772
580.416	0.15468545
580.617	0.1547851
580.818	0.15502415
581.019	0.15514522
581.221	0.15526644
581.422	0.15535933
581.623	0.15558511
581.824	0.15572024
582.025	0.15594852
582.226	0.15613771
582.428	0.1564163
582.629	0.15661867
582.83	0.1568503
583.031	0.15697315
583.232	0.15718538
583.433	0.15736886
583.634	0.15754046
583.835	0.15765133
584.036	0.15776879
584.237	0.15786421
584.438	0.15805855
584.639	0.15813326
584.84	0.15825285
585.041	0.15836151
585.242	0.15846296
585.442	0.15862671
585.643	0.15882732
585.844	0.15895619
586.045	0.15915439
586.246	0.15927775
586.447	0.15946049
586.647	0.15967831
586.848	0.15989389
587.049	0.16003312
587.25	0.16014127
587.45	0.16028294
587.651	0.16042863
587.852	0.16056893
588.053	0.16079444
588.253	0.16099629
588.454	0.16120361
588.655	0.16146324
588.855	0.16164066
589.056	0.16183865
589.256	0.16204379
589.457	0.16215967
589.658	0.16226264
589.858	0.1623743
590.059	0.16252173
590.259	0.16266064
590.46	0.16286159
590.66	0.16300592
590.861	0.16318337
591.061	0.16336954
591.262	0.16358875
591.462	0.16381231
591.662	0.16401194
591.863	0.16415877
592.063	0.16437602
592.264	0.16454974
592.464	0.16473142
592.664	0.16489192
592.865	0.16508884
593.065	0.16520845
593.265	0.16543723
593.465	0.16551111
593.666	0.16562073
593.866	0.1657696
594.066	0.16594592
594.266	0.16598622
594.467	0.16615653
594.667	0.16623104
594.867	0.16650172
595.067	0.16661413
595.267	0.16675357
595.467	0.166886
595.668	0.16707793
595.868	0.16727603
596.068	0.16746032
596.268	0.16754832
596.468	0.16774941
596.668	0.16784749
596.868	0.1679961
597.068	0.16810631
597.268	0.16825329
597.468	0.16835396
597.668	0.16844805
597.868	0.16858667
598.068	0.16878666
598.268	0.16890472
598.467	0.16916097
598.667	0.16927398
598.867	0.16942599
599.067	0.16963974
599.267	0.16981451
599.467	0.16991404
599.667	0.17004584
599.866	0.17014808
600.066	0.17035151
600.266	0.17050981
600.466	0.17063481
600.665	0.17073957
600.865	0.17094589
601.065	0.17114386
601.264	0.1712814
601.464	0.17136154
601.664	0.17157181
601.863	0.17174295
602.063	0.17189969
602.263	0.17190954
602.462	0.17204295
602.662	0.17220304
602.861	0.17242794
603.061	0.17256888
603.26	0.17274694
603.46	0.17289906
603.659	0.17315888
603.859	0.17325673
604.058	0.1733826
604.258	0.17356887
604.457	0.17378458
604.657	0.1738246
604.856	0.17395149
605.056	0.17416373
605.255	0.17434382
605.454	0.17452981
605.654	0.17457448
605.853	0.17463576
606.052	0.17488123
606.252	0.1751073
606.451	0.17522243
606.65	0.17541283
606.849	0.17544292
607.049	0.17564728
607.248	0.17577686
607.447	0.17589895
607.646	0.17602558
607.845	0.17622778
608.045	0.17630788
608.244	0.17662704
608.443	0.17676642
608.642	0.17700466
608.841	0.17711707
609.04	0.17721909
609.239	0.1773358
609.438	0.17740278
609.637	0.1775442
609.836	0.1777121
610.035	0.17779282
610.234	0.17801641
610.433	0.17822507
610.632	0.17833718
610.831	0.1786811
611.03	0.17877646
611.229	0.1790545
611.428	0.1792348
611.627	0.17939553
611.826	0.17959379
612.025	0.17991784
612.224	0.18002247
612.422	0.18023558
612.621	0.18035847
612.82	0.18056931
613.019	0.18072325
613.218	0.18089784
613.416	0.18095864
613.615	0.18121028
613.814	0.18139072
614.012	0.18154655
614.211	0.18163785
614.41	0.1819055
614.608	0.18204279
614.807	0.18220285
615.006	0.18241347
615.204	0.18259866
615.403	0.18278389
615.602	0.18308459
615.8	0.18334537
615.999	0.18354286
616.197	0.18373459
616.396	0.18392105
616.594	0.18403271
616.793	0.1842218
616.991	0.18434789
617.19	0.18430534
617.388	0.18454328
617.586	0.1847404
617.785	0.18486233
617.983	0.18505252
618.182	0.18515422
618.38	0.18526154
618.578	0.18549038
618.777	0.18565214
618.975	0.18584766
619.173	0.18602728
619.372	0.18624821
619.57	0.18643282
619.768	0.1866504
619.966	0.18689484
620.165	0.18704524
620.363	0.18728918
620.561	0.18739406
620.759	0.18760148
620.957	0.18790764
621.155	0.18820581
621.354	0.18834129
621.552	0.18865079
621.75	0.18875885
621.948	0.18911906
622.146	0.18929517
622.344	0.18940263
622.542	0.1895144
622.74	0.18977201
622.938	0.18979026
623.136	0.19007298
623.334	0.19020128
623.532	0.19025133
623.73	0.19039418
623.928	0.19064278
624.126	0.19081213
624.324	0.19111913
624.522	0.19117836
624.719	0.19134253
624.917	0.19172641
625.115	0.19191215
625.313	0.19210684
625.511	0.19234104
625.708	0.19236266
625.906	0.19254994
626.104	0.19270827
626.302	0.19295926
626.499	0.19322844
626.697	0.19337049
626.895	0.19345062
627.093	0.19372962
627.29	0.19404749
627.488	0.19431897
627.686	0.19444285
627.883	0.19460463
628.081	0.19480172
628.278	0.19523651
628.476	0.19546625
628.673	0.19563953
628.871	0.19582865
629.068	0.19604897
629.266	0.19632039
629.463	0.19642444
629.661	0.19650805
629.858	0.19664192
630.056	0.19683412
630.253	0.19699835
630.451	0.19721988
630.648	0.19742016
630.845	0.19765646
631.043	0.19783034
631.24	0.19815331
631.438	0.19837228
631.635	0.19858412
631.832	0.19867376
632.029	0.19887032
632.227	0.19914469
632.424	0.19937306
632.621	0.19949678
632.818	0.19965011
633.016	0.19986163
633.213	0.20006918
633.41	0.20029908
633.607	0.20043377
633.804	0.20065387
634.001	0.2008282
634.199	0.20114062
634.396	0.20141069
634.593	0.20157814
634.79	0.20184555
634.987	0.20222585
635.184	0.20247726
635.381	0.20282707
635.578	0.20306448
635.775	0.20322471
635.972	0.20351242
636.169	0.20365115
636.366	0.2037339
636.563	0.20385894
636.76	0.20391813
636.957	0.20404433
637.153	0.20410731
637.35	0.20433089
637.547	0.20450214
637.744	0.20469343
637.941	0.20491323
638.138	0.20519732
638.334	0.20534764
638.531	0.205728
638.728	0.20589356
638.925	0.20624814
639.121	0.2064893
639.318	0.20668719
639.515	0.20683947
639.711	0.20713606
639.908	0.20721793
640.105	0.20744761
640.301	0.20752922
640.498	0.20767361
640.695	0.20795877
640.891	0.20813962
641.088	0.20824978
641.284	0.20850991
641.481	0.20867358
641.677	0.20879689
641.874	0.20897304
642.07	0.20912951
642.267	0.20950273
642.463	0.20973686
642.66	0.210058
642.856	0.21027725
643.053	0.21048732
643.249	0.21073959
643.445	0.21089575
643.642	0.21097336
643.838	0.21118945
644.034	0.21125224
644.231	0.21141548
644.427	0.21169435
644.623	0.21192951
644.82	0.21216143
645.016	0.21234162
645.212	0.21242553
645.408	0.21271306
645.604	0.21306489
645.801	0.21321455
645.997	0.21338128
646.193	0.21351864
646.389	0.21380492
646.585	0.21406784
646.781	0.21425707
646.977	0.21435953
647.173	0.21453227
647.37	0.21468257
647.566	0.2149608
647.762	0.21507438
647.958	0.21534896
648.154	0.21550085
648.35	0.21568251
648.546	0.21590571
648.742	0.21628248
648.937	0.21636093
649.133	0.2166459
649.329	0.21692449
649.525	0.21715566
649.721	0.21735297
649.917	0.21761369
650.113	0.21761221
650.309	0.21792552
650.504	0.21801592
650.7	0.21803667
650.896	0.21818112
651.092	0.21835046
651.287	0.21847355
651.483	0.21881488
651.679	0.21893313
651.875	0.21918583
652.07	0.21937848
652.266	0.21959581
652.462	0.21981481
652.657	0.22003456
652.853	0.22015973
653.048	0.2203406
653.244	0.2204408
653.44	0.2206883
653.635	0.22072724
653.831	0.22095539
654.026	0.22118185
654.222	0.2213447
654.417	0.22164673
654.613	0.22189706
654.808	0.22206297
655.004	0.22244561
655.199	0.22256442
655.394	0.22269209
655.59	0.22296946
655.785	0.22303856
655.98	0.22325217
656.176	0.2233903
656.371	0.22362382
656.566	0.22382959
656.762	0.22397688
656.957	0.22413413
657.152	0.22434161
657.348	0.22453131
657.543	0.22478948
657.738	0.22496736
657.933	0.22513211
658.128	0.22532049
658.324	0.22540373
658.519	0.22559512
658.714	0.22576491
658.909	0.22588307
659.104	0.22601375
659.299	0.22626573
659.494	0.2264691
659.689	0.22680241
659.884	0.2270279
660.079	0.22716611
660.274	0.2274058
660.469	0.22759919
660.664	0.22776042
660.859	0.22795267
661.054	0.22803026
661.249	0.22818479
661.444	0.22838101
661.639	0.2285191
661.834	0.22859633
662.029	0.22879627
662.224	0.22897205
662.418	0.22920268
662.613	0.22935801
662.808	0.22949807
663.003	0.22967286
663.198	0.22988739
663.392	0.22998457
663.587	0.23027275
663.782	0.23034155
663.977	0.23047232
664.171	0.23073694
664.366	0.23096932
664.561	0.23117804
664.755	0.23145557
664.95	0.23147986
665.144	0.23170283
665.339	0.23192879
665.534	0.23206423
665.728	0.23219343
665.923	0.23238706
666.117	0.2324924
666.312	0.23274202
666.506	0.23303625
666.701	0.23320415
666.895	0.2333875
667.09	0.23358479
667.284	0.23381253
667.479	0.23397597
667.673	0.23409559
667.867	0.23420985
668.062	0.23434539
668.256	0.23449325
668.45	0.23473195
668.645	0.23482127
668.839	0.23500976
669.033	0.23521176
669.228	0.23534677
669.422	0.23561738
669.616	0.23574752
669.81	0.23584867
670.004	0.23594036
670.199	0.23611827
670.393	0.23623896
670.587	0.23636375
670.781	0.23646444
670.975	0.23679049
671.169	0.23697159
671.363	0.23718676
671.558	0.23737693
671.752	0.23762108
671.946	0.23789334
672.14	0.23806712
672.334	0.23807663
672.528	0.23831684
672.722	0.23841682
672.916	0.2385494
673.11	0.2385835
673.304	0.23876112
673.497	0.23887964
673.691	0.23910774
673.885	0.23917023
674.079	0.23943419
674.273	0.23954453
674.467	0.239858
674.661	0.23997693
674.854	0.24019882
675.048	0.24040859
675.242	0.24062684
675.436	0.24083448
675.629	0.24107289
675.823	0.24113273
676.017	0.2413359
676.211	0.24145213
676.404	0.24160928
676.598	0.24177835
676.792	0.24193593
676.985	0.24217523
677.179	0.24238268
677.372	0.24252954
677.566	0.24284193
677.76	0.24303426
677.953	0.24318212
678.147	0.24341159
678.34	0.24363302
678.534	0.24381051
678.727	0.24403426
678.921	0.24418815
679.114	0.24423414
679.307	0.2444836
679.501	0.24467416
679.694	0.24481498
679.888	0.24502602
680.081	0.24519933
680.274	0.24529476
680.468	0.24560581
680.661	0.24568492
680.854	0.24588183
681.048	0.24604357
681.241	0.24616713
681.434	0.24632441
681.627	0.24659362
681.821	0.2467173
682.014	0.24706144
682.207	0.24714876
682.4	0.24730558
682.593	0.24753301
682.786	0.24765868
682.98	0.24773885
683.173	0.24798348
683.366	0.24800419
683.559	0.24817321
683.752	0.24836796
683.945	0.24858999
684.138	0.2488164
684.331	0.24897605
684.524	0.24920054
684.717	0.24939494
684.91	0.24960825
685.103	0.24975103
685.296	0.24993588
685.489	0.25010296
685.682	0.2503244
685.874	0.25044828
686.067	0.25067361
686.26	0.25084734
686.453	0.25092933
686.646	0.25100896
686.839	0.25119882
687.031	0.25133111
687.224	0.25137869
687.417	0.25156044
687.61	0.25166685
687.802	0.25190614
687.995	0.25215558
688.188	0.25232817
688.38	0.25251208
688.573	0.25275943
688.766	0.25284954
688.958	0.25297929
689.151	0.25306682
689.343	0.25320441
689.536	0.25334239
689.729	0.25352941
689.921	0.25375658
690.114	0.25390559
690.306	0.25412232
690.499	0.2543704
690.691	0.25455856
690.884	0.25471777
691.076	0.25490386
691.268	0.25499697
691.461	0.25506784
691.653	0.2552769
691.846	0.2554985
692.038	0.25567143
692.23	0.25579386
692.423	0.25596949
692.615	0.256125
692.807	0.25638814
692.999	0.25651686
693.192	0.25651753
693.384	0.25662565
693.576	0.25669881
693.768	0.25683453
693.961	0.25700825
694.153	0.25721182
694.345	0.25735199
694.537	0.25763272
694.729	0.25783588
694.921	0.25809946
695.113	0.25837216
695.305	0.25858024
695.498	0.25869321
695.69	0.25894513
695.882	0.25903284
696.074	0.2592526
696.266	0.25946395
696.458	0.25954188
696.65	0.25965033
696.842	0.25985186
697.033	0.25996726
697.225	0.26016809
697.417	0.26032647
697.609	0.26043205
697.801	0.26058911
697.993	0.26082654
698.185	0.26099311
698.376	0.26119221
698.568	0.26136493
698.76	0.26153965
698.952	0.26177946
699.144	0.26189698
699.335	0.26200353
699.527	0.26217038
699.719	0.26230982
699.91	0.26257314
700.102	0.26262293
700.294	0.26283283
700.485	0.26305383
700.677	0.26326895
700.869	0.26350095
701.06	0.26375412
701.252	0.26385319
701.443	0.26411237
701.635	0.26426467
701.826	0.26452694
702.018	0.26468899
702.209	0.26487026
702.401	0.26494239
702.592	0.26518178
702.784	0.26532352
702.975	0.26545831
703.166	0.26555256
703.358	0.26564608
703.549	0.26578375
703.741	0.26595322
703.932	0.26601252
704.123	0.26613886
704.315	0.26631983
704.506	0.26655279
704.697	0.26677683
704.888	0.26697957
705.08	0.26721547
705.271	0.26747549
705.462	0.26767443
705.653	0.26786635
705.844	0.26799238
706.035	0.26823506
706.227	0.26835572
706.418	0.26848438
706.609	0.26858949
706.8	0.26884386
706.991	0.26895757
707.182	0.26913262
707.373	0.26924322
707.564	0.26946373
707.755	0.26966913
707.946	0.26994094
708.137	0.27004803
708.328	0.2702636
708.519	0.27053451
708.71	0.2708112
708.901	0.27091893
709.092	0.27111489
709.283	0.27123644
709.473	0.27143593
709.664	0.27165693
709.855	0.27173455
710.046	0.2718817
710.237	0.27215308
710.427	0.27228245
710.618	0.27254366
710.809	0.27271509
711	0.27288501
711.19	0.27302838
711.381	0.27319158
711.572	0.2732814
711.762	0.27348564
711.953	0.27357139
712.144	0.27370871
712.334	0.27383907
712.525	0.27411644
712.715	0.27433598
712.906	0.27455811
713.097	0.27471464
713.287	0.27490571
713.478	0.27511824
713.668	0.2752965
713.859	0.27537997
714.049	0.27548992
714.239	0.27573733
714.43	0.27594411
714.62	0.27616354
714.811	0.27636632
715.001	0.27655977
715.191	0.27678715
715.382	0.27693577
715.572	0.27714657
715.762	0.27732288
715.953	0.27755955
716.143	0.27778906
716.333	0.27793471
716.523	0.27807669
716.714	0.27828662
716.904	0.27838637
717.094	0.27860933
717.284	0.27867956
717.474	0.27882653
717.664	0.27905069
717.855	0.27927547
718.045	0.27945582
718.235	0.27960435
718.425	0.27979514
718.615	0.28003796
718.805	0.28024657
718.995	0.28044246
719.185	0.28061252
719.375	0.28089772
719.565	0.28116093
719.755	0.28135864
719.945	0.2815223
720.135	0.28173459
720.325	0.28197561
720.515	0.2822419
720.704	0.28239485
720.894	0.28261539
721.084	0.28277148
721.274	0.28305248
721.464	0.28323522
721.654	0.28350844
721.843	0.28372699
722.033	0.28397164
722.223	0.28415026
722.413	0.28440985
722.602	0.28458323
722.792	0.28484004
722.982	0.28494567
723.171	0.28509921
723.361	0.28527521
723.55	0.28548624
723.74	0.28560796
723.93	0.28582601
724.119	0.28598475
724.309	0.28619083
724.498	0.28635565
724.688	0.28650467
724.877	0.28668454
725.067	0.28692137
725.256	0.28709418
725.446	0.2872722
725.635	0.28740893
725.825	0.28758066
726.014	0.28766764
726.203	0.28775279
726.393	0.28776088
726.582	0.28783412
726.771	0.28787615
726.961	0.28803972
727.15	0.28810796
727.339	0.28825278
727.529	0.2883753
727.718	0.2885474
727.907	0.28859411
728.096	0.28876615
728.286	0.28880133
728.475	0.2890305
728.664	0.28922027
728.853	0.28938552
729.042	0.28954251
729.231	0.28977143
729.42	0.28991732
729.609	0.29012474
729.799	0.29015845
729.988	0.29027992
730.177	0.29038947
730.366	0.29053831
730.555	0.29067335
730.744	0.29080569
730.933	0.29095537
731.122	0.2911295
731.31	0.29124836
731.499	0.29139362
731.688	0.29154698
731.877	0.29161631
732.066	0.29168152
732.255	0.29173958
732.444	0.29186933
732.632	0.29198162
732.821	0.29207462
733.01	0.29223796
733.199	0.29240267
733.388	0.29259093
733.576	0.29271625
733.765	0.29285345
733.954	0.29301091
734.142	0.29314939
734.331	0.29315615
734.52	0.29331631
734.708	0.29345098
734.897	0.29355656
735.086	0.29358044
735.274	0.29362063
735.463	0.29373613
735.651	0.29383627
735.84	0.29393798
736.028	0.29401023
736.217	0.29420126
736.405	0.29434373
736.594	0.29449121
736.782	0.29459021
736.971	0.29472741
737.159	0.29479579
737.347	0.29491931
737.536	0.29496183
737.724	0.29516687
737.912	0.29529107
738.101	0.29546474
738.289	0.29569847
738.477	0.29589264
738.666	0.29604823
738.854	0.29619262
739.042	0.29631459
739.23	0.29643338
739.418	0.29649856
739.607	0.29650034
739.795	0.29653233
739.983	0.2966136
740.171	0.29669648
740.359	0.29671412
740.547	0.29678333
740.735	0.29695563
740.923	0.29715497
741.112	0.29731029
741.3	0.29749415
741.488	0.29767426
741.676	0.29792138
741.864	0.29807978
742.052	0.29820783
742.239	0.29819974
742.427	0.29827206
742.615	0.29823664
742.803	0.29829061
742.991	0.2982883
743.179	0.2984722
743.367	0.29857198
743.555	0.29884926
743.742	0.29907259
743.93	0.29933705
744.118	0.29946877
744.306	0.29964132
744.494	0.29968674
744.681	0.29972424
744.869	0.29969173
745.057	0.29966793
745.244	0.29963142
745.432	0.29974129
745.62	0.29978183
745.807	0.2998641
745.995	0.2999117
746.182	0.30003705
746.37	0.30013277
746.558	0.30030897
746.745	0.30038181
746.933	0.30050671
747.12	0.30055886
747.308	0.30073411
747.495	0.30083088
747.683	0.30095079
747.87	0.30101724
748.057	0.30116577
748.245	0.30127046
748.432	0.30138354
748.62	0.3014206
748.807	0.30150874
748.994	0.30162487
749.182	0.30171279
749.369	0.30175632
749.556	0.30183983
749.743	0.30196894
749.931	0.30208787
750.118	0.30221145
750.305	0.30227868
750.492	0.30236796
750.68	0.30248154
750.867	0.30249029
751.054	0.30255095
751.241	0.30258456
751.428	0.30262624
751.615	0.30264364
751.802	0.3026889
751.989	0.30269484
752.176	0.3028722
752.363	0.3029489
752.55	0.30298529
752.737	0.3030268
752.924	0.30313915
753.111	0.30321614
753.298	0.30325313
753.485	0.30327208
753.672	0.30340208
753.859	0.30364368
754.046	0.30382314
754.233	0.30393031
754.42	0.30406701
754.606	0.3041702
754.793	0.30415975
754.98	0.3041481
755.167	0.30408225
755.353	0.30407145
755.54	0.30409973
755.727	0.30411458
755.914	0.30422977
756.1	0.30436763
756.287	0.30449231
756.474	0.30458826
756.66	0.30470004
756.847	0.30486815
757.033	0.30489117
757.22	0.30488937
757.407	0.30495846
757.593	0.30505685
757.78	0.30510354
757.966	0.30516969
758.153	0.30516477
758.339	0.30524634
758.526	0.30533437
758.712	0.30529233
758.898	0.30523429
759.085	0.30522629
759.271	0.30520672
759.458	0.30513618
759.644	0.30519683
759.83	0.30525279
760.017	0.30542652
760.203	0.30552407
760.389	0.30561445
760.576	0.30565228
760.762	0.30575544
760.948	0.3056421
761.134	0.3056229
761.32	0.30555565
761.507	0.30547803
761.693	0.30555767
761.879	0.30561563
762.065	0.30567171
762.251	0.3058232
762.437	0.30593318
762.623	0.30603661
762.809	0.30611572
762.995	0.30608089
763.181	0.30599859
763.367	0.30597106
763.553	0.30598014
763.739	0.30601081
763.925	0.30598938
764.111	0.30603357
764.297	0.30607829
764.483	0.30610573
764.669	0.30607943
764.855	0.30606481
765.041	0.30596975
765.227	0.30591859
765.412	0.30585539
765.598	0.30582498
765.784	0.30584265
765.97	0.30594909
766.156	0.30597195
766.341	0.3060225
766.527	0.30603786
766.713	0.3061244
766.898	0.30620836
767.084	0.30630476
767.27	0.30620695
767.455	0.30620555
767.641	0.30623672
767.827	0.30628299
768.012	0.3062448
768.198	0.30621432
768.383	0.30620953
768.569	0.30635591
768.754	0.30639735
768.94	0.30642317
769.125	0.30647095
769.311	0.30643082
769.496	0.30640402
769.682	0.30631564
769.867	0.30617568
770.052	0.30612858
770.238	0.30605544
770.423	0.30596664
770.608	0.3059112
770.794	0.3058636
770.979	0.30585911
771.164	0.3058165
771.35	0.30572643
771.535	0.30564954
771.72	0.30562789
771.905	0.30569052
772.09	0.30574247
772.276	0.30573614
772.461	0.30579422
772.646	0.30584379
772.831	0.30584726
773.016	0.30586163
773.201	0.30580084
773.386	0.30573227
773.571	0.30568192
773.756	0.30561889
773.941	0.30553116
774.126	0.30558013
774.311	0.30545824
774.496	0.30543621
774.681	0.30535966
774.866	0.30527116
775.051	0.30511518
775.236	0.30508984
775.421	0.30495457
775.606	0.30490145
775.791	0.30478656
775.976	0.30476671
776.16	0.30473393
776.345	0.30476566
776.53	0.30481319
776.715	0.30474361
776.899	0.30468626
777.084	0.30465635
777.269	0.30456981
777.454	0.30449351
777.638	0.30446159
777.823	0.30429962
778.008	0.3042246
778.192	0.30416637
778.377	0.30402927
778.561	0.30396975
778.746	0.30387967
778.931	0.30379298
779.115	0.30373728
779.3	0.3036638
779.484	0.30354288
779.669	0.30345431
779.853	0.30330814
780.037	0.30331605
780.222	0.30318877
780.406	0.30313562
780.591	0.30305841
780.775	0.30308582
780.959	0.30311539
781.144	0.30305909
781.328	0.30290567
781.512	0.30276985
781.697	0.30261003
781.881	0.30249527
782.065	0.30237411
782.249	0.30219856
782.434	0.30215265
782.618	0.30205682
782.802	0.30207809
782.986	0.30205609
783.17	0.302057
783.354	0.30195131
783.539	0.30192028
783.723	0.30177296
783.907	0.30169345
784.091	0.30152551
784.275	0.3014222
784.459	0.30126471
784.643	0.30109027
784.827	0.30091127
785.011	0.30081278
785.195	0.30069959
785.379	0.30061108
785.563	0.3004567
785.747	0.30035994
785.93	0.30035922
786.114	0.30024466
786.298	0.300047
786.482	0.29984335
786.666	0.29964116
786.85	0.2994819
787.033	0.29932903
787.217	0.29918845
787.401	0.29913188
787.585	0.29905615
787.768	0.29906563
787.952	0.29899195
788.136	0.29888907
788.319	0.29873718
788.503	0.29853567
788.687	0.29840268
788.87	0.29831742
789.054	0.29812047
789.237	0.2979158
789.421	0.29770567
789.605	0.29750207
789.788	0.29728735
789.972	0.29700132
790.155	0.29675269
790.338	0.2965882
790.522	0.29648654
790.705	0.29629041
790.889	0.29613942
791.072	0.29612232
791.256	0.29613144
791.439	0.29612637
791.622	0.29607927
791.806	0.29605691
791.989	0.29602867
792.172	0.29600048
792.355	0.29587321
792.539	0.29574087
792.722	0.29558981
792.905	0.29534754
793.088	0.29506944
793.271	0.29496316
793.455	0.29477372
793.638	0.29457187
793.821	0.29436565
794.004	0.29411908
794.187	0.29402912
794.37	0.2939582
794.553	0.29383431
794.736	0.29369507
794.919	0.2935612
795.102	0.29341292
795.285	0.29327101
795.468	0.29303036
795.651	0.29275264
795.834	0.29251587
796.017	0.29234342
796.2	0.29215695
796.383	0.29197623
796.566	0.29183353
796.749	0.29168627
796.931	0.29156278
797.114	0.29126483
797.297	0.29096361
797.48	0.29067624
797.663	0.29052397
797.845	0.29034026
798.028	0.29021073
798.211	0.29003017
798.393	0.28997114
798.576	0.28989943
798.759	0.28974597
798.941	0.28954086
799.124	0.28932678
799.307	0.28912714
799.489	0.28902946
799.672	0.28884061
799.854	0.28868401
800.037	0.28863251
800.219	0.28844619
800.402	0.2883084
800.584	0.28812208
800.767	0.28788545
800.949	0.28770485
801.132	0.2875631
801.314	0.28730021
801.496	0.28705286
801.679	0.28673734
801.861	0.2865427
802.043	0.28627845
802.226	0.28603774
802.408	0.2857886
802.59	0.28569377
802.772	0.28566837
802.955	0.28564821
803.137	0.28544772
803.319	0.28535218
803.501	0.28520247
803.684	0.28497095
803.866	0.28465225
804.048	0.28430366
804.23	0.28404133
804.412	0.28381183
804.594	0.28359616
804.776	0.28348558
804.958	0.28336926
805.14	0.28324856
805.322	0.28320197
805.504	0.28306992
805.686	0.28288553
805.868	0.28267543
806.05	0.2823897
806.232	0.28211353
806.414	0.2819227
806.596	0.2815472
806.778	0.28125675
806.96	0.28106157
807.141	0.2807848
807.323	0.28062174
807.505	0.280428
807.687	0.28018151
807.869	0.2799959
808.05	0.2798609
808.232	0.27963357
808.414	0.27951413
808.595	0.27925775
808.777	0.27903102
808.959	0.27889244
809.14	0.27876247
809.322	0.27854917
809.504	0.27838304
809.685	0.27828184
809.867	0.2781361
810.048	0.27804009
810.23	0.27782857
810.411	0.27760591
810.593	0.27733542
810.774	0.27706791
810.956	0.27670937
811.137	0.27635032
811.319	0.27597505
811.5	0.27562468
811.681	0.2752833
811.863	0.27498446
812.044	0.27468048
812.225	0.27445549
812.407	0.27424437
812.588	0.27398297
812.769	0.27371239
812.951	0.27354097
813.132	0.27331103
813.313	0.27312566
813.494	0.27285945
813.675	0.27258804
813.857	0.27235991
814.038	0.27216867
814.219	0.27184401
814.4	0.27160339
814.581	0.27146433
814.762	0.27116317
814.943	0.27095421
815.124	0.27071407
815.305	0.27048738
815.486	0.27027143
815.667	0.27004851
815.848	0.26969176
816.029	0.26940075
816.21	0.26914335
816.391	0.26892191
816.572	0.26861522
816.753	0.26845887
816.934	0.26817226
817.115	0.2679211
817.295	0.26768426
817.476	0.26727656
817.657	0.26700509
817.838	0.26672345
818.019	0.26635398
818.199	0.26599963
818.38	0.26564624
818.561	0.26533581
818.741	0.26518601
818.922	0.2648392
819.103	0.26459513
819.283	0.26438353
819.464	0.26425504
819.645	0.26401866
819.825	0.26381215
820.006	0.26354936
820.186	0.26334435
820.367	0.26309101
820.547	0.2626949
820.728	0.26233949
820.908	0.26207385
821.089	0.26197306
821.269	0.26172641
821.45	0.26146633
821.63	0.26117235
821.81	0.26109171
821.991	0.26090283
822.171	0.26069539
822.351	0.26035485
822.532	0.2600859
822.712	0.25978765
822.892	0.25955186
823.072	0.25918527
823.253	0.25889281
823.433	0.2586972
823.613	0.2584043
823.793	0.25816033
823.973	0.25799716
824.154	0.2577499
824.334	0.25755542
824.514	0.25724707
824.694	0.25688956
824.874	0.25651099
825.054	0.25617022
825.234	0.25578618
825.414	0.2554153
825.594	0.25501297
825.774	0.25478006
825.954	0.25442963
826.134	0.2541398
826.314	0.25379564
826.494	0.25353713
826.674	0.25313954
826.854	0.2528109
827.033	0.25245279
827.213	0.25228987
827.393	0.25196298
827.573	0.25178786
827.753	0.25150872
827.932	0.25139632
828.112	0.25119516
828.292	0.25097438
828.472	0.25051686
828.651	0.25036088
828.831	0.24999397
829.011	0.24972781
829.19	0.24930763
829.37	0.24900805
829.549	0.24867094
829.729	0.24848201
829.909	0.24818528
830.088	0.24794263
830.268	0.24756467
830.447	0.24735612
830.627	0.24715445
830.806	0.24688248
830.986	0.24653247
831.165	0.24626503
831.344	0.24597254
831.524	0.24569317
831.703	0.24539168
831.883	0.24488692
832.062	0.2445041
832.241	0.24417955
832.421	0.24377603
832.6	0.2434324
832.779	0.24312262
832.958	0.24288405
833.138	0.2426168
833.317	0.24243431
833.496	0.24214168
833.675	0.24178782
833.854	0.2415221
834.034	0.24126878
834.213	0.24086478
834.392	0.24066786
834.571	0.24031185
834.75	0.24002741
834.929	0.23976239
835.108	0.23948841
835.287	0.23917048
835.466	0.23881076
835.645	0.23843316
835.824	0.23806633
836.003	0.23770804
836.182	0.23740118
836.361	0.23703803
836.54	0.23669297
836.719	0.23653483
836.897	0.23627493
837.076	0.23606432
837.255	0.2358551
837.434	0.23563259
837.613	0.23541318
837.791	0.23514037
837.97	0.23488962
838.149	0.23459126
838.328	0.23427412
838.506	0.23402597
838.685	0.23367429
838.864	0.23339154
839.042	0.23308249
839.221	0.23273372
839.4	0.2324647
839.578	0.23201281
839.757	0.23159215
839.935	0.23125811
840.114	0.23084921
840.292	0.23054862
840.471	0.23018598
840.649	0.22986557
840.828	0.22980277
841.006	0.22975008
841.185	0.22948893
841.363	0.22931897
841.541	0.22904509
841.72	0.22873812
841.898	0.22845339
842.076	0.22806023
842.255	0.22752695
842.433	0.22720261
842.611	0.2268041
842.789	0.22640449
842.968	0.22608964
843.146	0.22569143
843.324	0.22543983
843.502	0.22528485
843.68	0.22505789
843.859	0.22478183
844.037	0.22458194
844.215	0.22430528
844.393	0.22399387
844.571	0.22359506
844.749	0.22317737
844.927	0.22278605
845.105	0.22239751
845.283	0.22203608
845.461	0.22180026
845.639	0.22157016
845.817	0.22131871
845.995	0.22106579
846.173	0.22090472
846.351	0.22070061
846.529	0.22046707
846.706	0.22020913
846.884	0.21999686
847.062	0.21970986
847.24	0.21934051
847.418	0.21888322
847.595	0.21848092
847.773	0.21814559
847.951	0.21769878
848.129	0.21718646
848.306	0.21681291
848.484	0.21653869
848.662	0.216353
848.839	0.21625524
849.017	0.21594473
849.194	0.2157325
849.372	0.21560533
849.549	0.21528145
849.727	0.2149553
849.905	0.21454453
850.082	0.21400876
850.26	0.2136144
850.437	0.21315483
850.614	0.21271769
850.792	0.2124219
850.969	0.21218973
851.147	0.21192038
851.324	0.21166297
851.501	0.21153566
851.679	0.21133725
851.856	0.21105665
852.033	0.21080256
852.211	0.2103476
852.388	0.20993149
852.565	0.20958501
852.742	0.20904617
852.92	0.20869548
853.097	0.20835096
853.274	0.2079725
853.451	0.20769247
853.628	0.2075046
853.805	0.20727473
853.982	0.20700453
854.159	0.2065978
854.336	0.20630995
854.514	0.20596869
854.691	0.20560989
854.868	0.20521833
855.045	0.20487893
855.221	0.20470317
855.398	0.20442034
855.575	0.20414047
855.752	0.20387877
855.929	0.20368227
856.106	0.20343676
856.283	0.20316799
856.46	0.20284072
856.637	0.20269068
856.813	0.20237945
856.99	0.20206477
857.167	0.20172115
857.344	0.20149403
857.52	0.20115226
857.697	0.20074627
857.874	0.20040847
858.05	0.20013027
858.227	0.19987089
858.404	0.19964069
858.58	0.19929984
858.757	0.19900491
858.933	0.19873861
859.11	0.19843507
859.287	0.19808797
859.463	0.19769524
859.64	0.19736398
859.816	0.19688772
859.993	0.19663407
860.169	0.19641306
860.345	0.19603796
860.522	0.19575392
860.698	0.19548931
860.875	0.19520033
861.051	0.19503547
861.227	0.19456833
861.404	0.19426818
861.58	0.19403843
861.756	0.1938507
861.932	0.19369743
862.109	0.19334885
862.285	0.1930388
862.461	0.19289547
862.637	0.19256136
862.813	0.19231048
862.99	0.19187614
863.166	0.1914767
863.342	0.19130534
863.518	0.19109649
863.694	0.19080945
863.87	0.1905294
864.046	0.1901867
864.222	0.19001147
864.398	0.18971624
864.574	0.18931189
864.75	0.18898478
864.926	0.18864021
865.102	0.18831893
865.278	0.18791239
865.454	0.18753584
865.63	0.18712654
865.805	0.18674585
865.981	0.18640463
866.157	0.18615301
866.333	0.18585446
866.509	0.18584627
866.684	0.18552987
866.86	0.18554367
867.036	0.18545903
867.212	0.18517913
867.387	0.18491624
867.563	0.1847816
867.739	0.18440774
867.914	0.18424173
868.09	0.1837443
868.265	0.18325258
868.441	0.18279743
868.617	0.18246284
868.792	0.18199546
868.968	0.18153973
869.143	0.18116451
869.319	0.18098609
869.494	0.18076215
869.67	0.18060914
869.845	0.18018839
870.02	0.17998898
870.196	0.17976201
870.371	0.17941585
870.546	0.17896358
870.722	0.17876262
870.897	0.17842549
871.072	0.1783184
871.248	0.17792574
871.423	0.17758308
871.598	0.17745992
871.773	0.17731504
871.949	0.17707054
872.124	0.17700486
872.299	0.17677796
872.474	0.17668787
872.649	0.17651936
872.824	0.17607898
872.999	0.17567089
873.174	0.17522959
873.349	0.17478308
873.524	0.17442939
873.699	0.1740902
873.874	0.17368953
874.049	0.1734748
874.224	0.17323211
874.399	0.17302123
874.574	0.17289355
874.749	0.17259807
874.924	0.17233545
875.099	0.17206832
875.274	0.17176447
875.449	0.17149518
875.623	0.17119765
875.798	0.17073822
875.973	0.17040608
876.148	0.16991068
876.322	0.16965537
876.497	0.1693477
876.672	0.16904899
876.846	0.16879598
877.021	0.16849463
877.196	0.16815666
877.37	0.1679476
877.545	0.16766831
877.72	0.16737636
877.894	0.16719431
878.069	0.16689223
878.243	0.16660253
878.418	0.16632819
878.592	0.16602391
878.767	0.16575708
878.941	0.16549084
879.116	0.16504946
879.29	0.1646596
879.464	0.16433905
879.639	0.16413276
879.813	0.16406169
879.987	0.1638494
880.162	0.16369818
880.336	0.16357615
880.51	0.16351849
880.685	0.16336561
880.859	0.16308725
881.033	0.16268594
881.207	0.16229747
881.381	0.16191482
881.556	0.16158704
881.73	0.1612387
881.904	0.16105812
882.078	0.16085967
882.252	0.16076629
882.426	0.16058832
882.6	0.160362
882.774	0.16020211
882.948	0.16005296
883.122	0.15975734
883.296	0.15945894
883.47	0.15910335
883.644	0.15900656
883.818	0.1587518
883.992	0.15849598
884.166	0.15825791
884.34	0.15802326
884.514	0.15796093
884.687	0.15775122
884.861	0.15746604
885.035	0.1573996
885.209	0.15728308
885.382	0.1570831
885.556	0.15694416
885.73	0.15673041
885.904	0.15656106
886.077	0.15641489
886.251	0.15624585
886.425	0.15596594
886.598	0.15575016
886.772	0.15544578
886.945	0.15498659
887.119	0.15464607
887.292	0.15414876
887.466	0.15377938
887.64	0.15345599
887.813	0.15311515
887.986	0.15288353
888.16	0.15283812
888.333	0.15249011
888.507	0.15228134
888.68	0.15199365
888.854	0.15173288
889.027	0.15147768
889.2	0.15118904
889.374	0.1509156
889.547	0.15080487
889.72	0.15076628
889.893	0.15051939
890.067	0.15028923
890.24	0.14999343
890.413	0.14979674
890.586	0.14938867
890.759	0.14912349
890.933	0.14867225
891.106	0.14850774
891.279	0.14831493
891.452	0.14821014
891.625	0.14791142
891.798	0.14771679
891.971	0.14753345
892.144	0.14750844
892.317	0.14719583
892.49	0.14701055
892.663	0.14675463
892.836	0.14657824
893.009	0.14636045
893.182	0.14596042
893.355	0.14556629
893.527	0.14541258
893.7	0.14518911
893.873	0.14483542
894.046	0.14445529
894.219	0.14430396
894.391	0.14415755
894.564	0.14394838
894.737	0.14369612
894.91	0.14331169
895.082	0.1431018
895.255	0.14286016
895.428	0.14247144
895.6	0.14213883
895.773	0.14189171
895.945	0.14163329
896.118	0.14137424
896.291	0.14109735
896.463	0.14097346
896.636	0.14082997
896.808	0.14082159
896.981	0.14073861
897.153	0.14045409
897.326	0.14049197
897.498	0.14039296
897.67	0.1402995
897.843	0.14015503
898.015	0.14003434
898.187	0.13982571
898.36	0.1395904
898.532	0.13929282
898.704	0.13909656
898.877	0.13881631
899.049	0.13857964
899.221	0.13825012
899.393	0.13808203
899.566	0.13806574
899.738	0.13791437
899.91	0.13776308
900.082	0.13754133
900.254	0.13734881
900.426	0.13698843
900.598	0.13656302
900.77	0.13614388
900.942	0.13575227
901.114	0.13545203
901.286	0.13519099
901.458	0.13498762
901.63	0.13488184
901.802	0.13479568
901.974	0.13464105
902.146	0.13457581
902.318	0.13431486
902.49	0.13410183
902.662	0.13380171
902.834	0.13352741
903.005	0.13339708
903.177	0.13322772
903.349	0.13305216
903.521	0.13293623
903.693	0.13283077
903.864	0.13261931
904.036	0.1324957
904.208	0.13211587
904.379	0.13197499
904.551	0.13166591
904.723	0.13146593
904.894	0.13118516
905.066	0.13108926
905.237	0.13095918
905.409	0.13079588
905.58	0.13063131
905.752	0.13041341
905.923	0.13017152
906.095	0.12995145
906.266	0.12962122
906.438	0.12935214
906.609	0.12909739
906.78	0.12876258
906.952	0.12863818
907.123	0.12837724
907.295	0.12816402
907.466	0.12806467
907.637	0.12790798
907.808	0.12779548
907.98	0.12767274
908.151	0.12756176
908.322	0.12753598
908.493	0.12748134
908.665	0.12742117
908.836	0.12720175
909.007	0.1270302
909.178	0.12683461
909.349	0.12655601
909.52	0.12616843
909.691	0.12574096
909.862	0.12540615
910.033	0.12523167
910.204	0.12497051
910.375	0.12487078
910.546	0.12461112
910.717	0.12448462
910.888	0.1244797
911.059	0.12437365
911.23	0.12416384
911.401	0.12414653
911.572	0.12385392
911.742	0.12363616
911.913	0.12360713
912.084	0.12344647
912.255	0.12328455
912.426	0.12308737
912.596	0.12275718
912.767	0.12255957
912.938	0.12245764
913.108	0.12216695
913.279	0.12180047
913.45	0.12146545
913.62	0.12125862
913.791	0.12123639
913.962	0.12105696
914.132	0.12082752
914.303	0.12080332
914.473	0.12091544
914.644	0.12098601
914.814	0.12097463
914.985	0.12089464
915.155	0.12086207
915.326	0.12082975
915.496	0.12049165
915.666	0.12030173
915.837	0.12008755
916.007	0.11970679
916.177	0.11932924
916.348	0.11909086
916.518	0.11880695
916.688	0.11865824
916.858	0.1183623
917.029	0.11807563
917.199	0.11799054
917.369	0.11783013
917.539	0.11773244
917.709	0.11767476
917.88	0.11745686
918.05	0.11723008
918.22	0.11697756
918.39	0.1167531
918.56	0.11648185
918.73	0.11627444
918.9	0.11587658
919.07	0.11564156
919.24	0.11556807
919.41	0.11546038
919.58	0.1153154
919.75	0.11520386
919.92	0.11481508
920.09	0.11488126
920.26	0.1146913
920.429	0.11441941
920.599	0.11425074
920.769	0.11398594
920.939	0.1137727
921.109	0.11356837
921.278	0.113217
921.448	0.11308724
921.618	0.11296243
921.787	0.11274613
921.957	0.11261089
922.127	0.11238133
922.296	0.11244835
922.466	0.11231698
922.636	0.11234133
922.805	0.11227792
922.975	0.11203909
923.144	0.11197926
923.314	0.11194607
923.483	0.11171265
923.653	0.11161137
923.822	0.11128874
923.992	0.11097573
924.161	0.11088441
924.331	0.11068569
924.5	0.11041137
924.669	0.11026128
924.839	0.11004533
925.008	0.10994965
925.177	0.10988476
925.347	0.10979299
925.516	0.10983331
925.685	0.10984377
925.854	0.10967788
926.023	0.10955746
926.193	0.10932064
926.362	0.10905858
926.531	0.10885925
926.7	0.10852215
926.869	0.10841889
927.038	0.1081819
927.207	0.10820826
927.376	0.10820912
927.545	0.1080348
927.715	0.10798155
927.884	0.10788115
928.052	0.10775328
928.221	0.10757062
928.39	0.10726155
928.559	0.10702575
928.728	0.107069
928.897	0.10726441
929.066	0.10725099
929.235	0.10713574
929.404	0.10723796
929.572	0.10733972
929.741	0.10735716
929.91	0.10750341
930.079	0.10725346
930.247	0.10717044
930.416	0.1069909
930.585	0.10685384
930.753	0.10657797
930.922	0.10659964
931.091	0.10642027
931.259	0.10625332
931.428	0.10620095
931.596	0.10619109
931.765	0.10635645
931.934	0.10636026
932.102	0.10598578
932.27	0.10569631
932.439	0.10558388
932.607	0.10540547
932.776	0.10527412
932.944	0.1048778
933.113	0.10470448
933.281	0.10465993
933.449	0.10439492
933.618	0.10396107
933.786	0.10373527
933.954	0.1036047
934.123	0.10359968
934.291	0.10325806
934.459	0.10301
934.627	0.10312939
934.795	0.10329984
934.964	0.10316061
935.132	0.10283058
935.3	0.1025997
935.468	0.10258641
935.636	0.10260033
935.804	0.10229814
935.972	0.10198065
936.14	0.10174052
936.308	0.10173635
936.476	0.10191657
936.644	0.10201581
936.812	0.10203605
936.98	0.10182116
937.148	0.10200035
937.316	0.10204874
937.484	0.10232753
937.652	0.10192309
937.82	0.10179991
937.987	0.10174478
938.155	0.10201163
938.323	0.10217094
938.491	0.10196545
938.658	0.10216684
938.826	0.10237659
938.994	0.10274633
939.162	0.10261058
939.329	0.10298068
939.497	0.10277061
939.665	0.10333463
939.832	0.10331208
940	0.10322971
940.167	0.10306398
940.335	0.10271203
940.502	0.10272812
940.67	0.10241126
940.837	0.10279018
941.005	0.10218547
941.172	0.10217839
941.34	0.10235013
941.507	0.10394953
941.674	0.10391331
941.842	0.10447198
942.009	0.10494243
942.177	0.10545309
942.344	0.10585276
942.511	0.10559089
942.678	0.10522214
942.846	0.10431328
943.013	0.10456888
943.18	0.1037086
943.347	0.1038404
943.514	0.10341531
943.682	0.10369264
943.849	0.10345878
944.016	0.10381124
944.183	0.10291803
944.35	0.10304293
944.517	0.10314942
944.684	0.10349143
944.851	0.10184324
945.018	0.10088551
945.185	0.10122191
945.352	0.10166038
945.519	0.10118926
945.686	0.10107035
945.853	0.10217819
946.02	0.10282904
946.187	0.10384537
946.353	0.10359625
946.52	0.10345765
946.687	0.10298259
946.854	0.10180825
947.021	0.10032232
947.187	0.10011183
947.354	0.09954439
947.521	0.09977892
947.687	0.09970859
947.854	0.10061577
948.021	0.10099175
948.187	0.10082806
948.354	0.10053956
948.52	0.0999895
948.687	0.09957773
948.854	0.09953662
949.02	0.09820202
949.187	0.0973937
949.353	0.0964813
949.52	0.09563849
949.686	0.09556087
949.852	0.09561644
950.019	0.09504686
950.185	0.09520803
950.352	0.09571689
950.518	0.09629265
950.684	0.09788798
950.851	0.09799627
951.017	0.09719331
951.183	0.09723616
951.349	0.09702248
951.516	0.09608152
951.682	0.09584087
951.848	0.09472685
952.014	0.09406357
952.18	0.09438258
952.346	0.09414669
952.512	0.09417688
952.679	0.09436364
952.845	0.09440728
953.011	0.09416752
953.177	0.09381428
953.343	0.09331185
953.509	0.09306715
953.675	0.09276589
953.841	0.09324554
954.007	0.09330021
954.172	0.0937141
954.338	0.09344861
954.504	0.09258673
954.67	0.09181556
954.836	0.09201923
955.002	0.09156824
955.167	0.09137839
955.333	0.09033043
955.499	0.09082316
955.665	0.09114181
955.83	0.09126661
955.996	0.09062839
956.162	0.09003685
956.327	0.08909812
956.493	0.08904896
956.659	0.08884885
956.824	0.08889156
956.99	0.08909436
957.155	0.08872383
957.321	0.08865694
957.486	0.08875526
957.652	0.08858083
957.817	0.08891554
957.983	0.08865975
958.148	0.08827061
958.314	0.08831037
958.479	0.08838094
958.644	0.0883284
958.81	0.08853056
958.975	0.08766837
959.14	0.08766192
959.306	0.08752932
959.471	0.08730513
959.636	0.08652542
959.801	0.0869296
959.967	0.08696346
960.132	0.08727563
960.297	0.08711003
960.462	0.08719366
960.627	0.08733963
960.792	0.08741269
960.957	0.08738361
961.123	0.08733438
961.288	0.08722622
961.453	0.08704743
961.618	0.08711351
961.783	0.08688276
961.948	0.08667353
962.113	0.08558665
962.277	0.08479703
962.442	0.08482305
962.607	0.08481198
962.772	0.08437285
962.937	0.08394371
963.102	0.08402864
963.267	0.08458442
963.431	0.08486493
963.596	0.08473472
963.761	0.08472229
963.926	0.08487692
964.09	0.08509865
964.255	0.08515835
964.42	0.08499762
964.584	0.08504583
964.749	0.08424468
964.914	0.08358865
965.078	0.08322587
965.243	0.08267319
965.407	0.08210867
965.572	0.08178087
965.736	0.08111016
965.901	0.0814938
966.065	0.08228048
966.23	0.08235099
966.394	0.08316183
966.559	0.08339632
966.723	0.08344837
966.887	0.08388561
967.052	0.08357539
967.216	0.08297845
967.38	0.08278422
967.545	0.08228434
967.709	0.08270703
967.873	0.08263398
968.037	0.08280299
968.202	0.08300519
968.366	0.08301513
968.53	0.08303756
968.694	0.08297576
968.858	0.08225327
969.022	0.08221326
969.187	0.08158169
969.351	0.08132203
969.515	0.08117495
969.679	0.08096716
969.843	0.08069375
970.007	0.08073416
970.171	0.08059773
970.335	0.08061039
970.499	0.08028755
970.662	0.08041679
970.826	0.0804472
970.99	0.08015979
971.154	0.08036418
971.318	0.0802008
971.482	0.08052668
971.645	0.08081226
971.809	0.0806472
971.973	0.08037189
972.137	0.08081578
972.3	0.08072529
972.464	0.08071972
972.628	0.08076489
972.791	0.08080059
972.955	0.08044342
973.119	0.08050316
973.282	0.08063094
973.446	0.08037931
973.609	0.08011756
973.773	0.07967945
973.936	0.07949109
974.1	0.07945002
974.263	0.07962399
974.427	0.07912027
974.59	0.07872271
974.754	0.0792686
974.917	0.07921202
975.08	0.07888935
975.244	0.07897101
975.407	0.07856321
975.57	0.07879727
975.734	0.07887768
975.897	0.07841031
976.06	0.07849346
976.223	0.07854862
976.387	0.0786407
976.55	0.07893748
976.713	0.07883373
976.876	0.07931292
977.039	0.0793013
977.202	0.07913432
977.365	0.07901376
977.528	0.07868816
977.692	0.07866253
977.855	0.07828636
978.018	0.07773691
978.181	0.07753112
978.344	0.07737498
978.506	0.07731341
978.669	0.07706599
978.832	0.07657011
978.995	0.07677165
979.158	0.07696509
979.321	0.07664864
979.484	0.07699819
979.646	0.07693982
979.809	0.07764792
979.972	0.07735981
980.135	0.07692863
980.297	0.0762966
980.46	0.07654889
980.623	0.07638582
980.786	0.07626186
980.948	0.07613437
981.111	0.07629627
981.273	0.07604327
981.436	0.07667994
981.599	0.07640003
981.761	0.0760888
981.924	0.07636491
982.086	0.07619793
982.249	0.07622097
982.411	0.07633836
982.573	0.07594253
982.736	0.07653347
982.898	0.07675834
983.061	0.07663151
983.223	0.07575475
983.385	0.07571307
983.548	0.07620638
983.71	0.07567915
983.872	0.07546231
984.034	0.07501208
984.197	0.07476513
984.359	0.074823
984.521	0.07493669
984.683	0.07460785
984.845	0.07515723
985.008	0.07425248
985.17	0.07444352
985.332	0.07404585
985.494	0.07390903
985.656	0.07420472
985.818	0.07392188
985.98	0.07425172
986.142	0.07481068
986.304	0.07444628
986.466	0.07511546
986.628	0.07562442
986.79	0.07544753
986.952	0.07500861
987.113	0.07488797
987.275	0.07501722
987.437	0.074975
987.599	0.07459841
987.761	0.07430459
987.922	0.07388361
988.084	0.07421919
988.246	0.0737545
988.408	0.07364352
988.569	0.07387219
988.731	0.07420157
988.893	0.07467683
989.054	0.07464177
989.216	0.07465296
989.377	0.07465335
989.539	0.07422442
989.701	0.07353457
989.862	0.07333931
990.024	0.07272314
990.185	0.072082
990.347	0.0723252
990.508	0.07192873
990.669	0.07224292
990.831	0.07260935
990.992	0.07226911
991.154	0.07259391
991.315	0.07372673
991.476	0.0739427
991.638	0.07441111
991.799	0.07430796
991.96	0.07401015
992.121	0.07413217
992.283	0.07436165
992.444	0.07384319
992.605	0.07352553
992.766	0.07388789
992.927	0.07375152
993.088	0.07424529
993.249	0.07413776
993.41	0.07381141
993.572	0.07354163
993.733	0.07304317
993.894	0.07192835
994.055	0.07132903
994.216	0.07096872
994.376	0.07063765
994.537	0.07052656
994.698	0.071164
994.859	0.07204746
995.02	0.07353469
995.181	0.07349265
995.342	0.07403755
995.503	0.07459223
995.663	0.07478222
995.824	0.07410669
995.985	0.07384005
996.146	0.07273711
996.306	0.07375474
996.467	0.0731413
996.628	0.07307369
996.788	0.07286691
996.949	0.07343937
997.11	0.07296301
997.27	0.07305592
997.431	0.07188315
997.591	0.07163676
997.752	0.07045073
997.912	0.07052297
998.073	0.07102045
998.233	0.07175443
998.394	0.07159155
998.554	0.07226449
998.714	0.07269191
998.875	0.07288614
999.035	0.07216751
999.196	0.07147396
999.356	0.07006776
999.516	0.07021082
999.676	0.07009326
999.837	0.06995522
999.997	0.07024273
1000.157	0.07077413
1000.317	0.06970736
1000.477	0.06991668
1000.638	0.06957844
1000.798	0.06963736
1000.958	0.0701826
1001.118	0.07143033
1001.278	0.07191604
1001.438	0.07198015
1001.598	0.07279227
1001.758	0.07305782
1001.918	0.072432
1002.078	0.07138239
1002.238	0.06989817
1002.398	0.06940942
1002.558	0.07006377
1002.718	0.0694502
1002.878	0.06988124
1003.037	0.06967249
1003.197	0.07015539
1003.357	0.07100863
1003.517	0.07109651
1003.677	0.07059079
1003.836	0.07079774
1003.996	0.07057142
1004.156	0.07177837
1004.315	0.07177536
1004.475	0.07195671
1004.635	0.07289325
1004.794	0.07479841
1004.954	0.07505146
1005.114	0.07456434
1005.273	0.07423556
1005.433	0.07366747
1005.592	0.07300869
1005.752	0.07229834
1005.911	0.07147656
1006.071	0.07246165
1006.23	0.07241481
1006.389	0.07287376
1006.549	0.07302925
1006.708	0.07209095
1006.868	0.07094494
1007.027	0.07126029
1007.186	0.07114889
1007.345	0.07136171
1007.505	0.07066051
1007.664	0.07124255
1007.823	0.0717252
1007.982	0.07267238
1008.142	0.07182631
1008.301	0.07080383
1008.46	0.07072246
1008.619	0.07043191
1008.778	0.07045248
1008.937	0.07146507
1009.096	0.07124118
1009.255	0.07087296
1009.414	0.07009073
1009.573	0.07028633
1009.732	0.07068994
1009.891	0.07062453
1010.05	0.07032024
1010.209	0.07095479
1010.368	0.07120606
1010.527	0.07185023
1010.686	0.07291677
1010.845	0.07225428
1011.003	0.07256301
1011.162	0.07205862
1011.321	0.06938345
1011.48	0.06925974
1011.638	0.06861684
1011.797	0.06761261
1011.956	0.06796622
1012.115	0.06816142
1012.273	0.06850508
1012.432	0.07016036
1012.59	0.07093979
1012.749	0.07206578
1012.908	0.07173861
1013.066	0.07312544
1013.225	0.07145627
1013.383	0.0718439
1013.542	0.07166517
1013.7	0.07054094
1013.859	0.07029044
1014.017	0.07112744
1014.175	0.06949298
1014.334	0.07058048
1014.492	0.07067912
1014.65	0.07107242
1014.809	0.07128778
1014.967	0.07254881
1015.125	0.07333389
1015.284	0.07548971
1015.442	0.07572327
1015.6	0.07700505
1015.758	0.07690854
1015.916	0.07762151
1016.075	0.07649405
1016.233	0.07547408
1016.391	0.07380816
1016.549	0.07448934
1016.707	0.07363505
1016.865	0.07616668
1017.023	0.07454273
1017.181	0.07492588
1017.339	0.07441351
1017.497	0.07332857
1017.655	0.07335946
1017.813	0.07241761
1017.971	0.07097754
1018.129	0.07261635
1018.286	0.07478527
1018.444	0.07413546
1018.602	0.07625692
1018.76	0.07486538
1018.918	0.07715378
1019.075	0.07611429
1019.233	0.07525042
1019.391	0.07153286
1019.549	0.07211806
1019.706	0.07234504
1019.864	0.07116281
1020.022	0.0710877
1020.179	0.06966149
1020.337	0.07049062
1020.494	0.07177267
1020.652	0.07237298
1020.809	0.07231273
1020.967	0.07260852
1021.124	0.0702277
1021.282	0.07291208
1021.439	0.07188332
1021.597	0.07130068
1021.754	0.07136098
1021.911	0.0730051
1022.069	0.07328711
1022.226	0.0723126
1022.384	0.07322395
1022.541	0.07223596
1022.698	0.07310124
1022.855	0.0723908
1023.013	0.07056863
1023.17	0.06886258
1023.327	0.07203823
1023.484	0.07041001
1023.641	0.07333628
1023.798	0.07525647
1023.956	0.07792646
1024.113	0.0761852
1024.27	0.07651221
1024.427	0.07797787
1024.584	0.08030863
1024.741	0.07964601
1024.898	0.07597742
1025.055	0.07343089
1025.212	0.07350639
1025.369	0.07556395
1025.525	0.07152021
1025.682	0.07158109
1025.839	0.07336302
1025.996	0.07557277
1026.153	0.07833169
1026.31	0.08105522
1026.466	0.08397834
1026.623	0.08701508
1026.78	0.08975687
1026.937	0.08907997
1027.093	0.09005559
1027.25	0.09211518
1027.407	0.0898046
1027.563	0.09010746
1027.72	0.09019848
1027.876	0.08451261
1028.033	0.08551998
1028.19	0.08454034
1028.346	0.07937162
1028.503	0.08126715
1028.659	0.08059255
1028.816	0.07841186
1028.972	0.08349163
1029.128	0.0861015
1029.285	0.08227165
1029.441	0.0853229
1029.598	0.08286957
1029.754	0.0846492
1029.91	0.08744864
1030.067	0.08300175
1030.223	0.08347031
1030.379	0.08511478
1030.535	0.08639311
1030.691	0.09228168
1030.848	0.09661038
1031.004	0.10077557
1031.16	0.10547872
1031.316	0.10519898
1031.472	0.11107694
1031.628	0.11026716
1031.784	0.10691259
1031.94	0.10646342
1032.096	0.09644075
1032.252	0.09569456
1032.408	0.09811046
1032.564	0.09792166
1032.72	0.09887995
1032.876	0.09546246
1033.032	0.09346989
1033.188	0.09682546
1033.344	0.09894725
1033.5	0.09695275
1033.655	0.09629782
1033.811	0.09657504
1033.967	0.10622052
