Data from 0_1_mm_pl_50pc_Absorbance__0__16-32-03-399.txt Node

Date: Fri Feb 24 16:32:03 CET 2023
User: Ange
Spectrometer: FLMT08341
Trigger mode: 0
Integration Time (sec): 1.000000E-2
Scans to average: 400
Electric dark correction enabled: true
Nonlinearity correction enabled: false
Boxcar width: 3
XAxis mode: Wavelengths
Number of Pixels in Spectrum: 3648
>>>>>Begin Spectral Data<<<<<
345.271	-0.01306087
345.487	-0.02148845
345.704	-0.02987951
345.921	-0.03954
346.137	-0.04471838
346.354	-0.06084448
346.571	-0.10309757
346.787	-0.18847875
347.004	0.10985498
347.22	-0.0048772
347.437	-0.07192018
347.653	-0.10381167
347.87	0.20252272
348.086	-0
348.303	-0.16114004
348.519	0.39287722
348.736	0.38126448
348.952	0.39016295
349.169	0.40092328
349.385	0.41876981
349.601	0.41533541
349.818	0.41293734
350.034	0.41143627
350.251	0.40883916
350.467	0.41308886
350.683	0.40444299
350.9	0.40382104
351.116	0.4006934
351.332	0.39783153
351.549	0.41062865
351.765	0.42277889
351.981	0.42603385
352.197	0.44032146
352.414	0.45594954
352.63	0.46272992
352.846	0.47302578
353.062	0.46398343
353.278	0.45542974
353.495	0.46604969
353.711	0.46676397
353.927	0.46850772
354.143	0.46769416
354.359	0.46248717
354.575	0.46033902
354.792	0.47317537
355.008	0.46536777
355.224	0.4597845
355.44	0.45419651
355.656	0.45280388
355.872	0.461271
356.088	0.48072999
356.304	0.48232639
356.52	0.48500328
356.736	0.48953852
356.952	0.49208314
357.168	0.49474508
357.384	0.49608096
357.6	0.4843493
357.816	0.48537629
358.032	0.49008933
358.248	0.50275616
358.464	0.50262436
358.679	0.50597149
358.895	0.50595103
359.111	0.5114707
359.327	0.5037868
359.543	0.50562496
359.759	0.50626027
359.974	0.50739483
360.19	0.50342944
360.406	0.50298213
360.622	0.50107642
360.838	0.49802295
361.053	0.49844849
361.269	0.4958667
361.485	0.49656374
361.701	0.50140559
361.916	0.49609889
362.132	0.49364589
362.348	0.49762668
362.563	0.49729299
362.779	0.49404916
362.995	0.49507645
363.21	0.49800275
363.426	0.49800032
363.641	0.49833638
363.857	0.50057146
364.073	0.49668987
364.288	0.49060802
364.504	0.49621303
364.719	0.49570269
364.935	0.49522207
365.15	0.49513478
365.366	0.49357709
365.581	0.49831661
365.797	0.50025672
366.012	0.49092034
366.228	0.48440288
366.443	0.48987188
366.658	0.48906996
366.874	0.48530187
367.089	0.48626741
367.305	0.48779399
367.52	0.48773576
367.735	0.48584148
367.951	0.47890328
368.166	0.47786845
368.381	0.4823293
368.597	0.47670478
368.812	0.47541366
369.027	0.47525417
369.243	0.47678227
369.458	0.48404784
369.673	0.48319594
369.888	0.4797123
370.104	0.47581836
370.319	0.47591464
370.534	0.47340241
370.749	0.47145203
370.964	0.4688424
371.179	0.46666742
371.395	0.46289138
371.61	0.4639404
371.825	0.45909431
372.04	0.45836083
372.255	0.45524105
372.47	0.44984287
372.685	0.44469471
372.9	0.44217019
373.115	0.4383116
373.33	0.43800531
373.545	0.43594459
373.76	0.43493288
373.975	0.43201585
374.19	0.42976632
374.405	0.42861557
374.62	0.43059545
374.835	0.43170103
375.05	0.43075264
375.265	0.42882451
375.48	0.42697044
375.695	0.43226415
375.91	0.42885118
376.125	0.42235501
376.339	0.41591752
376.554	0.41150356
376.769	0.40942773
376.984	0.40845996
377.199	0.40546599
377.414	0.40366853
377.628	0.4040551
377.843	0.4042257
378.058	0.40434369
378.273	0.40377647
378.487	0.40141522
378.702	0.39889374
378.917	0.398539
379.131	0.39435148
379.346	0.38904914
379.561	0.38433379
379.775	0.38040468
379.99	0.37616109
380.205	0.37216044
380.419	0.36793217
380.634	0.36515799
380.848	0.36605331
381.063	0.36502846
381.278	0.36512156
381.492	0.36427999
381.707	0.36366607
381.921	0.36124183
382.136	0.36207384
382.35	0.35836652
382.565	0.35662146
382.779	0.35419659
382.994	0.3519446
383.208	0.34880504
383.422	0.34926305
383.637	0.34668725
383.851	0.34659627
384.066	0.34583174
384.28	0.34546178
384.494	0.34426166
384.709	0.34330408
384.923	0.34158968
385.137	0.33822512
385.352	0.33655041
385.566	0.33498847
385.78	0.33177552
385.995	0.32956794
386.209	0.32713465
386.423	0.32592886
386.637	0.32524133
386.852	0.32149615
387.066	0.31896503
387.28	0.31659483
387.494	0.31542605
387.708	0.31389187
387.923	0.31127645
388.137	0.311124
388.351	0.31117141
388.565	0.31087458
388.779	0.31003266
388.993	0.30995862
389.207	0.30906366
389.421	0.30770202
389.635	0.30421741
389.85	0.30260412
390.064	0.29994456
390.278	0.29858078
390.492	0.29684327
390.706	0.29522127
390.92	0.29399275
391.134	0.29409167
391.348	0.29357204
391.561	0.29200739
391.775	0.28987629
391.989	0.28668579
392.203	0.28546182
392.417	0.28395028
392.631	0.28281887
392.845	0.28021588
393.059	0.27944798
393.273	0.27772438
393.486	0.27601561
393.7	0.2736424
393.914	0.27323983
394.128	0.27126272
394.342	0.26968389
394.555	0.26750113
394.769	0.26638501
394.983	0.26601702
395.197	0.26553358
395.41	0.26310676
395.624	0.26200439
395.838	0.26093446
396.051	0.26124148
396.265	0.2596006
396.479	0.25879277
396.692	0.25713298
396.906	0.25570488
397.12	0.25432966
397.333	0.25370449
397.547	0.25148996
397.76	0.25115195
397.974	0.24954203
398.187	0.24887764
398.401	0.24823859
398.614	0.24724266
398.828	0.24596098
399.041	0.24483944
399.255	0.24328752
399.468	0.24203152
399.682	0.24080867
399.895	0.23990626
400.109	0.23846111
400.322	0.236765
400.536	0.23527379
400.749	0.23490836
400.962	0.23452752
401.176	0.23304788
401.389	0.2313334
401.602	0.22973713
401.816	0.22924619
402.029	0.22881578
402.242	0.22736431
402.456	0.22597642
402.669	0.22502643
402.882	0.22380478
403.095	0.22323186
403.309	0.2220673
403.522	0.22122524
403.735	0.22015438
403.948	0.21949276
404.161	0.21949839
404.375	0.21901675
404.588	0.21843666
404.801	0.21740301
405.014	0.21630642
405.227	0.21592637
405.44	0.21503121
405.653	0.21404913
405.866	0.21227012
406.079	0.21095543
406.293	0.20999448
406.506	0.20911379
406.719	0.20809313
406.932	0.20721696
407.145	0.20607589
407.358	0.20609341
407.571	0.20496085
407.784	0.20460339
407.996	0.20379169
408.209	0.2027365
408.422	0.20149415
408.635	0.20066589
408.848	0.20043874
409.061	0.1996273
409.274	0.19815561
409.487	0.19755097
409.7	0.19679143
409.912	0.19642544
410.125	0.1958538
410.338	0.19482614
410.551	0.19428104
410.764	0.19391599
410.976	0.19273071
411.189	0.19221777
411.402	0.19121115
411.615	0.19046079
411.827	0.18960148
412.04	0.18904248
412.253	0.18839194
412.465	0.18780017
412.678	0.18690182
412.891	0.18681469
413.103	0.18554466
413.316	0.18465605
413.529	0.18441901
413.741	0.18395912
413.954	0.18332829
414.166	0.18275606
414.379	0.18163021
414.591	0.18162114
414.804	0.18120015
415.016	0.18051316
415.229	0.17952024
415.441	0.17910685
415.654	0.17876975
415.866	0.17853993
416.079	0.17780808
416.291	0.17710392
416.504	0.17657614
416.716	0.17634656
416.928	0.17586295
417.141	0.17524113
417.353	0.17463541
417.566	0.17411599
417.778	0.1740346
417.99	0.17313969
418.203	0.17234877
418.415	0.1715837
418.627	0.17137018
418.839	0.17098153
419.052	0.17071531
419.264	0.17022262
419.476	0.16977538
419.688	0.16945552
419.901	0.16906224
420.113	0.16818113
420.325	0.1676685
420.537	0.16714068
420.749	0.16663872
420.961	0.16622044
421.174	0.16569052
421.386	0.16517739
421.598	0.16460553
421.81	0.16394901
422.022	0.16338361
422.234	0.16291207
422.446	0.16260578
422.658	0.16198021
422.87	0.16165679
423.082	0.16162198
423.294	0.16118044
423.506	0.16069808
423.718	0.1601184
423.93	0.15954526
424.142	0.15914142
424.354	0.15863349
424.566	0.15808897
424.778	0.15776209
424.99	0.15751267
425.202	0.1570605
425.414	0.15678321
425.625	0.15666012
425.837	0.15610899
426.049	0.15562246
426.261	0.15525145
426.473	0.15438487
426.684	0.15386953
426.896	0.15361693
427.108	0.15316602
427.32	0.15293818
427.531	0.15258656
427.743	0.15228294
427.955	0.152447
428.167	0.15229304
428.378	0.15194563
428.59	0.15162082
428.802	0.15146932
429.013	0.15118623
429.225	0.15069985
429.436	0.15017828
429.648	0.15010946
429.86	0.14974837
430.071	0.14949944
430.283	0.14906305
430.494	0.14897456
430.706	0.14866799
430.917	0.14843661
431.129	0.1478339
431.34	0.14763265
431.552	0.14747752
431.763	0.14724041
431.975	0.14671784
432.186	0.1464454
432.398	0.14628836
432.609	0.14594034
432.821	0.1455365
433.032	0.14522218
433.243	0.1448955
433.455	0.14474896
433.666	0.14458131
433.877	0.14435662
434.089	0.14435278
434.3	0.1441384
434.511	0.14379007
434.723	0.14367808
434.934	0.1432104
435.145	0.14278097
435.356	0.14247309
435.568	0.14208807
435.779	0.14191087
435.99	0.14157635
436.201	0.14136178
436.412	0.14108302
436.624	0.14119793
436.835	0.14100538
437.046	0.14090631
437.257	0.14062652
437.468	0.1407085
437.679	0.14035841
437.89	0.14024686
438.101	0.14000792
438.312	0.13971922
438.523	0.1393242
438.734	0.1391589
438.945	0.1387021
439.156	0.1383758
439.367	0.13833317
439.578	0.13820455
439.789	0.1378908
440	0.13771671
440.211	0.13731144
440.422	0.13723291
440.633	0.13718645
440.844	0.13677122
441.055	0.13626581
441.266	0.13611677
441.477	0.13583425
441.687	0.13565295
441.898	0.13542597
442.109	0.1350003
442.32	0.13474879
442.531	0.13436407
442.741	0.13395453
442.952	0.13378079
443.163	0.13369048
443.374	0.13331309
443.584	0.13307222
443.795	0.13290302
444.006	0.13291372
444.216	0.13275125
444.427	0.13238203
444.638	0.13191972
444.848	0.13175365
445.059	0.13175098
445.27	0.13147424
445.48	0.13122527
445.691	0.13111852
445.901	0.13093192
446.112	0.13084418
446.323	0.13066791
446.533	0.1303695
446.744	0.13024031
446.954	0.12985891
447.165	0.12954233
447.375	0.12946744
447.586	0.12942433
447.796	0.12904991
448.006	0.12895076
448.217	0.12876958
448.427	0.12869597
448.638	0.12868007
448.848	0.12835534
449.058	0.12813323
449.269	0.12818824
449.479	0.12799778
449.689	0.12793109
449.9	0.12783736
450.11	0.12763286
450.32	0.12763796
450.531	0.12743079
450.741	0.12724562
450.951	0.12720745
451.161	0.1270393
451.372	0.12701392
451.582	0.12711352
451.792	0.12700033
452.002	0.12688033
452.212	0.12676205
452.422	0.12651101
452.633	0.1262347
452.843	0.12611574
453.053	0.12564644
453.263	0.12563019
453.473	0.1255663
453.683	0.12539512
453.893	0.12525194
454.103	0.12534677
454.313	0.12514999
454.523	0.12525261
454.733	0.12497696
454.943	0.12486533
455.153	0.12474858
455.363	0.12456648
455.573	0.12439938
455.783	0.12435213
455.993	0.1242059
456.203	0.1242858
456.413	0.12419331
456.623	0.12413947
456.833	0.12430776
457.042	0.12414324
457.252	0.12403123
457.462	0.12396772
457.672	0.1238107
457.882	0.12373587
458.091	0.12369855
458.301	0.12347429
458.511	0.12348514
458.721	0.12350295
458.931	0.12337136
459.14	0.12315889
459.35	0.12317409
459.56	0.12302896
459.769	0.12298307
459.979	0.12292165
460.189	0.12281887
460.398	0.12292293
460.608	0.12306983
460.817	0.12285827
461.027	0.12280473
461.237	0.12276639
461.446	0.12275507
461.656	0.12275373
461.865	0.12246853
462.075	0.12241531
462.284	0.12238375
462.494	0.122369
462.703	0.12218892
462.913	0.12206569
463.122	0.12189357
463.332	0.1219544
463.541	0.12188926
463.751	0.12190262
463.96	0.12197894
464.169	0.12203424
464.379	0.1220629
464.588	0.12205347
464.797	0.12209168
465.007	0.12200584
465.216	0.12208187
465.425	0.12204608
465.635	0.12208136
465.844	0.12194244
466.053	0.1219543
466.263	0.12193875
466.472	0.12194175
466.681	0.12182625
466.89	0.12178151
467.099	0.12177887
467.309	0.12177939
467.518	0.1217895
467.727	0.1217354
467.936	0.12167771
468.145	0.12171736
468.354	0.12180059
468.563	0.12181486
468.772	0.1218819
468.982	0.12180524
469.191	0.12186581
469.4	0.12192495
469.609	0.1218092
469.818	0.12179287
470.027	0.12169668
470.236	0.1216155
470.445	0.12154798
470.654	0.12143438
470.863	0.1213842
471.072	0.12142583
471.28	0.12129388
471.489	0.12134387
471.698	0.12136039
471.907	0.12147464
472.116	0.12146736
472.325	0.12146094
472.534	0.12149697
472.743	0.12148407
472.951	0.12152955
473.16	0.12157211
473.369	0.12159667
473.578	0.1217153
473.786	0.12180116
473.995	0.1219052
474.204	0.12207635
474.413	0.12216042
474.621	0.12226406
474.83	0.12227273
475.039	0.1222279
475.247	0.12228324
475.456	0.1222955
475.665	0.12229475
475.873	0.12221713
476.082	0.12221179
476.291	0.12223524
476.499	0.12233014
476.708	0.12235934
476.916	0.12245195
477.125	0.12254119
477.333	0.12274843
477.542	0.12284192
477.75	0.12296562
477.959	0.12307764
478.167	0.12313371
478.376	0.12317815
478.584	0.12325606
478.793	0.12336871
479.001	0.12348544
479.209	0.123594
479.418	0.12353767
479.626	0.12367277
479.834	0.12378301
480.043	0.12395003
480.251	0.12390317
480.459	0.12396093
480.668	0.12398452
480.876	0.12418113
481.084	0.12418736
481.293	0.12421737
481.501	0.12411248
481.709	0.12418615
481.917	0.12423761
482.125	0.12435421
482.334	0.12440045
482.542	0.12449339
482.75	0.12445452
482.958	0.12463699
483.166	0.12477695
483.374	0.12485864
483.583	0.12487226
483.791	0.12500621
483.999	0.12516065
484.207	0.12533513
484.415	0.12542714
484.623	0.12549306
484.831	0.12567444
485.039	0.12589242
485.247	0.12599205
485.455	0.1260941
485.663	0.12631216
485.871	0.12646029
486.079	0.12659998
486.287	0.12667209
486.495	0.12676989
486.702	0.12691035
486.91	0.12700878
487.118	0.12708892
487.326	0.12725787
487.534	0.12739347
487.742	0.12758362
487.95	0.12773893
488.157	0.12786519
488.365	0.12809647
488.573	0.12824639
488.781	0.12835262
488.988	0.12854954
489.196	0.1287134
489.404	0.12889208
489.612	0.12909015
489.819	0.12920275
490.027	0.129337
490.235	0.12949563
490.442	0.12959568
490.65	0.1297262
490.857	0.12991997
491.065	0.12997439
491.273	0.13006766
491.48	0.13024959
491.688	0.13030849
491.895	0.13040034
492.103	0.1305302
492.31	0.13065217
492.518	0.13082536
492.725	0.13104541
492.933	0.13121309
493.14	0.1314353
493.348	0.13165376
493.555	0.13188435
493.763	0.13197932
493.97	0.13214508
494.177	0.13234697
494.385	0.13255874
494.592	0.13276923
494.8	0.13296825
495.007	0.13311809
495.214	0.13335252
495.422	0.13357647
495.629	0.13368908
495.836	0.1337852
496.043	0.13393116
496.251	0.13416603
496.458	0.13433039
496.665	0.13453184
496.872	0.13477908
497.08	0.13502426
497.287	0.13526903
497.494	0.13551249
497.701	0.13571659
497.908	0.13590546
498.115	0.1361
498.322	0.13627678
498.53	0.13648568
498.737	0.13669695
498.944	0.13688429
499.151	0.13711108
499.358	0.13730522
499.565	0.13748552
499.772	0.13762005
499.979	0.1377908
500.186	0.13806533
500.393	0.13828785
500.6	0.13839378
500.807	0.138582
501.014	0.13876731
501.221	0.13906211
501.427	0.13928658
501.634	0.13941927
501.841	0.13958353
502.048	0.13988451
502.255	0.14009308
502.462	0.14035517
502.669	0.14056127
502.875	0.14086591
503.082	0.14105831
503.289	0.14126285
503.496	0.1414319
503.702	0.14172443
503.909	0.14201689
504.116	0.1422385
504.323	0.14236325
504.529	0.14266329
504.736	0.14290005
504.943	0.14310867
505.149	0.14334546
505.356	0.14350669
505.563	0.14373369
505.769	0.14399432
505.976	0.14422538
506.182	0.14451698
506.389	0.14486276
506.595	0.14512878
506.802	0.14538193
507.008	0.14562965
507.215	0.14590889
507.421	0.14618741
507.628	0.14642006
507.834	0.14660154
508.041	0.14685129
508.247	0.14708671
508.454	0.14737912
508.66	0.14761515
508.866	0.14779257
509.073	0.14809066
509.279	0.1483408
509.486	0.148608
509.692	0.14881794
509.898	0.14908188
510.105	0.14938974
510.311	0.14965647
510.517	0.14988999
510.723	0.15016894
510.93	0.15041306
511.136	0.15075039
511.342	0.15097056
511.548	0.15115545
511.754	0.15145921
511.961	0.15171325
512.167	0.15197696
512.373	0.1522425
512.579	0.15253293
512.785	0.1528435
512.991	0.15321787
513.197	0.15351571
513.404	0.15387458
513.61	0.15417975
513.816	0.15451876
514.022	0.15482369
514.228	0.15510814
514.434	0.15533758
514.64	0.15561575
514.846	0.15586076
515.052	0.15615505
515.258	0.15642566
515.464	0.15662271
515.669	0.15693929
515.875	0.15715704
516.081	0.15742286
516.287	0.15771748
516.493	0.15801187
516.699	0.15825926
516.905	0.15862181
517.111	0.15888304
517.316	0.15923072
517.522	0.1595593
517.728	0.15988926
517.934	0.16017008
518.139	0.16048066
518.345	0.16075167
518.551	0.16104522
518.757	0.16141892
518.962	0.16169074
519.168	0.16195096
519.374	0.16221845
519.579	0.16251899
519.785	0.16286346
519.991	0.16322079
520.196	0.16351408
520.402	0.16385531
520.607	0.16417644
520.813	0.1645544
521.018	0.1648468
521.224	0.16509856
521.429	0.16535192
521.635	0.16559276
521.84	0.16586608
522.046	0.1661612
522.251	0.16640286
522.457	0.16669386
522.662	0.16699778
522.868	0.16735329
523.073	0.16770153
523.279	0.16799933
523.484	0.16832273
523.689	0.16867512
523.895	0.1690988
524.1	0.16947
524.305	0.16974711
524.511	0.16999451
524.716	0.17035512
524.921	0.17066548
525.126	0.17096193
525.332	0.17117672
525.537	0.17145626
525.742	0.17181698
525.947	0.17220127
526.153	0.17251722
526.358	0.172865
526.563	0.17318096
526.768	0.17355772
526.973	0.17389857
527.178	0.1741974
527.383	0.17452242
527.588	0.1748482
527.794	0.17519286
527.999	0.17556801
528.204	0.17582951
528.409	0.17614544
528.614	0.17644426
528.819	0.17673827
529.024	0.17701541
529.229	0.17728912
529.434	0.17754144
529.639	0.17788472
529.843	0.17819283
530.048	0.17848992
530.253	0.17880291
530.458	0.17913104
530.663	0.17948512
530.868	0.17986505
531.073	0.1801725
531.278	0.18050613
531.482	0.18092906
531.687	0.18132079
531.892	0.18163199
532.097	0.18188034
532.302	0.18218942
532.506	0.18250366
532.711	0.18279922
532.916	0.1830816
533.12	0.18332496
533.325	0.18362207
533.53	0.18398311
533.734	0.18428724
533.939	0.1846047
534.144	0.18495968
534.348	0.18522208
534.553	0.18559201
534.757	0.18601075
534.962	0.18631582
535.167	0.18663673
535.371	0.18703317
535.576	0.18734761
535.78	0.18772294
535.985	0.18801783
536.189	0.18828093
536.394	0.18861664
536.598	0.18889727
536.803	0.18912379
537.007	0.18944427
537.211	0.18972529
537.416	0.18998414
537.62	0.19030846
537.825	0.19062334
538.029	0.191007
538.233	0.19132815
538.438	0.19166309
538.642	0.19199284
538.846	0.19238027
539.05	0.19268034
539.255	0.19295511
539.459	0.19325705
539.663	0.19361206
539.867	0.1939232
540.072	0.19423184
540.276	0.19452272
540.48	0.19487923
540.684	0.19520701
540.888	0.19552109
541.092	0.19586507
541.297	0.19612025
541.501	0.19639253
541.705	0.19667683
541.909	0.19691849
542.113	0.19718701
542.317	0.19749662
542.521	0.19777152
542.725	0.19812342
542.929	0.19846451
543.133	0.19883726
543.337	0.19919114
543.541	0.19958283
543.745	0.19986547
543.949	0.20018988
544.153	0.20046351
544.357	0.20079569
544.56	0.20109184
544.764	0.20135624
544.968	0.20162066
545.172	0.20184517
545.376	0.20209356
545.58	0.20241111
545.783	0.20268162
545.987	0.20296832
546.191	0.20325761
546.395	0.2035328
546.598	0.203898
546.802	0.20421428
547.006	0.20445959
547.21	0.20468452
547.413	0.20493268
547.617	0.20525858
547.821	0.2055769
548.024	0.20586695
548.228	0.20609823
548.431	0.20633296
548.635	0.20663392
548.839	0.20685749
549.042	0.20711634
549.246	0.20733113
549.449	0.20755444
549.653	0.20784398
549.856	0.20820736
550.06	0.20847893
550.263	0.20882807
550.467	0.20911263
550.67	0.20941895
550.874	0.20971385
551.077	0.20995622
551.28	0.21022806
551.484	0.21050899
551.687	0.21068231
551.891	0.21094106
552.094	0.21114742
552.297	0.21143309
552.501	0.21175387
552.704	0.21195702
552.907	0.21211285
553.11	0.21240311
553.314	0.21264405
553.517	0.21290905
553.72	0.21313448
553.923	0.21339882
554.127	0.21367349
554.33	0.21396233
554.533	0.21423155
554.736	0.21438951
554.939	0.21463167
555.142	0.21482673
555.345	0.21495562
555.549	0.21514312
555.752	0.21537169
555.955	0.21555288
556.158	0.21586794
556.361	0.21612
556.564	0.21638859
556.767	0.21664723
556.97	0.21693952
557.173	0.21720441
557.376	0.21750118
557.579	0.21770011
557.782	0.21789599
557.984	0.21806544
558.187	0.21833185
558.39	0.21849142
558.593	0.21873543
558.796	0.21887099
558.999	0.21900291
559.202	0.2192459
559.404	0.21944975
559.607	0.21962885
559.81	0.21981363
560.013	0.21994774
560.216	0.22019025
560.418	0.22046285
560.621	0.22063313
560.824	0.22082531
561.026	0.22108956
561.229	0.22128247
561.432	0.22150143
561.634	0.22165953
561.837	0.22186219
562.04	0.22203744
562.242	0.22225551
562.445	0.22233712
562.647	0.22252526
562.85	0.22260722
563.053	0.22278078
563.255	0.22289136
563.458	0.22308082
563.66	0.22323439
563.863	0.22345008
564.065	0.22359916
564.268	0.22381904
564.47	0.22405406
564.672	0.22421107
564.875	0.22432361
565.077	0.22443332
565.28	0.22453845
565.482	0.22469419
565.684	0.22485279
565.887	0.22489992
566.089	0.22505844
566.291	0.22522588
566.494	0.22544872
566.696	0.22567013
566.898	0.22577796
567.1	0.22584813
567.303	0.22602069
567.505	0.22615109
567.707	0.22623496
567.909	0.22629139
568.111	0.22628397
568.314	0.22642798
568.516	0.22656643
568.718	0.22664951
568.92	0.22675622
569.122	0.22687888
569.324	0.22701064
569.526	0.22710408
569.728	0.22716033
569.93	0.22723851
570.132	0.22726936
570.334	0.22734342
570.536	0.22739572
570.738	0.22741327
570.94	0.22741878
571.142	0.22752482
571.344	0.22759853
571.546	0.22772777
571.748	0.2278372
571.95	0.22796678
572.152	0.22811755
572.354	0.2283376
572.555	0.22844654
572.757	0.22857125
572.959	0.22860468
573.161	0.22865488
573.363	0.22868604
573.564	0.22879806
573.766	0.2288312
573.968	0.22894371
574.17	0.22899152
574.371	0.22908181
574.573	0.22914878
574.775	0.22918446
574.976	0.22916943
575.178	0.22924848
575.38	0.22917737
575.581	0.2291828
575.783	0.2292299
575.985	0.22927497
576.186	0.22934125
576.388	0.22937778
576.589	0.22934797
576.791	0.22945236
576.992	0.22950766
577.194	0.22950054
577.395	0.22953364
577.597	0.22962905
577.798	0.22965783
578	0.22969773
578.201	0.2297615
578.402	0.22981803
578.604	0.22981782
578.805	0.2298258
579.007	0.2297964
579.208	0.22986683
579.409	0.22987923
579.611	0.22986526
579.812	0.22993039
580.013	0.23004174
580.215	0.22998919
580.416	0.22995616
580.617	0.22985452
580.818	0.22984469
581.019	0.22980041
581.221	0.22972869
581.422	0.22966163
581.623	0.22968883
581.824	0.22960767
582.025	0.22961995
582.226	0.22959842
582.428	0.22963284
582.629	0.229613
582.83	0.2296457
583.031	0.22962425
583.232	0.22966397
583.433	0.22968307
583.634	0.22965798
583.835	0.22956951
584.036	0.22950249
584.237	0.22940002
584.438	0.22935585
584.639	0.22933981
584.84	0.22933159
585.041	0.22934591
585.242	0.2292983
585.442	0.2293068
585.643	0.22935815
585.844	0.22934196
586.045	0.22932596
586.246	0.22918101
586.447	0.22911758
586.647	0.22907865
586.848	0.22902711
587.049	0.22891374
587.25	0.22884066
587.45	0.22875947
587.651	0.22883885
587.852	0.22880374
588.053	0.22895374
588.253	0.22895202
588.454	0.22899676
588.655	0.22904683
588.855	0.22904107
589.056	0.22902637
589.256	0.22907479
589.457	0.22893132
589.658	0.22896544
589.858	0.2288818
590.059	0.22885226
590.259	0.22886122
590.46	0.22877229
590.66	0.22871772
590.861	0.22874721
591.061	0.22866462
591.262	0.22871405
591.462	0.22870111
591.662	0.22862171
591.863	0.22856594
592.063	0.22848599
592.264	0.22842262
592.464	0.22836043
592.664	0.22829015
592.865	0.2283126
593.065	0.22819861
593.265	0.22819746
593.465	0.22810524
593.666	0.22802882
593.866	0.2279616
594.066	0.22799073
594.266	0.22782721
594.467	0.22785006
594.667	0.22778251
594.867	0.22783223
595.067	0.22771076
595.267	0.22756984
595.467	0.22734654
595.668	0.22728294
595.868	0.22720076
596.068	0.22710112
596.268	0.22688987
596.468	0.2269046
596.668	0.22690309
596.868	0.22692478
597.068	0.22680788
597.268	0.22679072
597.468	0.22673407
597.668	0.22674205
597.868	0.22667192
598.068	0.22662917
598.268	0.2265275
598.467	0.22659671
598.667	0.22642838
598.867	0.22634816
599.067	0.22630715
599.267	0.22613321
599.467	0.22601034
599.667	0.22592426
599.866	0.22580167
600.066	0.22581632
600.266	0.22576086
600.466	0.22568524
600.665	0.225718
600.865	0.225711
601.065	0.225709
601.264	0.22563401
601.464	0.22554514
601.664	0.22560605
601.863	0.22556237
602.063	0.22555524
602.263	0.22542812
602.462	0.22535028
602.662	0.22533383
602.861	0.22534332
603.061	0.22518406
603.26	0.22516492
603.46	0.22501451
603.659	0.22504721
603.859	0.22498271
604.058	0.22486111
604.258	0.22483691
604.457	0.22493866
604.657	0.22477186
604.856	0.22473148
605.056	0.22475466
605.255	0.22475798
605.454	0.22479695
605.654	0.22462042
605.853	0.22445836
606.052	0.22448339
606.252	0.22449487
606.451	0.22442396
606.65	0.22434852
606.849	0.22417537
607.049	0.22422624
607.248	0.22417866
607.447	0.22411926
607.646	0.22408043
607.845	0.22402983
608.045	0.22393748
608.244	0.22402059
608.443	0.22390629
608.642	0.2239255
608.841	0.22389337
609.04	0.22378913
609.239	0.22378586
609.438	0.22371807
609.637	0.22371307
609.836	0.2237753
610.035	0.22372893
610.234	0.22377898
610.433	0.22386887
610.632	0.22382019
610.831	0.22399873
611.03	0.22390286
611.229	0.22399294
611.428	0.22403484
611.627	0.2239967
611.826	0.22397655
612.025	0.22411391
612.224	0.2240003
612.422	0.22402819
612.621	0.22398092
612.82	0.22398139
613.019	0.22402037
613.218	0.22409779
613.416	0.2239464
613.615	0.22405233
613.814	0.22410955
614.012	0.22410123
614.211	0.22398267
614.41	0.22402741
614.608	0.22399839
614.807	0.22408552
615.006	0.22414963
615.204	0.22419731
615.403	0.22427223
615.602	0.22444461
615.8	0.22454911
615.999	0.2245417
616.197	0.22453579
616.396	0.22461185
616.594	0.22458453
616.793	0.2246466
616.991	0.22464436
617.19	0.22445046
617.388	0.22457199
617.586	0.2246375
617.785	0.22457646
617.983	0.22469923
618.182	0.22463569
618.38	0.22459792
618.578	0.2247405
618.777	0.22471887
618.975	0.22477297
619.173	0.22485105
619.372	0.2248831
619.57	0.2249548
619.768	0.22515144
619.966	0.22524156
620.165	0.22530218
620.363	0.22535915
620.561	0.22526982
620.759	0.22534465
620.957	0.22545895
621.155	0.22550969
621.354	0.22550027
621.552	0.22563792
621.75	0.22565127
621.948	0.22585619
622.146	0.22591282
622.344	0.22589079
622.542	0.22593373
622.74	0.2261444
622.938	0.22614087
623.136	0.22636771
623.334	0.22650843
623.532	0.22643855
623.73	0.22655513
623.928	0.22671335
624.126	0.22679375
624.324	0.22696009
624.522	0.22689141
624.719	0.22692851
624.917	0.22718502
625.115	0.22725084
625.313	0.22735909
625.511	0.22743627
625.708	0.22738411
625.906	0.22755553
626.104	0.22760776
626.302	0.22781085
626.499	0.22800766
626.697	0.22807397
626.895	0.22807886
627.093	0.22824906
627.29	0.2283817
627.488	0.22852976
627.686	0.2285708
627.883	0.22858241
628.081	0.22854333
628.278	0.22884498
628.476	0.22896734
628.673	0.22905344
628.871	0.22919366
629.068	0.22926959
629.266	0.22945565
629.463	0.22956152
629.661	0.22956471
629.858	0.22961698
630.056	0.229653
630.253	0.229639
630.451	0.22974447
630.648	0.22978167
630.845	0.22989771
631.043	0.23000858
631.24	0.23022705
631.438	0.23041931
631.635	0.23059593
631.832	0.23059822
632.029	0.23080183
632.227	0.23096381
632.424	0.23112803
632.621	0.23120169
632.818	0.23125274
633.016	0.23143894
633.213	0.23160408
633.41	0.23178756
633.607	0.23194965
633.804	0.23205825
634.001	0.23212333
634.199	0.23234818
634.396	0.2324777
634.593	0.23257522
634.79	0.23264837
634.987	0.232795
635.184	0.23293663
635.381	0.23317819
635.578	0.23338144
635.775	0.23344818
635.972	0.23363668
636.169	0.23375003
636.366	0.23381441
636.563	0.23384994
636.76	0.23385088
636.957	0.23392131
637.153	0.2339567
637.35	0.23410508
637.547	0.23424968
637.744	0.23441364
637.941	0.23461119
638.138	0.23485563
638.334	0.23492791
638.531	0.23519735
638.728	0.23536038
638.925	0.23565344
639.121	0.23584929
639.318	0.23604314
639.515	0.23614544
639.711	0.23640224
639.908	0.23640593
640.105	0.23649724
640.301	0.23642722
640.498	0.23647762
640.695	0.2366695
640.891	0.23676752
641.088	0.2368074
641.284	0.23707794
641.481	0.23720795
641.677	0.23734388
641.874	0.23741063
642.07	0.23749608
642.267	0.23776188
642.463	0.2378815
642.66	0.23805619
642.856	0.23816331
643.053	0.23827819
643.249	0.23853605
643.445	0.23864266
643.642	0.23867649
643.838	0.2388745
644.034	0.2389336
644.231	0.23907478
644.427	0.23925259
644.623	0.23935539
644.82	0.23952883
645.016	0.2396978
645.212	0.23973497
645.408	0.23987475
645.604	0.24015094
645.801	0.24037186
645.997	0.24053031
646.193	0.2405538
646.389	0.24078301
646.585	0.24095826
646.781	0.24121097
646.977	0.24129218
647.173	0.24133762
647.37	0.24144072
647.566	0.24163905
647.762	0.24167779
647.958	0.2418441
648.154	0.24188526
648.35	0.24197458
648.546	0.24211571
648.742	0.24238741
648.937	0.24236619
649.133	0.24258244
649.329	0.24282381
649.525	0.24296157
649.721	0.24315845
649.917	0.24340412
650.113	0.2434387
650.309	0.24386171
650.504	0.24395934
650.7	0.24400718
650.896	0.24419443
651.092	0.24428917
651.287	0.24437355
651.483	0.24462936
651.679	0.24464513
651.875	0.24481218
652.07	0.24489498
652.266	0.24499618
652.462	0.24512001
652.657	0.24522887
652.853	0.24524356
653.048	0.24542206
653.244	0.24543413
653.44	0.24563342
653.635	0.24567269
653.831	0.24591896
654.026	0.24611945
654.222	0.24625777
654.417	0.2463922
654.613	0.24658254
654.808	0.2466403
655.004	0.24685672
655.199	0.24689795
655.394	0.24696841
655.59	0.24719817
655.785	0.24722814
655.98	0.24737816
656.176	0.24747532
656.371	0.24768103
656.566	0.24780774
656.762	0.2478369
656.957	0.2478803
657.152	0.24795704
657.348	0.24805183
657.543	0.24824279
657.738	0.24832889
657.933	0.2483927
658.128	0.24862193
658.324	0.24867031
658.519	0.24891277
658.714	0.24910838
658.909	0.24921578
659.104	0.24932602
659.299	0.24949578
659.494	0.24955392
659.689	0.24974645
659.884	0.24978386
660.079	0.24979382
660.274	0.2499135
660.469	0.25000689
660.664	0.25013692
660.859	0.25025606
661.054	0.25040739
661.249	0.25057952
661.444	0.25073242
661.639	0.25081166
661.834	0.25083626
662.029	0.25098212
662.224	0.25113088
662.418	0.2512343
662.613	0.25137254
662.808	0.25142177
663.003	0.25156507
663.198	0.25180367
663.392	0.25184856
663.587	0.25202665
663.782	0.25203952
663.977	0.25205089
664.171	0.25216278
664.366	0.25224934
664.561	0.2522635
664.755	0.25242534
664.95	0.25236703
665.144	0.25244883
665.339	0.25263319
665.534	0.25277131
665.728	0.25285051
665.923	0.25300995
666.117	0.25301782
666.312	0.25315534
666.506	0.25334629
666.701	0.25335539
666.895	0.25348159
667.09	0.25363098
667.284	0.25379143
667.479	0.25395542
667.673	0.2540481
667.867	0.25414852
668.062	0.25420729
668.256	0.25424466
668.45	0.25433489
668.645	0.25420603
668.839	0.25418297
669.033	0.25421152
669.228	0.25421296
669.422	0.25438819
669.616	0.25442214
669.81	0.25453098
670.004	0.2546924
670.199	0.25486296
670.393	0.25502774
670.587	0.25515618
670.781	0.25520356
670.975	0.25538811
671.169	0.25538798
671.363	0.25549497
671.558	0.25553545
671.752	0.25563878
671.946	0.25571852
672.14	0.25577878
672.334	0.25575516
672.528	0.25594776
672.722	0.25590057
672.916	0.25595924
673.11	0.25584401
673.304	0.2559911
673.497	0.25597408
673.691	0.25607213
673.885	0.2559412
674.079	0.25606355
674.273	0.25602318
674.467	0.25615754
674.661	0.25608062
674.854	0.25617619
675.048	0.25627803
675.242	0.25641327
675.436	0.25650372
675.629	0.25668767
675.823	0.25674543
676.017	0.25685142
676.211	0.25684042
676.404	0.25684991
676.598	0.25688019
676.792	0.25689471
676.985	0.25697886
677.179	0.25708661
677.372	0.2571238
677.566	0.25735555
677.76	0.2574307
677.953	0.25745645
678.147	0.25754752
678.34	0.25761904
678.534	0.25763565
678.727	0.25773923
678.921	0.2577798
679.114	0.25771001
679.307	0.25778317
679.501	0.25781551
679.694	0.25779671
679.888	0.25786182
680.081	0.25789086
680.274	0.25786192
680.468	0.2580219
680.661	0.25810389
680.854	0.25827266
681.048	0.25838637
681.241	0.25845246
681.434	0.25851865
681.627	0.25865291
681.821	0.25866784
682.014	0.25878519
682.207	0.25867438
682.4	0.25866297
682.593	0.25871367
682.786	0.2586815
682.98	0.2586699
683.173	0.25880169
683.366	0.25877162
683.559	0.25879723
683.752	0.25888956
683.945	0.25888973
684.138	0.25901849
684.331	0.2590307
684.524	0.25908409
684.717	0.25912816
684.91	0.25931521
685.103	0.25930891
685.296	0.25940362
685.489	0.25941646
685.682	0.25944368
685.874	0.25946289
686.067	0.25953747
686.26	0.25952053
686.453	0.25961466
686.646	0.25960607
686.839	0.25966407
687.031	0.25969278
687.224	0.25959919
687.417	0.2596421
687.61	0.25962709
687.802	0.25958066
687.995	0.2596899
688.188	0.25975273
688.38	0.25982705
688.573	0.25998099
688.766	0.26002281
688.958	0.26002487
689.151	0.26000283
689.343	0.25997615
689.536	0.25989481
689.729	0.25988642
689.921	0.25991464
690.114	0.25981422
690.306	0.25987399
690.499	0.25997706
690.691	0.25998926
690.884	0.26004553
691.076	0.26008549
691.268	0.26002216
691.461	0.25997961
691.653	0.25994174
691.846	0.25995242
692.038	0.25993881
692.23	0.25987675
692.423	0.25986378
692.615	0.25987785
692.807	0.25996891
692.999	0.26003258
693.192	0.25993191
693.384	0.25997913
693.576	0.25996196
693.768	0.25996647
693.961	0.25991191
694.153	0.25992451
694.345	0.25995687
694.537	0.26010903
694.729	0.26014389
694.921	0.26021029
695.113	0.26028509
695.305	0.26033368
695.498	0.26028547
695.69	0.2603301
695.882	0.26026538
696.074	0.26027303
696.266	0.26028671
696.458	0.26027806
696.65	0.26037374
696.842	0.2604725
697.033	0.26043082
697.225	0.26039017
697.417	0.26043525
697.609	0.26042357
697.801	0.26040079
697.993	0.26039748
698.185	0.26035848
698.376	0.26038114
698.568	0.2603941
698.76	0.26038351
698.952	0.26041368
699.144	0.26043639
699.335	0.26041536
699.527	0.26041425
699.719	0.26036186
699.91	0.26049026
700.102	0.26039974
700.294	0.26048132
700.485	0.26055561
700.677	0.26058387
700.869	0.26066964
701.06	0.26082142
701.252	0.26079173
701.443	0.2609296
701.635	0.26091438
701.826	0.26092795
702.018	0.26098748
702.209	0.26101004
702.401	0.26088114
702.592	0.26088222
702.784	0.2608115
702.975	0.2608074
703.166	0.26075205
703.358	0.26065781
703.549	0.26069348
703.741	0.26075407
703.932	0.26078646
704.123	0.26079882
704.315	0.26080284
704.506	0.26089889
704.697	0.26099644
704.888	0.26106274
705.08	0.2610957
705.271	0.26111142
705.462	0.26114057
705.653	0.26113578
705.844	0.26104286
706.035	0.26106291
706.227	0.261014
706.418	0.26103429
706.609	0.26103529
706.8	0.26113319
706.991	0.26115828
707.182	0.26120656
707.373	0.26111403
707.564	0.26111051
707.755	0.26106507
707.946	0.26110586
708.137	0.26096383
708.328	0.26097209
708.519	0.26102849
708.71	0.26116051
708.901	0.2611694
709.092	0.26129417
709.283	0.26134908
709.473	0.26140605
709.664	0.26152591
709.855	0.26150925
710.046	0.26153069
710.237	0.26153144
710.427	0.2615098
710.618	0.26147775
710.809	0.26158986
711	0.26158779
711.19	0.26152654
711.381	0.26156737
711.572	0.2616171
711.762	0.26165555
711.953	0.26162657
712.144	0.26155607
712.334	0.26146502
712.525	0.26155446
712.715	0.26152957
712.906	0.26151783
713.097	0.26148919
713.287	0.2615296
713.478	0.26161505
713.668	0.26173791
713.859	0.2617444
714.049	0.26168525
714.239	0.26171827
714.43	0.26176745
714.62	0.26178983
714.811	0.26175825
715.001	0.26175877
715.191	0.26181257
715.382	0.26191293
715.572	0.26203648
715.762	0.26206006
715.953	0.26218976
716.143	0.2622626
716.333	0.262249
716.523	0.26223842
716.714	0.26236707
716.904	0.26232069
717.094	0.26242838
717.284	0.26235502
717.474	0.26234037
717.664	0.26246491
717.855	0.26257327
718.045	0.26257014
718.235	0.26265522
718.425	0.26267372
718.615	0.26277522
718.805	0.26290891
718.995	0.26296446
719.185	0.26309431
719.375	0.26319529
719.565	0.26329992
719.755	0.26338958
719.945	0.26349186
720.135	0.26357237
720.325	0.26366109
720.515	0.26370204
720.704	0.26373016
720.894	0.26373689
721.084	0.26372409
721.274	0.26377004
721.464	0.26382664
721.654	0.26385783
721.843	0.2638753
722.033	0.26392501
722.223	0.26397273
722.413	0.26411891
722.602	0.26422374
722.792	0.26437378
722.982	0.26448092
723.171	0.26456749
723.361	0.26467936
723.55	0.26482101
723.74	0.26479767
723.93	0.26478095
724.119	0.26470208
724.309	0.26467515
724.498	0.26470629
724.688	0.26470255
724.877	0.26463183
725.067	0.26467768
725.256	0.26466248
725.446	0.26465806
725.635	0.26466838
725.825	0.26462458
726.014	0.26455093
726.203	0.26459872
726.393	0.26453037
726.582	0.26453304
726.771	0.26460924
726.961	0.26458058
727.15	0.2645587
727.339	0.26458222
727.529	0.26454854
727.718	0.26463448
727.907	0.2646415
728.096	0.26462918
728.286	0.26469223
728.475	0.26483036
728.664	0.26490862
728.853	0.26492768
729.042	0.26490429
729.231	0.26491966
729.42	0.26490583
729.609	0.26487526
729.799	0.26477905
729.988	0.2647802
730.177	0.26477997
730.366	0.26481136
730.555	0.26481938
730.744	0.26486066
730.933	0.26491062
731.122	0.26493957
731.31	0.26488495
731.499	0.26491058
731.688	0.26497332
731.877	0.26506716
732.066	0.26511069
732.255	0.26513232
732.444	0.26511386
732.632	0.26519618
732.821	0.26526247
733.01	0.26531661
733.199	0.26527388
733.388	0.26522237
733.576	0.26528617
733.765	0.26539008
733.954	0.26545253
734.142	0.26550115
734.331	0.26554326
734.52	0.26562292
734.708	0.26571219
734.897	0.26566667
735.086	0.26567434
735.274	0.26564405
735.463	0.26564184
735.651	0.26563428
735.84	0.26566646
736.028	0.26567665
736.217	0.26570982
736.405	0.26573828
736.594	0.26579568
736.782	0.26581225
736.971	0.26577812
737.159	0.265756
737.347	0.26579733
737.536	0.26581014
737.724	0.26581306
737.912	0.26576351
738.101	0.26574267
738.289	0.26580011
738.477	0.26580676
738.666	0.26580794
738.854	0.26583912
739.042	0.26592971
739.23	0.26600975
739.418	0.26607676
739.607	0.2661419
739.795	0.26627716
739.983	0.26638063
740.171	0.266426
740.359	0.26637173
740.547	0.26626608
740.735	0.26629185
740.923	0.266311
741.112	0.2663229
741.3	0.26631882
741.488	0.26637646
741.676	0.26650201
741.864	0.26669712
742.052	0.26681084
742.239	0.26678408
742.427	0.26675539
742.615	0.26676822
742.803	0.26684447
742.991	0.26680367
743.179	0.26683675
743.367	0.26682672
743.555	0.26700102
743.742	0.2670553
743.93	0.26716043
744.118	0.26711021
744.306	0.26725636
744.494	0.26724643
744.681	0.26726303
744.869	0.26721504
745.057	0.26733202
745.244	0.26736577
745.432	0.26748819
745.62	0.26748316
745.807	0.26758393
745.995	0.26761193
746.182	0.26765266
746.37	0.26765552
746.558	0.2676246
746.745	0.26762707
746.933	0.26764004
747.12	0.26767788
747.308	0.26772465
747.495	0.26776428
747.683	0.26778197
747.87	0.26780051
748.057	0.26788075
748.245	0.26795738
748.432	0.2679465
748.62	0.26804103
748.807	0.26805212
748.994	0.268118
749.182	0.26818545
749.369	0.26819868
749.556	0.26829043
749.743	0.26843375
749.931	0.26854817
750.118	0.26869857
750.305	0.26877433
750.492	0.26882751
750.68	0.26894033
750.867	0.26893279
751.054	0.26895056
751.241	0.26890711
751.428	0.26892906
751.615	0.26894129
751.802	0.26905683
751.989	0.26906838
752.176	0.2691967
752.363	0.26925928
752.55	0.26937486
752.737	0.26942024
752.924	0.26947229
753.111	0.26946622
753.298	0.26954446
753.485	0.26948616
753.672	0.26943335
753.859	0.26944858
754.046	0.26945086
754.233	0.26942357
754.42	0.26946817
754.606	0.26938545
754.793	0.26943317
754.98	0.26956027
755.167	0.26952321
755.353	0.26957923
755.54	0.26968531
755.727	0.26973596
755.914	0.26980222
756.1	0.26983468
756.287	0.2698064
756.474	0.26986573
756.66	0.26996319
756.847	0.27001534
757.033	0.27004567
757.22	0.27015689
757.407	0.27032445
757.593	0.27050276
757.78	0.27058134
757.966	0.2705978
758.153	0.27064924
758.339	0.27071007
758.526	0.27079016
758.712	0.27067166
758.898	0.27066494
759.085	0.27070618
759.271	0.27076686
759.458	0.27080246
759.644	0.27086602
759.83	0.27093125
760.017	0.2711373
760.203	0.27124267
760.389	0.27130408
760.576	0.27130057
760.762	0.27129968
760.948	0.27123056
761.134	0.27115295
761.32	0.27111576
761.507	0.2710539
761.693	0.27110039
761.879	0.27112084
762.065	0.2712296
762.251	0.27134917
762.437	0.27147994
762.623	0.27152776
762.809	0.2715945
762.995	0.27161627
763.181	0.27169758
763.367	0.27168814
763.553	0.27174197
763.739	0.27179137
763.925	0.27184532
764.111	0.27192865
764.297	0.27203563
764.483	0.27208218
764.669	0.27216293
764.855	0.2722152
765.041	0.27213713
765.227	0.27213044
765.412	0.27211397
765.598	0.2720888
765.784	0.27210452
765.97	0.27220953
766.156	0.27227869
766.341	0.27242264
766.527	0.27246527
766.713	0.27254299
766.898	0.27257022
767.084	0.27255956
767.27	0.27244098
767.455	0.27244068
767.641	0.27245478
767.827	0.27250266
768.012	0.27254557
768.198	0.27268017
768.383	0.27279158
768.569	0.27293191
768.754	0.27303079
768.94	0.27305981
769.125	0.2730594
769.311	0.27302362
769.496	0.27299021
769.682	0.27301109
769.867	0.27298387
770.052	0.27298704
770.238	0.27301119
770.423	0.27310307
770.608	0.27317215
770.794	0.27321113
770.979	0.27325539
771.164	0.27334816
771.35	0.27331703
771.535	0.27337711
771.72	0.27339795
771.905	0.2734556
772.09	0.27343313
772.276	0.27342318
772.461	0.27338502
772.646	0.27342708
772.831	0.27344562
773.016	0.27342526
773.201	0.2733886
773.386	0.27348405
773.571	0.2735437
773.756	0.27360631
773.941	0.27364368
774.126	0.27373155
774.311	0.27374979
774.496	0.27380897
774.681	0.27375516
774.866	0.27371285
775.051	0.27365798
775.236	0.27362515
775.421	0.27346225
775.606	0.2734333
775.791	0.27333788
775.976	0.27333456
776.16	0.2733657
776.345	0.27349976
776.53	0.27363913
776.715	0.27383877
776.899	0.27397214
777.084	0.27407063
777.269	0.27409134
777.454	0.27412708
777.638	0.27407372
777.823	0.27403748
778.008	0.27391148
778.192	0.27388805
778.377	0.27385796
778.561	0.27391276
778.746	0.27396013
778.931	0.27406167
779.115	0.27411185
779.3	0.27417352
779.484	0.27418657
779.669	0.27422749
779.853	0.27415785
780.037	0.27416925
780.222	0.27411019
780.406	0.27403666
780.591	0.27402629
780.775	0.2739869
780.959	0.27403173
781.144	0.27409697
781.328	0.27400003
781.512	0.27396363
781.697	0.27390196
781.881	0.27386559
782.065	0.2739284
782.249	0.27387656
782.434	0.27390076
782.618	0.27394716
782.802	0.27394983
782.986	0.27395456
783.17	0.27393042
783.354	0.27378099
783.539	0.27375997
783.723	0.27367107
783.907	0.27361094
784.091	0.27356054
784.275	0.2735965
784.459	0.27365436
784.643	0.27377241
784.827	0.27380954
785.011	0.2738789
785.195	0.27398181
785.379	0.27397451
785.563	0.2738902
785.747	0.27377735
785.93	0.27375593
786.114	0.2736207
786.298	0.27347838
786.482	0.27329707
786.666	0.27332426
786.85	0.27334418
787.033	0.27350958
787.217	0.2735586
787.401	0.27368861
787.585	0.27384275
787.768	0.27403988
787.952	0.2740275
788.136	0.27402331
788.319	0.27383896
788.503	0.27369965
788.687	0.27362298
788.87	0.27347982
789.054	0.27334175
789.237	0.27327809
789.421	0.27326931
789.605	0.27326922
789.788	0.2732575
789.972	0.27325946
790.155	0.27320076
790.338	0.27306231
790.522	0.27299708
790.705	0.27297266
790.889	0.27288834
791.072	0.27287031
791.256	0.27284368
791.439	0.27290336
791.622	0.27301223
791.806	0.27313414
791.989	0.2731082
792.172	0.27323883
792.355	0.27327289
792.539	0.27324465
792.722	0.27320324
792.905	0.27319181
793.088	0.27305844
793.271	0.27303368
793.455	0.27302942
793.638	0.2729939
793.821	0.27294259
794.004	0.27284493
794.187	0.27277112
794.37	0.27272846
794.553	0.27277571
794.736	0.27264715
794.919	0.2725698
795.102	0.27251522
795.285	0.27249728
795.468	0.2724803
795.651	0.27249849
795.834	0.27244521
796.017	0.27243824
796.2	0.27244871
796.383	0.27249498
796.566	0.27254621
796.749	0.27248759
796.931	0.27237871
797.114	0.2722174
797.297	0.2721359
797.48	0.27196869
797.663	0.27187798
797.845	0.27174462
798.028	0.27169836
798.211	0.27168868
798.393	0.27172822
798.576	0.27170548
798.759	0.27167647
798.941	0.27168358
799.124	0.27173689
799.307	0.2717698
799.489	0.27179219
799.672	0.27174698
799.854	0.27165093
800.037	0.2716657
800.219	0.27154242
800.402	0.27145675
800.584	0.27127375
800.767	0.27118969
800.949	0.27116033
801.132	0.27125076
801.314	0.27118563
801.496	0.27109517
801.679	0.27098695
801.861	0.27099267
802.043	0.27089111
802.226	0.27078709
802.408	0.27067249
802.59	0.27066407
802.772	0.27079181
802.955	0.27083989
803.137	0.27076745
803.319	0.27080562
803.501	0.27081748
803.684	0.27077215
803.866	0.27068914
804.048	0.2705647
804.23	0.27047306
804.412	0.27050509
804.594	0.27035947
804.776	0.27028372
804.958	0.27019215
805.14	0.27012502
805.322	0.26994434
805.504	0.26984266
805.686	0.26971491
805.868	0.26965404
806.05	0.26955174
806.232	0.26941472
806.414	0.26937461
806.596	0.26940562
806.778	0.26937708
806.96	0.26941132
807.141	0.26937799
807.323	0.26934359
807.505	0.26941115
807.687	0.26932999
807.869	0.26923948
808.05	0.26918334
808.232	0.26903858
808.414	0.26901947
808.595	0.26890709
808.777	0.2687437
808.959	0.26874914
809.14	0.2686814
809.322	0.26865024
809.504	0.26865274
809.685	0.26863509
809.867	0.26864682
810.048	0.26868844
810.23	0.26867122
810.411	0.26863131
810.593	0.26857263
810.774	0.26855362
810.956	0.26852371
811.137	0.26840618
811.319	0.26840326
811.5	0.26833312
811.681	0.26832477
811.863	0.26822481
812.044	0.26804367
812.225	0.26795399
812.407	0.26787922
812.588	0.26770079
812.769	0.26748118
812.951	0.26739138
813.132	0.26730285
813.313	0.2672082
813.494	0.26694057
813.675	0.26684023
813.857	0.2667443
814.038	0.26674428
814.219	0.26661091
814.4	0.26657049
814.581	0.26661697
814.762	0.26665412
814.943	0.26658293
815.124	0.26646872
815.305	0.26626572
815.486	0.26606278
815.667	0.26590179
815.848	0.26557821
816.029	0.26538211
816.21	0.2652627
816.391	0.26516325
816.572	0.26508035
816.753	0.26505658
816.934	0.26495777
817.115	0.265012
817.295	0.26501438
817.476	0.26489516
817.657	0.26478104
817.838	0.26472293
818.019	0.26451841
818.199	0.26432016
818.38	0.26410314
818.561	0.26391329
818.741	0.26384231
818.922	0.26370147
819.103	0.26356405
819.283	0.26357745
819.464	0.26364307
819.645	0.26355321
819.825	0.26349532
820.006	0.26341011
820.186	0.26344684
820.367	0.26337756
820.547	0.26326233
820.728	0.26307021
820.908	0.26309367
821.089	0.26304161
821.269	0.26300981
821.45	0.26284669
821.63	0.2627236
821.81	0.26270047
821.991	0.26269674
822.171	0.26256171
822.351	0.26243092
822.532	0.26236046
822.712	0.26231637
822.892	0.26226528
823.072	0.26217843
823.253	0.26209091
823.433	0.26190767
823.613	0.2618599
823.793	0.26172997
823.973	0.2616493
824.154	0.26149134
824.334	0.26135294
824.514	0.26119224
824.694	0.26117175
824.874	0.26097691
825.054	0.26078218
825.234	0.26055359
825.414	0.26040463
825.594	0.26023135
825.774	0.26007452
825.954	0.25989339
826.134	0.25973287
826.314	0.25957021
826.494	0.25947075
826.674	0.25932611
826.854	0.25915243
827.033	0.25893284
827.213	0.25886183
827.393	0.25871734
827.573	0.25874463
827.753	0.25859478
827.932	0.2586651
828.112	0.25871817
828.292	0.25878021
828.472	0.25869841
828.651	0.25870174
828.831	0.25849979
829.011	0.25850822
829.19	0.25822796
829.37	0.25806007
829.549	0.25792651
829.729	0.25767038
829.909	0.25747957
830.088	0.25726027
830.268	0.25692582
830.447	0.25693066
830.627	0.25682527
830.806	0.25673007
830.986	0.25664111
831.165	0.25658643
831.344	0.25659865
831.524	0.25656792
831.703	0.2563189
831.883	0.25606058
832.062	0.25577497
832.241	0.2556085
832.421	0.25536348
832.6	0.25501996
832.779	0.25488816
832.958	0.25477158
833.138	0.2546139
833.317	0.25455834
833.496	0.25448615
833.675	0.25447342
833.854	0.25453795
834.034	0.25440693
834.213	0.25435273
834.392	0.25439321
834.571	0.25423896
834.75	0.2541728
834.929	0.25398782
835.108	0.25381748
835.287	0.25376564
835.466	0.25357864
835.645	0.25336456
835.824	0.25320033
836.003	0.25304751
836.182	0.25291987
836.361	0.25274138
836.54	0.25251123
836.719	0.25234564
836.897	0.25214686
837.076	0.25203537
837.255	0.25196915
837.434	0.2519741
837.613	0.25190101
837.791	0.25181847
837.97	0.25175428
838.149	0.25166412
838.328	0.25157159
838.506	0.25134174
838.685	0.25107977
838.864	0.2510258
839.042	0.25088857
839.221	0.25077104
839.4	0.25066562
839.578	0.25050903
839.757	0.25025002
839.935	0.25005576
840.114	0.2499331
840.292	0.24984331
840.471	0.24978354
840.649	0.24972738
840.828	0.24956542
841.006	0.24954059
841.185	0.24937284
841.363	0.24912664
841.541	0.24889428
841.72	0.24874937
841.898	0.24850548
842.076	0.24836413
842.255	0.24820639
842.433	0.24814136
842.611	0.24791708
842.789	0.24777873
842.968	0.24753036
843.146	0.24736193
843.324	0.24722763
843.502	0.24709017
843.68	0.24701123
843.859	0.24692432
844.037	0.24683228
844.215	0.2467567
844.393	0.2466653
844.571	0.2465882
844.749	0.24646676
844.927	0.24621739
845.105	0.24606506
845.283	0.24592104
845.461	0.24578155
845.639	0.24568178
845.817	0.24542983
845.995	0.24526989
846.173	0.24513939
846.351	0.24493612
846.529	0.24469225
846.706	0.24430521
846.884	0.24408092
847.062	0.2439032
847.24	0.24364638
847.418	0.24341844
847.595	0.24324978
847.773	0.24310611
847.951	0.24303484
848.129	0.24280639
848.306	0.24272426
848.484	0.24257423
848.662	0.24250174
848.839	0.24259469
849.017	0.24256386
849.194	0.24247921
849.372	0.24238863
849.549	0.24215186
849.727	0.24206039
849.905	0.24184396
850.082	0.24152093
850.26	0.24120246
850.437	0.2410857
850.614	0.2410234
850.792	0.24092053
850.969	0.24073585
851.147	0.24062932
851.324	0.24042378
851.501	0.2403968
851.679	0.24012933
851.856	0.23980999
852.033	0.23966504
852.211	0.23954058
852.388	0.239379
852.565	0.23925533
852.742	0.23904799
852.92	0.23897526
853.097	0.23888842
853.274	0.23864859
853.451	0.23839776
853.628	0.2382107
853.805	0.23812835
853.982	0.23804302
854.159	0.23784561
854.336	0.23771573
854.514	0.2375614
854.691	0.23741971
854.868	0.23729352
855.045	0.23708548
855.221	0.23684529
855.398	0.23656279
855.575	0.23629405
855.752	0.23614863
855.929	0.23599868
856.106	0.2357793
856.283	0.23566522
856.46	0.23555904
856.637	0.23556559
856.813	0.23553328
856.99	0.2354045
857.167	0.23532553
857.344	0.23528606
857.52	0.23508747
857.697	0.23480578
857.874	0.23461945
858.05	0.23430928
858.227	0.23419822
858.404	0.23398573
858.58	0.23384275
858.757	0.23363384
858.933	0.2335157
859.11	0.23339081
859.287	0.2332491
859.463	0.23301592
859.64	0.23297102
859.816	0.23277011
859.993	0.23275694
860.169	0.23269057
860.345	0.23247145
860.522	0.23242915
860.698	0.23229922
860.875	0.23203582
861.051	0.23180951
861.227	0.23143073
861.404	0.23124926
861.58	0.23115289
861.756	0.23101767
861.932	0.23092959
862.109	0.23086571
862.285	0.23075335
862.461	0.23068965
862.637	0.23049878
862.813	0.23028125
862.99	0.22998137
863.166	0.22967496
863.342	0.22952398
863.518	0.22931815
863.694	0.22919574
863.87	0.22899361
864.046	0.2288125
864.222	0.22868998
864.398	0.22869616
864.574	0.22845053
864.75	0.2283295
864.926	0.2281948
865.102	0.22813659
865.278	0.22787462
865.454	0.22772597
865.63	0.22738354
865.805	0.22707374
865.981	0.22696164
866.157	0.22674212
866.333	0.22645456
866.509	0.22639662
866.684	0.22621843
866.86	0.22619618
867.036	0.22619925
867.212	0.22585537
867.387	0.22557587
867.563	0.22540954
867.739	0.22524583
867.914	0.22508523
868.09	0.22489225
868.265	0.2246666
868.441	0.22455266
868.617	0.22451134
868.792	0.22441401
868.968	0.22424182
869.143	0.22423244
869.319	0.22418952
869.494	0.22407892
869.67	0.22398728
869.845	0.22380509
870.02	0.22352053
870.196	0.2234232
870.371	0.22311144
870.546	0.22283308
870.722	0.22266314
870.897	0.22245732
871.072	0.22224909
871.248	0.22208235
871.423	0.22185932
871.598	0.22171372
871.773	0.22140185
871.949	0.22126926
872.124	0.22121295
872.299	0.22115662
872.474	0.22123608
872.649	0.22113645
872.824	0.22093618
872.999	0.22083768
873.174	0.22067763
873.349	0.2204783
873.524	0.22037301
873.699	0.22016204
873.874	0.21994938
874.049	0.21975872
874.224	0.21962987
874.399	0.2193757
874.574	0.21924056
874.749	0.21899872
874.924	0.2187836
875.099	0.21861562
875.274	0.21841801
875.449	0.21834104
875.623	0.21818182
875.798	0.21788833
875.973	0.21752603
876.148	0.2171098
876.322	0.21694076
876.497	0.21678778
876.672	0.21650335
876.846	0.21634414
877.021	0.21628889
877.196	0.21625783
877.37	0.21635047
877.545	0.21623642
877.72	0.21608889
877.894	0.21599055
878.069	0.21582299
878.243	0.21554755
878.418	0.21545168
878.592	0.21510889
878.767	0.21488729
878.941	0.21478209
879.116	0.21450824
879.29	0.21421576
879.464	0.21397434
879.639	0.21358571
879.813	0.21349947
879.987	0.21323767
880.162	0.21301144
880.336	0.21290588
880.51	0.2128374
880.685	0.21280075
880.859	0.2127194
881.033	0.21261767
881.207	0.21233468
881.381	0.21214653
881.556	0.21190011
881.73	0.211729
881.904	0.21165241
882.078	0.21153792
882.252	0.21132878
882.426	0.21132713
882.6	0.21122205
882.774	0.21133922
882.948	0.21120884
883.122	0.2108653
883.296	0.21078749
883.47	0.21076846
883.644	0.21066048
883.818	0.21036702
883.992	0.21005331
884.166	0.20988868
884.34	0.20978358
884.514	0.20953794
884.687	0.20917263
884.861	0.20885754
885.035	0.20879051
885.209	0.20862419
885.382	0.20851288
885.556	0.2084034
885.73	0.20827506
885.904	0.20816669
886.077	0.20803563
886.251	0.20797107
886.425	0.20770078
886.598	0.20751925
886.772	0.20725705
886.945	0.2069784
887.119	0.20674457
887.292	0.20661427
887.466	0.20635589
887.64	0.2062407
887.813	0.2060349
887.986	0.20592008
888.16	0.20597605
888.333	0.20598073
888.507	0.20587387
888.68	0.20573196
888.854	0.20565882
889.027	0.20545032
889.2	0.20533108
889.374	0.2049987
889.547	0.20471407
889.72	0.20457096
889.893	0.20431498
890.067	0.20405144
890.24	0.2039631
890.413	0.20386567
890.586	0.20386573
890.759	0.20379023
890.933	0.20370217
891.106	0.20364848
891.279	0.20361201
891.452	0.20361208
891.625	0.20334951
891.798	0.20312752
891.971	0.20300319
892.144	0.2027399
892.317	0.2027287
892.49	0.20254054
892.663	0.20232738
892.836	0.20238374
893.009	0.20225901
893.182	0.20215494
893.355	0.20216824
893.527	0.20196239
893.7	0.20195729
893.873	0.20188506
894.046	0.20159916
894.219	0.2015439
894.391	0.20132999
894.564	0.2010401
894.737	0.20083983
894.91	0.20055041
895.082	0.2002003
895.255	0.19996603
895.428	0.19957956
895.6	0.19936719
895.773	0.19931854
895.945	0.19928938
896.118	0.19932809
896.291	0.19931445
896.463	0.19926701
896.636	0.19923701
896.808	0.19909988
896.981	0.19888547
897.153	0.19865251
897.326	0.19829624
897.498	0.19800794
897.67	0.19787266
897.843	0.19784263
898.015	0.19784044
898.187	0.19774017
898.36	0.19744427
898.532	0.19719654
898.704	0.19712405
898.877	0.19691375
899.049	0.196665
899.221	0.19642986
899.393	0.19621542
899.566	0.19621194
899.738	0.19626873
899.91	0.19616908
900.082	0.19606496
900.254	0.19598348
900.426	0.19587125
900.598	0.19567142
900.77	0.19546643
900.942	0.19525949
901.114	0.19497768
901.286	0.19487338
901.458	0.19473528
901.63	0.19474025
901.802	0.19479638
901.974	0.1947501
902.146	0.1946808
902.318	0.19463083
902.49	0.19453432
902.662	0.19435219
902.834	0.19413632
903.005	0.19419355
903.177	0.19420974
903.349	0.19410674
903.521	0.19401342
903.693	0.19386705
903.864	0.19374674
904.036	0.19363321
904.208	0.19304742
904.379	0.19267178
904.551	0.19256043
904.723	0.19245547
904.894	0.19228242
905.066	0.19222017
905.237	0.19220072
905.409	0.19239867
905.58	0.19239649
905.752	0.19218785
905.923	0.19199513
906.095	0.19176473
906.266	0.19149975
906.438	0.19120983
906.609	0.19097865
906.78	0.19073287
906.952	0.19050374
907.123	0.19026964
907.295	0.19032978
907.466	0.19024944
907.637	0.19007026
907.808	0.1898725
907.98	0.18977338
908.151	0.18980638
908.322	0.18990256
908.493	0.18961582
908.665	0.18958129
908.836	0.18936645
909.007	0.18923755
909.178	0.1891337
909.349	0.1888646
909.52	0.1888033
909.691	0.18859959
909.862	0.1884428
910.033	0.18831418
910.204	0.18814767
910.375	0.18803656
910.546	0.1879342
910.717	0.18765833
910.888	0.18755856
911.059	0.18726615
911.23	0.18707813
911.401	0.18686026
911.572	0.18655905
911.742	0.18646383
911.913	0.18634478
912.084	0.18631689
912.255	0.18627351
912.426	0.1862506
912.596	0.18621378
912.767	0.18621459
912.938	0.18607183
913.108	0.18593547
913.279	0.18573208
913.45	0.1855794
913.62	0.18544036
913.791	0.18538525
913.962	0.18532081
914.132	0.18510728
914.303	0.18489909
914.473	0.1849104
914.644	0.18476613
914.814	0.18467991
914.985	0.18452711
915.155	0.18435141
915.326	0.18407676
915.496	0.18376588
915.666	0.18338405
915.837	0.18320928
916.007	0.1828519
916.177	0.18254749
916.348	0.1824
916.518	0.18248879
916.688	0.18261828
916.858	0.18243892
917.029	0.18227055
917.199	0.18232893
917.369	0.1820977
917.539	0.18193173
917.709	0.18153048
917.88	0.18117051
918.05	0.18097795
918.22	0.18082803
918.39	0.1805484
918.56	0.18060434
918.73	0.18042193
918.9	0.18032384
919.07	0.1802558
919.24	0.18027943
919.41	0.18022448
919.58	0.17999708
919.75	0.17998619
919.92	0.17977562
920.09	0.17984477
920.26	0.17968806
920.429	0.17964146
920.599	0.17944104
920.769	0.17946518
920.939	0.17907161
921.109	0.17890349
921.278	0.17862518
921.448	0.17840625
921.618	0.17811428
921.787	0.17791369
921.957	0.1777991
922.127	0.17769538
922.296	0.1776276
922.466	0.17742038
922.636	0.17748058
922.805	0.17732802
922.975	0.17727723
923.144	0.17703862
923.314	0.17693076
923.483	0.1768737
923.653	0.17699935
923.822	0.17678064
923.992	0.17671384
924.161	0.17661652
924.331	0.17643316
924.5	0.17635697
924.669	0.17609288
924.839	0.17585386
925.008	0.17584507
925.177	0.17570625
925.347	0.17553987
925.516	0.17553112
925.685	0.17546173
925.854	0.17545261
926.023	0.17533312
926.193	0.17530481
926.362	0.17511357
926.531	0.17514891
926.7	0.17515543
926.869	0.17529122
927.038	0.17512556
927.207	0.17527353
927.376	0.17505662
927.545	0.17507228
927.715	0.17502254
927.884	0.17491711
928.052	0.17481731
928.221	0.17474759
928.39	0.17433539
928.559	0.17432321
928.728	0.17446884
928.897	0.1744447
929.066	0.17468922
929.235	0.17435789
929.404	0.17433436
929.572	0.17465216
929.741	0.17450131
929.91	0.17427043
930.079	0.17402785
930.247	0.1734233
930.416	0.17330956
930.585	0.17303068
930.753	0.17260311
930.922	0.17248842
931.091	0.17238908
931.259	0.17216627
931.428	0.17235358
931.596	0.17251358
931.765	0.17270404
931.934	0.17292204
932.102	0.17271206
932.27	0.17264794
932.439	0.17260111
932.607	0.17233435
932.776	0.17223582
932.944	0.17204267
933.113	0.17164453
933.281	0.17133078
933.449	0.17094334
933.618	0.17054374
933.786	0.17048041
933.954	0.16984474
934.123	0.16965176
934.291	0.16962997
934.459	0.16966003
934.627	0.16971529
934.795	0.17001639
934.964	0.16970293
935.132	0.1694608
935.3	0.16919107
935.468	0.169117
935.636	0.16918258
935.804	0.16890489
935.972	0.16872572
936.14	0.16874656
936.308	0.16904191
936.476	0.16918547
936.644	0.16870225
936.812	0.16876025
936.98	0.16891731
937.148	0.16889969
937.316	0.16856676
937.484	0.16883365
937.652	0.1685592
937.82	0.16911976
937.987	0.16865954
938.155	0.1687938
938.323	0.168508
938.491	0.16829227
938.658	0.16834844
938.826	0.16858043
938.994	0.16830708
939.162	0.16862934
939.329	0.16822999
939.497	0.16851372
939.665	0.16905725
939.832	0.1686261
940	0.16881878
940.167	0.16842326
940.335	0.16787428
940.502	0.16777693
940.67	0.16758555
940.837	0.1675196
941.005	0.16692473
941.172	0.16609191
941.34	0.16600923
941.507	0.16810214
941.674	0.16835268
941.842	0.16840219
942.009	0.16919094
942.177	0.16864548
942.344	0.16980059
942.511	0.17049893
942.678	0.16976605
942.846	0.16945266
943.013	0.16935554
943.18	0.16898334
943.347	0.16990017
943.514	0.16921937
943.682	0.1689721
943.849	0.16707111
944.016	0.16630043
944.183	0.16635636
944.35	0.16640353
944.517	0.16735878
944.684	0.1673081
944.851	0.16511869
945.018	0.16544998
945.185	0.16672691
945.352	0.16555623
945.519	0.16510204
945.686	0.16365462
945.853	0.16498877
946.02	0.16575296
946.187	0.16477549
946.353	0.16436529
946.52	0.1647413
946.687	0.1635038
946.854	0.16398419
947.021	0.16283275
947.187	0.16274759
947.354	0.1628364
947.521	0.16274845
947.687	0.16153314
947.854	0.16232994
948.021	0.16252737
948.187	0.1612096
948.354	0.16208564
948.52	0.16192107
948.687	0.16217329
948.854	0.16422542
949.02	0.16366895
949.187	0.16321399
949.353	0.16354422
949.52	0.16206791
949.686	0.1623947
949.852	0.16236087
950.019	0.16171527
950.185	0.16173258
950.352	0.16119717
950.518	0.16155318
950.684	0.16234638
950.851	0.16177233
951.017	0.16076313
951.183	0.16043243
951.349	0.15988724
951.516	0.15908162
951.682	0.15869413
951.848	0.15825132
952.014	0.15758844
952.18	0.15804804
952.346	0.15810502
952.512	0.15861064
952.679	0.15942
952.845	0.15946207
953.011	0.15933801
953.177	0.1599358
953.343	0.15899673
953.509	0.15904234
953.675	0.15864776
953.841	0.15878098
954.007	0.15856067
954.172	0.1589275
954.338	0.15807683
954.504	0.15788754
954.67	0.15663603
954.836	0.1568551
955.002	0.15598294
955.167	0.15570413
955.333	0.15416919
955.499	0.15476839
955.665	0.15465567
955.83	0.15500673
955.996	0.15489814
956.162	0.15488947
956.327	0.15497527
956.493	0.15512768
956.659	0.15512822
956.824	0.15528969
956.99	0.15532129
957.155	0.15512221
957.321	0.1547337
957.486	0.15470807
957.652	0.15483453
957.817	0.15525238
957.983	0.1549958
958.148	0.15474254
958.314	0.1541845
958.479	0.15396596
958.644	0.15392347
958.81	0.15455739
958.975	0.1538479
959.14	0.15380862
959.306	0.15360578
959.471	0.15318237
959.636	0.15253826
959.801	0.15273229
959.967	0.15210817
960.132	0.15221726
960.297	0.15183733
960.462	0.15194198
960.627	0.15245548
960.792	0.15323023
960.957	0.15263545
961.123	0.15331978
961.288	0.15281858
961.453	0.15323519
961.618	0.15318477
961.783	0.15330234
961.948	0.15260688
962.113	0.15208684
962.277	0.15080968
962.442	0.15051197
962.607	0.15014605
962.772	0.14951488
962.937	0.14872993
963.102	0.14890486
963.267	0.14897251
963.431	0.14926607
963.596	0.1498116
963.761	0.14965649
963.926	0.14981855
964.09	0.15056354
964.255	0.15093875
964.42	0.15103111
964.584	0.15146273
964.749	0.15097533
964.914	0.15087206
965.078	0.15044128
965.243	0.14970185
965.407	0.14919101
965.572	0.1491792
965.736	0.14903704
965.901	0.14929756
966.065	0.149648
966.23	0.14984959
966.394	0.15008478
966.559	0.15002126
966.723	0.14979363
966.887	0.14920887
967.052	0.1486942
967.216	0.14804433
967.38	0.14724305
967.545	0.14704371
967.709	0.14731064
967.873	0.14783306
968.037	0.14779032
968.202	0.14810068
968.366	0.14828324
968.53	0.14888249
968.694	0.14876531
968.858	0.14845398
969.022	0.14765784
969.187	0.14746971
969.351	0.14691275
969.515	0.14679594
969.679	0.1464568
969.843	0.1461732
970.007	0.14564573
970.171	0.14543862
970.335	0.14537964
970.499	0.14580607
970.662	0.14598867
970.826	0.14615678
970.99	0.14604729
971.154	0.14649333
971.318	0.14689308
971.482	0.14697633
971.645	0.14664265
971.809	0.14635938
971.973	0.14640376
972.137	0.14655201
972.3	0.14658706
972.464	0.14639234
972.628	0.146667
972.791	0.14735607
972.955	0.147531
973.119	0.14728055
973.282	0.1470811
973.446	0.14675227
973.609	0.14627264
973.773	0.14558444
973.936	0.14466524
974.1	0.14460924
974.263	0.14458455
974.427	0.14455779
974.59	0.14459477
974.754	0.14477557
974.917	0.14493093
975.08	0.14490987
975.244	0.14437254
975.407	0.14438983
975.57	0.14419791
975.734	0.14378568
975.897	0.14377201
976.06	0.14365009
976.223	0.14283839
976.387	0.14339878
976.55	0.14267661
976.713	0.14234688
976.876	0.1426538
977.039	0.14202325
977.202	0.14156779
977.365	0.14152536
977.528	0.14101422
977.692	0.1413869
977.855	0.14158622
978.018	0.14080189
978.181	0.14123326
978.344	0.14129701
978.506	0.1419087
978.669	0.14153194
978.832	0.14133228
978.995	0.1407208
979.158	0.14178997
979.321	0.14130516
979.484	0.14102519
979.646	0.14109445
979.809	0.1414952
979.972	0.14110136
980.135	0.14158338
980.297	0.14067559
980.46	0.14067814
980.623	0.14124767
980.786	0.14085675
980.948	0.14061848
981.111	0.14083871
981.273	0.14114009
981.436	0.14107458
981.599	0.14173998
981.761	0.14093118
981.924	0.14139733
982.086	0.14094785
982.249	0.14066428
982.411	0.14005559
982.573	0.13979275
982.736	0.13952241
982.898	0.14005046
983.061	0.13900825
983.223	0.13886155
983.385	0.1386795
983.548	0.13875473
983.71	0.13879653
983.872	0.13842054
984.034	0.13792074
984.197	0.13816021
984.359	0.1385559
984.521	0.13948881
984.683	0.13957563
984.845	0.13950825
985.008	0.13915702
985.17	0.14006153
985.332	0.14031033
985.494	0.13937341
985.656	0.13905298
985.818	0.13845908
985.98	0.13870762
986.142	0.13835172
986.304	0.13695029
986.466	0.13671036
986.628	0.13685448
986.79	0.13635611
986.952	0.13548361
987.113	0.13467806
987.275	0.13427821
987.437	0.13454455
987.599	0.13459559
987.761	0.13593233
987.922	0.13547791
988.084	0.13697166
988.246	0.13790223
988.408	0.13903048
988.569	0.13931237
988.731	0.13924044
988.893	0.13819292
989.054	0.13858551
989.216	0.1380703
989.377	0.1369703
989.539	0.13675994
989.701	0.13579896
989.862	0.13518794
990.024	0.13450039
990.185	0.13443725
990.347	0.13347534
990.508	0.13321336
990.669	0.13243869
990.831	0.13337176
990.992	0.13474882
991.154	0.13519949
991.315	0.13608452
991.476	0.13717283
991.638	0.13787819
991.799	0.13834365
991.96	0.13771038
992.121	0.13657411
992.283	0.13614682
992.444	0.13564644
992.605	0.13434846
992.766	0.13417134
992.927	0.13429868
993.088	0.1343221
993.249	0.13372555
993.41	0.13325138
993.572	0.13273758
993.733	0.13380107
993.894	0.13336172
994.055	0.13202372
994.216	0.13273308
994.376	0.13215871
994.537	0.13314335
994.698	0.13350215
994.859	0.13322029
995.02	0.13371723
995.181	0.13348267
995.342	0.13328068
995.503	0.13417569
995.663	0.13313525
995.824	0.13209198
995.985	0.13263885
996.146	0.13246092
996.306	0.13299741
996.467	0.1327508
996.628	0.13356906
996.788	0.1339885
996.949	0.13542947
997.11	0.13437421
997.27	0.13416614
997.431	0.13498865
997.591	0.13352043
997.752	0.13153925
997.912	0.13197007
998.073	0.13088803
998.233	0.13236497
998.394	0.13233648
998.554	0.13248241
998.714	0.13260067
998.875	0.13329762
999.035	0.13265444
999.196	0.1326472
999.356	0.13140986
999.516	0.13192737
999.676	0.13187611
999.837	0.13250727
999.997	0.13225512
1000.157	0.13177293
1000.317	0.13022726
1000.477	0.12930419
1000.638	0.12831467
1000.798	0.12860088
1000.958	0.12860064
1001.118	0.12897985
1001.278	0.12969869
1001.438	0.1305311
1001.598	0.13130988
1001.758	0.13100024
1001.918	0.12969689
1002.078	0.12806254
1002.238	0.12743444
1002.398	0.12813956
1002.558	0.12750839
1002.718	0.12681623
1002.878	0.12800481
1003.037	0.12576503
1003.197	0.12774703
1003.357	0.1281973
1003.517	0.12841153
1003.677	0.12755539
1003.836	0.12780674
1003.996	0.12680172
1004.156	0.12886325
1004.315	0.1291595
1004.475	0.12932779
1004.635	0.12880488
1004.794	0.13091104
1004.954	0.1306257
1005.114	0.13113088
1005.273	0.1313769
1005.433	0.12903701
1005.592	0.1288328
1005.752	0.12679392
1005.911	0.12562271
1006.071	0.12660398
1006.23	0.12518477
1006.389	0.12440858
1006.549	0.1243558
1006.708	0.12441288
1006.868	0.12523195
1007.027	0.12738749
1007.186	0.12859623
1007.345	0.1301954
1007.505	0.12984615
1007.664	0.1307464
1007.823	0.12992171
1007.982	0.13098145
1008.142	0.12960467
1008.301	0.12839941
1008.46	0.12662551
1008.619	0.12679433
1008.778	0.12804207
1008.937	0.12751708
1009.096	0.12740251
1009.255	0.12743955
1009.414	0.12489765
1009.573	0.12597092
1009.732	0.12773408
1009.891	0.12562532
1010.05	0.1274793
1010.209	0.12469765
1010.368	0.12410197
1010.527	0.12493187
1010.686	0.12754989
1010.845	0.12435413
1011.003	0.12526978
1011.162	0.12299167
1011.321	0.12212876
1011.48	0.12364041
1011.638	0.12369089
1011.797	0.12205014
1011.956	0.12284575
1012.115	0.12331734
1012.273	0.12358479
1012.432	0.12524453
1012.59	0.12056925
1012.749	0.11935511
1012.908	0.11655304
1013.066	0.11759883
1013.225	0.1174322
1013.383	0.11740309
1013.542	0.11681426
1013.7	0.12207628
1013.859	0.12521736
1014.017	0.12603913
1014.175	0.12527001
1014.334	0.12857231
1014.492	0.13151045
1014.65	0.1322605
1014.809	0.13176041
1014.967	0.13076781
1015.125	0.13389579
1015.284	0.13604565
1015.442	0.13199885
1015.6	0.12929971
1015.758	0.12990701
1015.916	0.1261666
1016.075	0.12585081
1016.233	0.122754
1016.391	0.12441383
1016.549	0.1245929
1016.707	0.12427427
1016.865	0.12298237
1017.023	0.12277692
1017.181	0.1220072
1017.339	0.12343268
1017.497	0.11941094
1017.655	0.11891551
1017.813	0.1205227
1017.971	0.12106127
1018.129	0.12210535
1018.286	0.12469546
1018.444	0.12121709
1018.602	0.1214765
1018.76	0.11990984
1018.918	0.12138028
1019.075	0.124484
1019.233	0.12529889
1019.391	0.1222884
1019.549	0.1233947
1019.706	0.12399039
1019.864	0.12562261
1020.022	0.12514329
1020.179	0.12282308
1020.337	0.12162342
1020.494	0.12159714
1020.652	0.12311223
1020.809	0.1257148
1020.967	0.12462742
1021.124	0.12243596
1021.282	0.12416083
1021.439	0.12641556
1021.597	0.13161883
1021.754	0.13164492
1021.911	0.13071097
1022.069	0.12663783
1022.226	0.12791294
1022.384	0.12289088
1022.541	0.12340401
1022.698	0.11870188
1022.855	0.12053478
1023.013	0.12065937
1023.17	0.12560117
1023.327	0.12351597
1023.484	0.12866376
1023.641	0.12988354
1023.798	0.13667382
1023.956	0.13911799
1024.113	0.13313077
1024.27	0.1346497
1024.427	0.13456031
1024.584	0.13077301
1024.741	0.12541631
1024.898	0.12094471
1025.055	0.11517825
1025.212	0.11735496
1025.369	0.11351643
1025.525	0.11463206
1025.682	0.11961853
1025.839	0.1209036
1025.996	0.12055561
1026.153	0.12208671
1026.31	0.12621505
1026.466	0.13372605
1026.623	0.13433548
1026.78	0.13236897
1026.937	0.13219624
1027.093	0.13485373
1027.25	0.14137347
1027.407	0.13862282
1027.563	0.13581187
1027.72	0.13542738
1027.876	0.13372925
1028.033	0.14052995
1028.19	0.13336431
1028.346	0.12528594
1028.503	0.12456126
1028.659	0.12176567
1028.816	0.12655369
1028.972	0.12773968
1029.128	0.12541503
1029.285	0.12580018
1029.441	0.13112811
1029.598	0.1305496
1029.754	0.13711773
1029.91	0.12871944
1030.067	0.12695432
1030.223	0.1244437
1030.379	0.12950969
1030.535	0.13382158
1030.691	0.1398918
1030.848	0.14075869
1031.004	0.14670929
1031.16	0.14917895
1031.316	0.15215571
1031.472	0.15647813
1031.628	0.14819256
1031.784	0.13942129
1031.94	0.14345178
1032.096	0.14237721
1032.252	0.1431943
1032.408	0.14816693
1032.564	0.1372303
1032.72	0.13842006
1032.876	0.14136178
1033.032	0.13138326
1033.188	0.13014714
1033.344	0.13188803
1033.5	0.12954211
1033.655	0.13591356
1033.811	0.13761969
1033.967	0.14262079
