Data from 0_1_mm_pl_20pc_Absorbance__0__16-29-37-800.txt Node

Date: Fri Feb 24 16:29:37 CET 2023
User: Ange
Spectrometer: FLMT08341
Trigger mode: 0
Integration Time (sec): 1.000000E-2
Scans to average: 400
Electric dark correction enabled: true
Nonlinearity correction enabled: false
Boxcar width: 3
XAxis mode: Wavelengths
Number of Pixels in Spectrum: 3648
>>>>>Begin Spectral Data<<<<<
345.271	-0.04731431
345.487	-0.05668636
345.704	-0.06406511
345.921	-0.07207339
346.137	-0.06004251
346.354	-0.07875421
346.571	-0.08572397
346.787	-0.18163408
347.004	0.02693257
347.22	-0.09912312
347.437	-0.14881205
347.653	-0.03764705
347.87	0.42868689
348.086	0.26692063
348.303	0.6894228
348.519	0.24186483
348.736	0.23663866
348.952	0.24132112
349.169	0.24720112
349.385	0.25585525
349.601	0.25564569
349.818	0.25488719
350.034	0.25189863
350.251	0.24872921
350.467	0.25113564
350.683	0.24492262
350.9	0.24194828
351.116	0.24068863
351.332	0.23934896
351.549	0.24486246
351.765	0.25021173
351.981	0.25286981
352.197	0.25977865
352.414	0.26966075
352.63	0.27216245
352.846	0.27520594
353.062	0.26973265
353.278	0.2672079
353.495	0.26950788
353.711	0.27044617
353.927	0.26883865
354.143	0.26757158
354.359	0.26568303
354.575	0.26324407
354.792	0.26677556
355.008	0.26133533
355.224	0.25878178
355.44	0.25708529
355.656	0.25485765
355.872	0.2578392
356.088	0.26717613
356.304	0.26517513
356.52	0.26796133
356.736	0.26815031
356.952	0.26766464
357.168	0.26901063
357.384	0.26940639
357.6	0.26262866
357.816	0.26379809
358.032	0.26711955
358.248	0.27034148
358.464	0.26860065
358.679	0.27030413
358.895	0.26926029
359.111	0.27116086
359.327	0.26663942
359.543	0.26469153
359.759	0.26392381
359.974	0.262943
360.19	0.26011301
360.406	0.25921914
360.622	0.25800418
360.838	0.25695852
361.053	0.25561462
361.269	0.25718516
361.485	0.25767956
361.701	0.25726449
361.916	0.25393067
362.132	0.25235248
362.348	0.25185694
362.563	0.25087219
362.779	0.24759933
362.995	0.2474237
363.21	0.24784627
363.426	0.24659126
363.641	0.24565281
363.857	0.24689221
364.073	0.24436475
364.288	0.23990055
364.504	0.24155357
364.719	0.24108396
364.935	0.24011219
365.15	0.23943292
365.366	0.23852554
365.581	0.23911241
365.797	0.24095994
366.012	0.23587109
366.228	0.23334102
366.443	0.2355055
366.658	0.23428937
366.874	0.23161694
367.089	0.23198596
367.305	0.23071788
367.52	0.23106207
367.735	0.22917942
367.951	0.2255624
368.166	0.22606183
368.381	0.226847
368.597	0.22461792
368.812	0.22393938
369.027	0.22349012
369.243	0.22298411
369.458	0.22458793
369.673	0.22284739
369.888	0.22065252
370.104	0.21840448
370.319	0.21743576
370.534	0.21523208
370.749	0.21539611
370.964	0.21281461
371.179	0.21173842
371.395	0.2104747
371.61	0.21102112
371.825	0.20814108
372.04	0.20778125
372.255	0.20518827
372.47	0.204344
372.685	0.20202481
372.9	0.20080596
373.115	0.19811116
373.33	0.19815748
373.545	0.19845867
373.76	0.19720557
373.975	0.19591837
374.19	0.1942082
374.405	0.19372198
374.62	0.19388372
374.835	0.19420869
375.05	0.19186729
375.265	0.19079828
375.48	0.19022885
375.695	0.19169922
375.91	0.18965672
376.125	0.18755502
376.339	0.18424431
376.554	0.18232215
376.769	0.18221683
376.984	0.18113392
377.199	0.17969108
377.414	0.17848014
377.628	0.1785653
377.843	0.17875504
378.058	0.17885517
378.273	0.17804642
378.487	0.17699822
378.702	0.17635293
378.917	0.1756991
379.131	0.17355123
379.346	0.17149831
379.561	0.16929592
379.775	0.16722564
379.99	0.1655728
380.205	0.16377401
380.419	0.16244214
380.634	0.16145811
380.848	0.16142162
381.063	0.16055396
381.278	0.16078195
381.492	0.15957374
381.707	0.158723
381.921	0.15730282
382.136	0.15686615
382.35	0.15526085
382.565	0.1547864
382.779	0.15374459
382.994	0.15274178
383.208	0.15142927
383.422	0.15209959
383.637	0.15098606
383.851	0.15077871
384.066	0.14981343
384.28	0.148531
384.494	0.14733182
384.709	0.14703567
384.923	0.1458712
385.137	0.14461988
385.352	0.14380153
385.566	0.14332717
385.78	0.14235994
385.995	0.14186881
386.209	0.14073105
386.423	0.14001726
386.637	0.13956012
386.852	0.13799774
387.066	0.13656219
387.28	0.13544488
387.494	0.13490935
387.708	0.13382711
387.923	0.13246351
388.137	0.13227723
388.351	0.13180116
388.565	0.13121219
388.779	0.13134988
388.993	0.13142607
389.207	0.13089319
389.421	0.13038932
389.635	0.12907079
389.85	0.12854198
390.064	0.12786223
390.278	0.12686537
390.492	0.1258024
390.706	0.12554258
390.92	0.1252283
391.134	0.12517836
391.348	0.12488126
391.561	0.12435815
391.775	0.12398198
391.989	0.12300863
392.203	0.12198779
392.417	0.12103281
392.631	0.12049774
392.845	0.1195019
393.059	0.11880111
393.273	0.11777853
393.486	0.11662058
393.7	0.11600472
393.914	0.11585969
394.128	0.11466695
394.342	0.11417303
394.555	0.11350241
394.769	0.11300071
394.983	0.11289078
395.197	0.11271472
395.41	0.11157587
395.624	0.11122763
395.838	0.11071076
396.051	0.11076759
396.265	0.11026472
396.479	0.11000549
396.692	0.10954684
396.906	0.10916893
397.12	0.10863807
397.333	0.10806065
397.547	0.10741269
397.76	0.10718863
397.974	0.10646883
398.187	0.10578904
398.401	0.10566639
398.614	0.10534524
398.828	0.10491552
399.041	0.10433611
399.255	0.1035951
399.468	0.10306382
399.682	0.10256308
399.895	0.1022791
400.109	0.10181946
400.322	0.10136653
400.536	0.10089326
400.749	0.10093609
400.962	0.1008561
401.176	0.10029161
401.389	0.0996376
401.602	0.09890803
401.816	0.09879078
402.029	0.09839864
402.242	0.09773026
402.456	0.09731956
402.669	0.09692001
402.882	0.09618575
403.095	0.09612407
403.309	0.09599945
403.522	0.09577451
403.735	0.09518272
403.948	0.09484266
404.161	0.09481042
404.375	0.0945557
404.588	0.09408274
404.801	0.09314076
405.014	0.09277001
405.227	0.09274095
405.44	0.09233783
405.653	0.09220858
405.866	0.09183492
406.079	0.09132794
406.293	0.09139638
406.506	0.09099562
406.719	0.09074793
406.932	0.09050158
407.145	0.08982519
407.358	0.08948544
407.571	0.08902199
407.784	0.08825637
407.996	0.08807223
408.209	0.08767584
408.422	0.08726413
408.635	0.08720509
408.848	0.08731699
409.061	0.08757503
409.274	0.08742249
409.487	0.0872255
409.7	0.08668689
409.912	0.0863955
410.125	0.08614684
410.338	0.08583201
410.551	0.08517157
410.764	0.08510784
410.976	0.08446454
411.189	0.08436772
411.402	0.0841925
411.615	0.08389351
411.827	0.08354849
412.04	0.08351746
412.253	0.08321522
412.465	0.08301756
412.678	0.0826721
412.891	0.08281867
413.103	0.08229231
413.316	0.08190919
413.529	0.08174891
413.741	0.08156752
413.954	0.08147624
414.166	0.08133606
414.379	0.08088646
414.591	0.08111788
414.804	0.08078287
415.016	0.08054815
415.229	0.08022775
415.441	0.08014462
415.654	0.08016407
415.866	0.07976368
416.079	0.079439
416.291	0.07948323
416.504	0.07937205
416.716	0.07901319
416.928	0.07877619
417.141	0.07852192
417.353	0.07839941
417.566	0.07824878
417.778	0.07817258
417.99	0.07785507
418.203	0.07778695
418.415	0.0775956
418.627	0.07743864
418.839	0.07728271
419.052	0.07707671
419.264	0.07706121
419.476	0.07698705
419.688	0.07689158
419.901	0.07651275
420.113	0.07633066
420.325	0.07621577
420.537	0.07606945
420.749	0.07568018
420.961	0.0754663
421.174	0.07533912
421.386	0.07525463
421.598	0.07492192
421.81	0.07478606
422.022	0.07463985
422.234	0.07458972
422.446	0.07441302
422.658	0.07426175
422.87	0.07429888
423.082	0.07444562
423.294	0.07404421
423.506	0.0737606
423.718	0.0734887
423.93	0.07339573
424.142	0.07313502
424.354	0.07304419
424.566	0.07273333
424.778	0.07264265
424.99	0.07277897
425.202	0.07272222
425.414	0.07261749
425.625	0.07259124
425.837	0.07238199
426.049	0.07245332
426.261	0.07259422
426.473	0.07220039
426.684	0.07198494
426.896	0.07197931
427.108	0.07196356
427.32	0.07196813
427.531	0.07172187
427.743	0.07157568
427.955	0.07165239
428.167	0.07174753
428.378	0.07175924
428.59	0.07160721
428.802	0.07164314
429.013	0.07158389
429.225	0.07163407
429.436	0.0716388
429.648	0.0714463
429.86	0.07120253
430.071	0.07122166
430.283	0.07095894
430.494	0.07113588
430.706	0.07101319
430.917	0.07101592
431.129	0.07104138
431.34	0.07111337
431.552	0.07114009
431.763	0.07114275
431.975	0.07090896
432.186	0.07079995
432.398	0.07066979
432.609	0.07049543
432.821	0.07045918
433.032	0.07037701
433.243	0.07021828
433.455	0.07041141
433.666	0.07033147
433.877	0.07017671
434.089	0.07030194
434.3	0.07012117
434.511	0.06994424
434.723	0.06975295
434.934	0.06940414
435.145	0.06922215
435.356	0.06911741
435.568	0.06895365
435.779	0.0690296
435.99	0.06903807
436.201	0.06903491
436.412	0.06860811
436.624	0.06862683
436.835	0.06851256
437.046	0.06818651
437.257	0.06788171
437.468	0.06764591
437.679	0.06761816
437.89	0.06780264
438.101	0.06774091
438.312	0.06767135
438.523	0.06766555
438.734	0.06776076
438.945	0.0677052
439.156	0.06744769
439.367	0.06756399
439.578	0.06765044
439.789	0.06759437
440	0.06776897
440.211	0.06755662
440.422	0.06754722
440.633	0.06768969
440.844	0.06748154
441.055	0.06738505
441.266	0.06737196
441.477	0.06726779
441.687	0.06731347
441.898	0.06726003
442.109	0.06719036
442.32	0.06713966
442.531	0.06687555
442.741	0.06675584
442.952	0.06666506
443.163	0.06656078
443.374	0.06647479
443.584	0.06639417
443.795	0.06644681
444.006	0.06655799
444.216	0.0666227
444.427	0.06655288
444.638	0.06653478
444.848	0.06666113
445.059	0.06674864
445.27	0.06661778
445.48	0.06649986
445.691	0.06638871
445.901	0.06629049
446.112	0.06620662
446.323	0.06609175
446.533	0.06599256
446.744	0.06592031
446.954	0.06587232
447.165	0.06575435
447.375	0.06583906
447.586	0.06588385
447.796	0.06574694
448.006	0.06570551
448.217	0.06575316
448.427	0.06576422
448.638	0.06582745
448.848	0.06563283
449.058	0.06556675
449.269	0.06566503
449.479	0.06560129
449.689	0.06555723
449.9	0.06557676
450.11	0.06565983
450.32	0.06580013
450.531	0.06578534
450.741	0.06569811
450.951	0.06564579
451.161	0.06551967
451.372	0.06554765
451.582	0.06561252
451.792	0.06563147
452.002	0.06555755
452.212	0.06556075
452.422	0.06557314
452.633	0.06566363
452.843	0.06567155
453.053	0.06539275
453.263	0.06535117
453.473	0.06543373
453.683	0.06548569
453.893	0.06555856
454.103	0.06565683
454.313	0.06560604
454.523	0.06580199
454.733	0.06564679
454.943	0.06566035
455.153	0.06558079
455.363	0.0654827
455.573	0.06534396
455.783	0.06532358
455.993	0.06524758
456.203	0.06555145
456.413	0.06552177
456.623	0.06551294
456.833	0.06549143
457.042	0.0656128
457.252	0.06564367
457.462	0.06559757
457.672	0.06544606
457.882	0.06544347
458.091	0.06558172
458.301	0.06567257
458.511	0.06553102
458.721	0.06548928
458.931	0.06553516
459.14	0.06547888
459.35	0.06554952
459.56	0.06545655
459.769	0.06552914
459.979	0.06562171
460.189	0.06570942
460.398	0.06570627
460.608	0.06583038
460.817	0.06577081
461.027	0.06580984
461.237	0.06586847
461.446	0.06579506
461.656	0.06585321
461.865	0.06588403
462.075	0.06585278
462.284	0.06588224
462.494	0.0658756
462.703	0.06577255
462.913	0.06590384
463.122	0.06579825
463.332	0.0658763
463.541	0.06596653
463.751	0.06591446
463.96	0.06594722
464.169	0.06601676
464.379	0.06600959
464.588	0.06617493
464.797	0.06631576
465.007	0.06623768
465.216	0.06641824
465.425	0.06646869
465.635	0.06649865
465.844	0.06653635
466.053	0.0665342
466.263	0.06638245
466.472	0.06651931
466.681	0.06656642
466.89	0.06660353
467.099	0.06666345
467.309	0.06666319
467.518	0.06664901
467.727	0.06673789
467.936	0.06660846
468.145	0.06656299
468.354	0.06664423
468.563	0.06661744
468.772	0.06671124
468.982	0.06665922
469.191	0.06679606
469.4	0.06694995
469.609	0.06693316
469.818	0.06690799
470.027	0.06697463
470.236	0.06694452
470.445	0.06699151
470.654	0.06691741
470.863	0.06696316
471.072	0.06711794
471.28	0.06715136
471.489	0.0672514
471.698	0.0673311
471.907	0.06749071
472.116	0.06749034
472.325	0.06748531
472.534	0.0675388
472.743	0.06759258
472.951	0.0676382
473.16	0.06774092
473.369	0.06778781
473.578	0.06797285
473.786	0.06807934
473.995	0.06812085
474.204	0.06827609
474.413	0.06839824
474.621	0.06856205
474.83	0.0685672
475.039	0.06846282
475.247	0.06856536
475.456	0.06856737
475.665	0.06859517
475.873	0.06858922
476.082	0.06855875
476.291	0.06863298
476.499	0.06877373
476.708	0.06880574
476.916	0.06897761
477.125	0.06902656
477.333	0.06917063
477.542	0.06925391
477.75	0.06938625
477.959	0.06956704
478.167	0.06962694
478.376	0.06961064
478.584	0.06965179
478.793	0.0697407
479.001	0.06976648
479.209	0.0698386
479.418	0.06977304
479.626	0.06989536
479.834	0.06998119
480.043	0.07018651
480.251	0.07022443
480.459	0.07028116
480.668	0.07028685
480.876	0.07044158
481.084	0.07046603
481.293	0.07061219
481.501	0.07065923
481.709	0.07072557
481.917	0.07088067
482.125	0.0710437
482.334	0.07111637
482.542	0.07120867
482.75	0.07121281
482.958	0.07126478
483.166	0.07138934
483.374	0.07146425
483.583	0.07152489
483.791	0.07161618
483.999	0.07173927
484.207	0.07185282
484.415	0.07191759
484.623	0.0719828
484.831	0.07207664
485.039	0.07221408
485.247	0.07234378
485.455	0.07240153
485.663	0.07258931
485.871	0.07270904
486.079	0.07275994
486.287	0.07287987
486.495	0.07291472
486.702	0.07299981
486.91	0.07313112
487.118	0.07318587
487.326	0.07332631
487.534	0.07345726
487.742	0.0735471
487.95	0.07370583
488.157	0.07385789
488.365	0.07406059
488.573	0.07415984
488.781	0.07425093
488.988	0.07449083
489.196	0.07463626
489.404	0.07480455
489.612	0.07487236
489.819	0.07494618
490.027	0.07507604
490.235	0.07522627
490.442	0.07523601
490.65	0.07535421
490.857	0.07546126
491.065	0.07554032
491.273	0.07565478
491.48	0.07579595
491.688	0.07585492
491.895	0.07599108
492.103	0.07616111
492.31	0.07624642
492.518	0.07644837
492.725	0.0765458
492.933	0.07665527
493.14	0.07687732
493.348	0.07700389
493.555	0.07710983
493.763	0.07723017
493.97	0.07730249
494.177	0.07749724
494.385	0.07763068
494.592	0.07773146
494.8	0.0778434
495.007	0.0779818
495.214	0.07811433
495.422	0.07830947
495.629	0.07840782
495.836	0.07853676
496.043	0.07863711
496.251	0.07880497
496.458	0.07892283
496.665	0.07906826
496.872	0.07924884
497.08	0.0793794
497.287	0.07957994
497.494	0.07975579
497.701	0.07994682
497.908	0.08008882
498.115	0.08028625
498.322	0.08037131
498.53	0.08049001
498.737	0.0806363
498.944	0.08076977
499.151	0.08090317
499.358	0.08098426
499.565	0.0810734
499.772	0.08124029
499.979	0.08142692
500.186	0.08157254
500.393	0.08170966
500.6	0.08182161
500.807	0.08197816
501.014	0.08216304
501.221	0.08236445
501.427	0.08249054
501.634	0.08261278
501.841	0.08279622
502.048	0.08297729
502.255	0.08314008
502.462	0.0832793
502.669	0.08337628
502.875	0.08357729
503.082	0.08371819
503.289	0.08379017
503.496	0.08390546
503.702	0.08409596
503.909	0.08430685
504.116	0.0844997
504.323	0.08461528
504.529	0.08479057
504.736	0.08497469
504.943	0.08511974
505.149	0.08532559
505.356	0.08545742
505.563	0.085611
505.769	0.0858107
505.976	0.08599123
506.182	0.08622341
506.389	0.08648271
506.595	0.08668833
506.802	0.08687841
507.008	0.08704635
507.215	0.08722157
507.421	0.08743559
507.628	0.08757665
507.834	0.08770717
508.041	0.08781293
508.247	0.08794565
508.454	0.08814797
508.66	0.08829699
508.866	0.088404
509.073	0.08861486
509.279	0.08881726
509.486	0.08904239
509.692	0.08914002
509.898	0.08928711
510.105	0.08950099
510.311	0.08970409
510.517	0.08987039
510.723	0.09006324
510.93	0.09021201
511.136	0.09048981
511.342	0.09069254
511.548	0.09087398
511.754	0.09107857
511.961	0.0912295
512.167	0.09133206
512.373	0.09157941
512.579	0.09178989
512.785	0.09197536
512.991	0.0921861
513.197	0.09236595
513.404	0.0926391
513.61	0.09289623
513.816	0.09307527
514.022	0.09326649
514.228	0.09350686
514.434	0.09367271
514.64	0.09387101
514.846	0.09400935
515.052	0.09421616
515.258	0.09436529
515.464	0.09452959
515.669	0.09469635
515.875	0.09488337
516.081	0.09511996
516.287	0.09538583
516.493	0.09558287
516.699	0.09578029
516.905	0.09605102
517.111	0.09625117
517.316	0.09648249
517.522	0.09670936
517.728	0.09692272
517.934	0.09710777
518.139	0.09735301
518.345	0.09747651
518.551	0.0976362
518.757	0.0978472
518.962	0.09799269
519.168	0.09815447
519.374	0.09837629
519.579	0.09856488
519.785	0.09886462
519.991	0.09913373
520.196	0.0993578
520.402	0.09957099
520.607	0.09982803
520.813	0.10006856
521.018	0.10031825
521.224	0.10047646
521.429	0.10073635
521.635	0.10093833
521.84	0.10115025
522.046	0.10135426
522.251	0.10155641
522.457	0.10170903
522.662	0.10192503
522.868	0.10213627
523.073	0.10233452
523.279	0.10249359
523.484	0.1026837
523.689	0.10289732
523.895	0.10319253
524.1	0.10342923
524.305	0.10356518
524.511	0.10371131
524.716	0.10393507
524.921	0.10411616
525.126	0.10428761
525.332	0.10441407
525.537	0.10458083
525.742	0.10485998
525.947	0.10516095
526.153	0.10543451
526.358	0.10570913
526.563	0.10597747
526.768	0.10627113
526.973	0.10650755
527.178	0.1067132
527.383	0.10692828
527.588	0.10718164
527.794	0.10740709
527.999	0.10763697
528.204	0.10778915
528.409	0.10798393
528.614	0.10817517
528.819	0.10838504
529.024	0.10855377
529.229	0.10872152
529.434	0.1089067
529.639	0.1091445
529.843	0.10938679
530.048	0.10959849
530.253	0.10981396
530.458	0.11005119
530.663	0.11031214
530.868	0.11054413
531.073	0.11079745
531.278	0.1110516
531.482	0.11136358
531.687	0.11163064
531.892	0.11181123
532.097	0.11196803
532.302	0.11217685
532.506	0.11240133
532.711	0.11260223
532.916	0.11277971
533.12	0.11295965
533.325	0.11317511
533.53	0.11343874
533.734	0.1136511
533.939	0.11386397
534.144	0.11406671
534.348	0.11421081
534.553	0.11448164
534.757	0.11475235
534.962	0.11500659
535.167	0.11526658
535.371	0.11551356
535.576	0.11578192
535.78	0.11612114
535.985	0.11635365
536.189	0.11661831
536.394	0.1168261
536.598	0.11702659
536.803	0.11722523
537.007	0.11746355
537.211	0.11759516
537.416	0.11773706
537.62	0.11789646
537.825	0.11812557
538.029	0.11838283
538.233	0.11858682
538.438	0.1188117
538.642	0.11908013
538.846	0.11935656
539.05	0.1195755
539.255	0.11975405
539.459	0.11999609
539.663	0.12025281
539.867	0.12044217
540.072	0.12067844
540.276	0.12090333
540.48	0.12121476
540.684	0.12150089
540.888	0.12175516
541.092	0.12199247
541.297	0.12223783
541.501	0.12241523
541.705	0.12265725
541.909	0.12281711
542.113	0.12300912
542.317	0.12321826
542.521	0.12343539
542.725	0.12367198
542.929	0.123929
543.133	0.12413015
543.337	0.12437393
543.541	0.12463318
543.745	0.12480775
543.949	0.12505274
544.153	0.12527136
544.357	0.12550042
544.56	0.12575144
544.764	0.12594259
544.968	0.12613517
545.172	0.12630416
545.376	0.12645946
545.58	0.12662248
545.783	0.12683719
545.987	0.12702147
546.191	0.12724004
546.395	0.12746622
546.598	0.12773778
546.802	0.12800136
547.006	0.12824229
547.21	0.1284558
547.413	0.12864257
547.617	0.12892164
547.821	0.12916633
548.024	0.12940851
548.228	0.12961296
548.431	0.1298923
548.635	0.13006009
548.839	0.13029922
549.042	0.13046442
549.246	0.13059444
549.449	0.13076731
549.653	0.13096721
549.856	0.13113679
550.06	0.13137412
550.263	0.13164573
550.467	0.13189814
550.67	0.13216704
550.874	0.13243456
551.077	0.13267328
551.28	0.13289016
551.484	0.13312686
551.687	0.13325246
551.891	0.1334406
552.094	0.13362677
552.297	0.13381027
552.501	0.13400518
552.704	0.13418629
552.907	0.13431321
553.11	0.13454655
553.314	0.13477957
553.517	0.13498294
553.72	0.13516146
553.923	0.13536006
554.127	0.13559094
554.33	0.13584796
554.533	0.13605825
554.736	0.13621509
554.939	0.13644722
555.142	0.13669183
555.345	0.13686388
555.549	0.13706594
555.752	0.13726813
555.955	0.13748348
556.158	0.13767586
556.361	0.13786468
556.564	0.13803762
556.767	0.13825188
556.97	0.13842401
557.173	0.13861837
557.376	0.13882244
557.579	0.13897333
557.782	0.13914955
557.984	0.13930831
558.187	0.13954062
558.39	0.13973458
558.593	0.13991901
558.796	0.14006392
558.999	0.14025718
559.202	0.14048042
559.404	0.1406687
559.607	0.14080302
559.81	0.14096877
560.013	0.14111658
560.216	0.14128578
560.418	0.14149953
560.621	0.14165087
560.824	0.14185
561.026	0.14208197
561.229	0.14226176
561.432	0.14249431
561.634	0.14266176
561.837	0.14289957
562.04	0.14307398
562.242	0.14324157
562.445	0.14335898
562.647	0.14352667
562.85	0.14361816
563.053	0.14380445
563.255	0.14389595
563.458	0.14410368
563.66	0.14427196
563.863	0.14450871
564.065	0.14468144
564.268	0.14487975
564.47	0.14509966
564.672	0.14526335
564.875	0.14540126
565.077	0.14557251
565.28	0.14568685
565.482	0.14582786
565.684	0.14606062
565.887	0.14612818
566.089	0.14623949
566.291	0.14639246
566.494	0.14654956
566.696	0.14675333
566.898	0.14687513
567.1	0.14698728
567.303	0.14722928
567.505	0.14746051
567.707	0.14756015
567.909	0.1476517
568.111	0.14774611
568.314	0.14796193
568.516	0.14810951
568.718	0.14822175
568.92	0.14835141
569.122	0.14848389
569.324	0.14866122
569.526	0.1488122
569.728	0.14893579
569.93	0.14905464
570.132	0.14913396
570.334	0.14924494
570.536	0.14938769
570.738	0.14947542
570.94	0.14947719
571.142	0.14963373
571.344	0.14972709
571.546	0.14985266
571.748	0.14998951
571.95	0.15012385
572.152	0.15029352
572.354	0.15052811
572.555	0.15064822
572.757	0.15079552
572.959	0.15090028
573.161	0.15104918
573.363	0.15112563
573.564	0.15130942
573.766	0.15141008
573.968	0.15155095
574.17	0.15168185
574.371	0.15183516
574.573	0.15191141
574.775	0.15202925
574.976	0.15205581
575.178	0.15215218
575.38	0.15214964
575.581	0.15220367
575.783	0.15232877
575.985	0.1525
576.186	0.15262118
576.388	0.15275935
576.589	0.15281828
576.791	0.15302151
576.992	0.15315474
577.194	0.15318971
577.395	0.15324531
577.597	0.15341853
577.798	0.1534963
578	0.15364962
578.201	0.15377426
578.402	0.15393098
578.604	0.15404394
578.805	0.15415463
579.007	0.15423214
579.208	0.15440309
579.409	0.15449838
579.611	0.15455247
579.812	0.15464003
580.013	0.15479444
580.215	0.15479959
580.416	0.15485638
580.617	0.15481497
580.818	0.15486133
581.019	0.15493437
581.221	0.15500094
581.422	0.15504956
581.623	0.15522147
581.824	0.155242
582.025	0.15538207
582.226	0.15547292
582.428	0.15560475
582.629	0.15567594
582.83	0.15579335
583.031	0.15584158
583.232	0.1559703
583.433	0.15608672
583.634	0.15619153
583.835	0.15617965
584.036	0.15614209
584.237	0.1561708
584.438	0.15626504
584.639	0.15634331
584.84	0.15643753
585.041	0.15653409
585.242	0.15661466
585.442	0.15678874
585.643	0.15693182
585.844	0.15698159
586.045	0.15704565
586.246	0.15701668
586.447	0.15702286
586.647	0.15706521
586.848	0.15712293
587.049	0.15711546
587.25	0.15716056
587.45	0.15716431
587.651	0.15728471
587.852	0.15738948
588.053	0.15757661
588.253	0.15770309
588.454	0.15784531
588.655	0.15795735
588.855	0.15810294
589.056	0.15822008
589.256	0.15836321
589.457	0.15837122
589.658	0.15843033
589.858	0.15842087
590.059	0.1584973
590.259	0.15860883
590.46	0.15866133
590.66	0.15867649
590.861	0.15881848
591.061	0.15889734
591.262	0.15905677
591.462	0.15916561
591.662	0.15919517
591.863	0.15922379
592.063	0.1593294
592.264	0.15937727
592.464	0.15945292
592.664	0.15949206
592.865	0.15962596
593.065	0.15965296
593.265	0.15977266
593.465	0.15974019
593.666	0.15977131
593.866	0.15977397
594.066	0.15987478
594.266	0.15983438
594.467	0.15998662
594.667	0.16003415
594.867	0.16023663
595.067	0.16027957
595.267	0.16030654
595.467	0.16031513
595.668	0.16036506
595.868	0.16036716
596.068	0.16035579
596.268	0.16028618
596.468	0.16038915
596.668	0.16048047
596.868	0.16058109
597.068	0.16066012
597.268	0.16076946
597.468	0.16087886
597.668	0.16095926
597.868	0.16102016
598.068	0.16113775
598.268	0.16116103
598.467	0.1612715
598.667	0.16123686
598.867	0.16127755
599.067	0.1613889
599.267	0.16138863
599.467	0.16142493
599.667	0.16146769
599.866	0.16149017
600.066	0.16159042
600.266	0.16163497
600.466	0.16168777
600.665	0.16177878
600.865	0.16183378
601.065	0.16192309
601.264	0.16193866
601.464	0.16198123
601.664	0.16215798
601.863	0.16223866
602.063	0.16232837
602.263	0.16231305
602.462	0.1623986
602.662	0.16249043
602.861	0.16262598
603.061	0.16260751
603.26	0.16269141
603.46	0.16267885
603.659	0.16281856
603.859	0.16282502
604.058	0.16280135
604.258	0.16286869
604.457	0.16299151
604.657	0.16290963
604.856	0.16299787
605.056	0.16311803
605.255	0.1632245
605.454	0.16340306
605.654	0.16337097
605.853	0.16337916
606.052	0.16352984
606.252	0.16360659
606.451	0.16363788
606.65	0.16366561
606.849	0.16362412
607.049	0.16374321
607.248	0.16378444
607.447	0.16382483
607.646	0.16389462
607.845	0.16394316
608.045	0.16395792
608.244	0.16412922
608.443	0.16414374
608.642	0.16424064
608.841	0.16427243
609.04	0.16425835
609.239	0.16434903
609.438	0.16438945
609.637	0.16448014
609.836	0.16462879
610.035	0.16473513
610.234	0.16489126
610.433	0.16507263
610.632	0.16513135
610.831	0.16542356
611.03	0.16542603
611.229	0.16556327
611.428	0.16564093
611.627	0.16568036
611.826	0.16577275
612.025	0.16598522
612.224	0.16593925
612.422	0.16605068
612.621	0.16612293
612.82	0.16621204
613.019	0.16633068
613.218	0.16645099
613.416	0.16636701
613.615	0.16652985
613.814	0.16666802
614.012	0.16675899
614.211	0.166766
614.41	0.16693439
614.608	0.16703739
614.807	0.16718734
615.006	0.16733416
615.204	0.16742275
615.403	0.16755047
615.602	0.16779122
615.8	0.16795322
615.999	0.1679897
616.197	0.16810683
616.396	0.16823398
616.594	0.16829846
616.793	0.16841287
616.991	0.16843477
617.19	0.16832463
617.388	0.16855598
617.586	0.16866718
617.785	0.16865519
617.983	0.16881105
618.182	0.16884956
618.38	0.16890173
618.578	0.16908086
618.777	0.16909001
618.975	0.16920783
619.173	0.16938287
619.372	0.16946739
619.57	0.16958395
619.768	0.1697996
619.966	0.16996543
620.165	0.1700744
620.363	0.17021715
620.561	0.17018337
620.759	0.1703273
620.957	0.17050178
621.155	0.17066722
621.354	0.17070361
621.552	0.17090522
621.75	0.17098955
621.948	0.17126594
622.146	0.17143517
622.344	0.17151409
622.542	0.17165556
622.74	0.17192863
622.938	0.17198103
623.136	0.17221472
623.334	0.17239302
623.532	0.17237034
623.73	0.17249506
623.928	0.17263228
624.126	0.17274342
624.324	0.17298338
624.522	0.17297037
624.719	0.17305544
624.917	0.1733322
625.115	0.17342339
625.313	0.17354637
625.511	0.17368154
625.708	0.17364573
625.906	0.17381706
626.104	0.17393789
626.302	0.17417231
626.499	0.17442498
626.697	0.17457784
626.895	0.17465606
627.093	0.17488728
627.29	0.17512327
627.488	0.17526956
627.686	0.175385
627.883	0.17544912
628.081	0.17546158
628.278	0.17576525
628.476	0.17586871
628.673	0.17594966
628.871	0.17611331
629.068	0.17618502
629.266	0.17640179
629.463	0.17652238
629.661	0.1765576
629.858	0.17667805
630.056	0.17680178
630.253	0.17687672
630.451	0.17707947
630.648	0.17717261
630.845	0.17735005
631.043	0.17748711
631.24	0.17772932
631.438	0.17790051
631.635	0.17809406
631.832	0.17809653
632.029	0.1782966
632.227	0.17845741
632.424	0.17863442
632.621	0.17875195
632.818	0.17884844
633.016	0.17904817
633.213	0.17922751
633.41	0.1794343
633.607	0.17966008
633.804	0.17979303
634.001	0.17989601
634.199	0.18015836
634.396	0.18028758
634.593	0.18041522
634.79	0.18050701
634.987	0.18067626
635.184	0.18082598
635.381	0.18107694
635.578	0.18124533
635.775	0.18133304
635.972	0.1815087
636.169	0.18168303
636.366	0.18171715
636.563	0.18184345
636.76	0.18188565
636.957	0.18203294
637.153	0.18214446
637.35	0.1823367
637.547	0.18242213
637.744	0.18261211
637.941	0.1827792
638.138	0.18301355
638.334	0.18305366
638.531	0.18327709
638.728	0.18341689
638.925	0.18373847
639.121	0.18392866
639.318	0.18413718
639.515	0.18425305
639.711	0.1845407
639.908	0.18463826
640.105	0.1847731
640.301	0.18472819
640.498	0.18481427
640.695	0.18496689
640.891	0.18510222
641.088	0.18520052
641.284	0.18542429
641.481	0.18556665
641.677	0.1857509
641.874	0.18584175
642.07	0.18600253
642.267	0.18624127
642.463	0.18636625
642.66	0.18656943
642.856	0.18670565
643.053	0.18678737
643.249	0.18705106
643.445	0.18715725
643.642	0.18723563
643.838	0.18741484
644.034	0.1874795
644.231	0.1876024
644.427	0.18782968
644.623	0.18793316
644.82	0.18809741
645.016	0.18826345
645.212	0.18828916
645.408	0.18847827
645.604	0.18878435
645.801	0.18898337
645.997	0.18917631
646.193	0.18928621
646.389	0.18951178
646.585	0.1897482
646.781	0.18996448
646.977	0.19005956
647.173	0.19010484
647.37	0.19019294
647.566	0.19034206
647.762	0.19040155
647.958	0.19059201
648.154	0.19063921
648.35	0.19076813
648.546	0.19094129
648.742	0.19122964
648.937	0.19125154
649.133	0.19143773
649.329	0.19163309
649.525	0.19179149
649.721	0.19194629
649.917	0.19220146
650.113	0.19226233
650.309	0.19267495
650.504	0.1927963
650.7	0.19286219
650.896	0.19306437
651.092	0.19319487
651.287	0.19330672
651.483	0.19352588
651.679	0.19353174
651.875	0.19376146
652.07	0.1938842
652.266	0.19402721
652.462	0.19414395
652.657	0.19419894
652.853	0.19422563
653.048	0.19442835
653.244	0.19443972
653.44	0.1946541
653.635	0.19467837
653.831	0.19493724
654.026	0.19522895
654.222	0.19540084
654.417	0.19553333
654.613	0.19574764
654.808	0.19579059
655.004	0.19601782
655.199	0.19604364
655.394	0.19611042
655.59	0.19632626
655.785	0.19640139
655.98	0.19654613
656.176	0.19668194
656.371	0.19688685
656.566	0.19708053
656.762	0.19714522
656.957	0.1972773
657.152	0.19738243
657.348	0.19750869
657.543	0.19772247
657.738	0.1978688
657.933	0.19795876
658.128	0.19815689
658.324	0.19823108
658.519	0.19848057
658.714	0.19866197
658.909	0.19876484
659.104	0.1988949
659.299	0.19907734
659.494	0.19919345
659.689	0.1994047
659.884	0.1994797
660.079	0.19952098
660.274	0.19962451
660.469	0.19971964
660.664	0.19986174
660.859	0.19999101
661.054	0.20012431
661.249	0.20029224
661.444	0.20049136
661.639	0.20064931
661.834	0.20070115
662.029	0.20081993
662.224	0.20096013
662.418	0.20107021
662.613	0.20121453
662.808	0.20131415
663.003	0.20144658
663.198	0.20166645
663.392	0.20175114
663.587	0.20201012
663.782	0.20204006
663.977	0.20212714
664.171	0.20224239
664.366	0.20239775
664.561	0.20249635
664.755	0.20268974
664.95	0.2026886
665.144	0.20286292
665.339	0.20305138
665.534	0.20321647
665.728	0.20334404
665.923	0.20350229
666.117	0.20359532
666.312	0.20371506
666.506	0.20391014
666.701	0.20395487
666.895	0.2040625
667.09	0.20417852
667.284	0.20436198
667.479	0.2045111
667.673	0.2046463
667.867	0.20477476
668.062	0.20487877
668.256	0.20498306
668.45	0.20513829
668.645	0.20512437
668.839	0.20517167
669.033	0.20527186
669.228	0.20530057
669.422	0.2054643
669.616	0.20555368
669.81	0.20568189
670.004	0.20580271
670.199	0.20602509
670.393	0.2061355
670.587	0.20634765
670.781	0.20650499
670.975	0.20670815
671.169	0.20673659
671.363	0.20683187
671.558	0.20691604
671.752	0.207091
671.946	0.20717737
672.14	0.20724549
672.334	0.20726738
672.528	0.20752102
672.722	0.20762839
672.916	0.20770545
673.11	0.20770962
673.304	0.20788785
673.497	0.20794315
673.691	0.20811519
673.885	0.20805469
674.079	0.20817666
674.273	0.20819074
674.467	0.20837324
674.661	0.20836726
674.854	0.20846907
675.048	0.20859901
675.242	0.20878893
675.436	0.20895406
675.629	0.20916754
675.823	0.20922592
676.017	0.20943255
676.211	0.20953311
676.404	0.20960759
676.598	0.2097169
676.792	0.20978567
676.985	0.20994272
677.179	0.21007465
677.372	0.21007377
677.566	0.2103117
677.76	0.21047852
677.953	0.21057497
678.147	0.21073908
678.34	0.21087625
678.534	0.21097632
678.727	0.21117753
678.921	0.21131035
679.114	0.21129519
679.307	0.21142247
679.501	0.2115223
679.694	0.21159561
679.888	0.21172677
680.081	0.21180849
680.274	0.21180728
680.468	0.21198723
680.661	0.21200058
680.854	0.21219656
681.048	0.2123235
681.241	0.21243632
681.434	0.21254431
681.627	0.21272353
681.821	0.21278753
682.014	0.21305661
682.207	0.21305585
682.4	0.21312637
682.593	0.21327715
682.786	0.21337436
682.98	0.21345374
683.173	0.21369037
683.366	0.2137138
683.559	0.21378616
683.752	0.21391565
683.945	0.21390742
684.138	0.21402285
684.331	0.21408276
684.524	0.21418463
684.717	0.21423801
684.91	0.21445989
685.103	0.21452057
685.296	0.21472626
685.489	0.2148426
685.682	0.21493986
685.874	0.21502722
686.067	0.21519853
686.26	0.21527019
686.453	0.21542008
686.646	0.21551498
686.839	0.21566754
687.031	0.21581245
687.224	0.2158006
687.417	0.21595859
687.61	0.21600979
687.802	0.21610256
687.995	0.21623601
688.188	0.21632897
688.38	0.21644118
688.573	0.21663709
688.766	0.21669377
688.958	0.21677341
689.151	0.21679147
689.343	0.21686669
689.536	0.21691302
689.729	0.21701128
689.921	0.21712786
690.114	0.21716203
690.306	0.21732079
690.499	0.21751907
690.691	0.21763172
690.884	0.21776647
691.076	0.21787065
691.268	0.21787418
691.461	0.21790408
691.653	0.21797542
691.846	0.21807684
692.038	0.21813558
692.23	0.21817122
692.423	0.21823751
692.615	0.21834473
692.807	0.21853466
692.999	0.21865065
693.192	0.21867626
693.384	0.21877266
693.576	0.21882448
693.768	0.21890037
693.961	0.21892919
694.153	0.21902028
694.345	0.21908091
694.537	0.21922243
694.729	0.21933222
694.921	0.21943761
695.113	0.21958754
695.305	0.21973645
695.498	0.21978309
695.69	0.21990418
695.882	0.21996948
696.074	0.22003942
696.266	0.22017012
696.458	0.22023644
696.65	0.22037206
696.842	0.22055424
697.033	0.2206113
697.225	0.22065734
697.417	0.22085485
697.609	0.22092801
697.801	0.22101444
697.993	0.22116858
698.185	0.22122173
698.376	0.22137262
698.568	0.22144485
698.76	0.22148265
698.952	0.22156342
699.144	0.22164154
699.335	0.22164444
699.527	0.22171954
699.719	0.22176469
699.91	0.22198629
700.102	0.22203239
700.294	0.22224405
700.485	0.22238947
700.677	0.22255171
700.869	0.22272379
701.06	0.22287395
701.252	0.22287582
701.443	0.22301926
701.635	0.22305338
701.826	0.2231808
702.018	0.22322917
702.209	0.22328749
702.401	0.22328962
702.592	0.22341225
702.784	0.2234625
702.975	0.22357743
703.166	0.22364954
703.358	0.22375373
703.549	0.22386282
703.741	0.22402559
703.932	0.22411759
704.123	0.22420095
704.315	0.22431909
704.506	0.2245215
704.697	0.22463208
704.888	0.22477362
705.08	0.22490902
705.271	0.22504212
705.462	0.22512319
705.653	0.22516626
705.844	0.22509544
706.035	0.22520876
706.227	0.22528626
706.418	0.22533705
706.609	0.22540341
706.8	0.22560078
706.991	0.22567454
707.182	0.22581569
707.373	0.22582997
707.564	0.22590936
707.755	0.22599288
707.946	0.22611289
708.137	0.22614439
708.328	0.22625883
708.519	0.22637998
708.71	0.22655431
708.901	0.22664352
709.092	0.22682139
709.283	0.22695077
709.473	0.22709031
709.664	0.22725677
709.855	0.22732446
710.046	0.22747934
710.237	0.22758718
710.427	0.22763979
710.618	0.22772528
710.809	0.22781554
711	0.22791945
711.19	0.22796087
711.381	0.22803923
711.572	0.2281373
711.762	0.22825351
711.953	0.22833347
712.144	0.2283734
712.334	0.22841336
712.525	0.22861217
712.715	0.22865069
712.906	0.22870317
713.097	0.22875314
713.287	0.22882836
713.478	0.22895157
713.668	0.229061
713.859	0.22911929
714.049	0.22922005
714.239	0.22937104
714.43	0.22951518
714.62	0.22959013
714.811	0.22972704
715.001	0.22986594
715.191	0.23000397
715.382	0.23013411
715.572	0.2302817
715.762	0.23036049
715.953	0.23058975
716.143	0.23072372
716.333	0.23078034
716.523	0.2308403
716.714	0.23100505
716.904	0.23102952
717.094	0.23119568
717.284	0.2312003
717.474	0.2312752
717.664	0.23147899
717.855	0.23166503
718.045	0.23175954
718.235	0.23200194
718.425	0.23215009
718.615	0.23241406
718.805	0.23262297
718.995	0.23275093
719.185	0.23292109
719.375	0.23309429
719.565	0.23325164
719.755	0.23344301
719.945	0.23355014
720.135	0.23370016
720.325	0.23384084
720.515	0.23399973
720.704	0.2341759
720.894	0.23425908
721.084	0.234287
721.274	0.23444027
721.464	0.23456047
721.654	0.23468742
721.843	0.2347481
722.033	0.23482523
722.223	0.23487394
722.413	0.23503885
722.602	0.23513159
722.792	0.23531038
722.982	0.23543993
723.171	0.23563258
723.361	0.23578401
723.55	0.23603005
723.74	0.23609598
723.93	0.23617852
724.119	0.23616179
724.309	0.23624329
724.498	0.23630802
724.688	0.2363658
724.877	0.23640041
725.067	0.23653309
725.256	0.2365897
725.446	0.23675414
725.635	0.23680972
725.825	0.23686846
726.014	0.23693176
726.203	0.23701269
726.393	0.23702512
726.582	0.23712533
726.771	0.23716309
726.961	0.23717585
727.15	0.23719125
727.339	0.23724371
727.529	0.23733752
727.718	0.23744473
727.907	0.23752205
728.096	0.23765764
728.286	0.23782371
728.475	0.23801746
728.664	0.23815408
728.853	0.23824047
729.042	0.23829758
729.231	0.2383388
729.42	0.23834533
729.609	0.2383778
729.799	0.23834081
729.988	0.23839311
730.177	0.23838471
730.366	0.23850425
730.555	0.23857999
730.744	0.23864683
730.933	0.23871191
731.122	0.23882025
731.31	0.2388713
731.499	0.23898505
731.688	0.2390457
731.877	0.23919566
732.066	0.23932508
732.255	0.23944319
732.444	0.2395272
732.632	0.23961861
732.821	0.23971777
733.01	0.23977699
733.199	0.23977523
733.388	0.23978652
733.576	0.23987835
733.765	0.23997764
733.954	0.24010255
734.142	0.24022998
734.331	0.24039622
734.52	0.24052586
734.708	0.24065454
734.897	0.24068878
735.086	0.24071008
735.274	0.24068044
735.463	0.24070269
735.651	0.24075627
735.84	0.24084989
736.028	0.24089598
736.217	0.24099681
736.405	0.2410988
736.594	0.24118212
736.782	0.24118718
736.971	0.24120624
737.159	0.24122217
737.347	0.24127405
737.536	0.24131739
737.724	0.24142266
737.912	0.24151266
738.101	0.24159039
738.289	0.241652
738.477	0.24168647
738.666	0.24172574
738.854	0.24180127
739.042	0.24180015
739.23	0.24181941
739.418	0.24194999
739.607	0.24208012
739.795	0.24218472
739.983	0.24234155
740.171	0.24241586
740.359	0.2424812
740.547	0.2425356
740.735	0.24256209
740.923	0.2425683
741.112	0.24268463
741.3	0.24275024
741.488	0.24286091
741.676	0.24299775
741.864	0.24314282
742.052	0.24330694
742.239	0.24334531
742.427	0.24334433
742.615	0.24335906
742.803	0.24341678
742.991	0.24341555
743.179	0.2434731
743.367	0.24347474
743.555	0.24366225
743.742	0.24376871
743.93	0.24387756
744.118	0.24390927
744.306	0.24406036
744.494	0.24411303
744.681	0.24417837
744.869	0.24418975
745.057	0.24424725
745.244	0.24431191
745.432	0.24443746
745.62	0.24446999
745.807	0.24457294
745.995	0.24459382
746.182	0.244598
746.37	0.24466292
746.558	0.24472001
746.745	0.24472679
746.933	0.24476709
747.12	0.24481854
747.308	0.24483946
747.495	0.24488658
747.683	0.24492753
747.87	0.24496496
748.057	0.24507452
748.245	0.24516067
748.432	0.24519804
748.62	0.24534129
748.807	0.24541572
748.994	0.24552409
749.182	0.24556401
749.369	0.24558918
749.556	0.24572831
749.743	0.24579556
749.931	0.24588649
750.118	0.2460802
750.305	0.24613063
750.492	0.24618088
750.68	0.2462266
750.867	0.24624967
751.054	0.24631877
751.241	0.24634912
751.428	0.24636151
751.615	0.24636899
751.802	0.2465142
751.989	0.24657814
752.176	0.24664918
752.363	0.2467072
752.55	0.24677324
752.737	0.24680339
752.924	0.24687144
753.111	0.24689595
753.298	0.24703534
753.485	0.24706045
753.672	0.24712759
753.859	0.24719972
754.046	0.24723477
754.233	0.2472722
754.42	0.24728892
754.606	0.24716493
754.793	0.24712337
754.98	0.24716421
755.167	0.24713362
755.353	0.2472046
755.54	0.24725702
755.727	0.24729126
755.914	0.24740429
756.1	0.24744701
756.287	0.24744153
756.474	0.24752912
756.66	0.24751281
756.847	0.24756435
757.033	0.24760671
757.22	0.24766292
757.407	0.24775081
757.593	0.24789479
757.78	0.2479223
757.966	0.24800005
758.153	0.24804942
758.339	0.24811268
758.526	0.24815544
758.712	0.24819591
758.898	0.24822554
759.085	0.24823836
759.271	0.24829779
759.458	0.24839917
759.644	0.248452
759.83	0.24851553
760.017	0.24860531
760.203	0.24862184
760.389	0.2487475
760.576	0.24877184
760.762	0.24871128
760.948	0.24864964
761.134	0.24857128
761.32	0.24854879
761.507	0.24852759
761.693	0.24856308
761.879	0.24858873
762.065	0.24870395
762.251	0.24882563
762.437	0.24898547
762.623	0.24902502
762.809	0.24904164
762.995	0.24899983
763.181	0.24900738
763.367	0.24899019
763.553	0.24904239
763.739	0.24905762
763.925	0.24909581
764.111	0.2491375
764.297	0.24922441
764.483	0.24926555
764.669	0.24922913
764.855	0.24919685
765.041	0.2491005
765.227	0.24907607
765.412	0.24914826
765.598	0.24910279
765.784	0.24911817
765.97	0.24928055
766.156	0.2493255
766.341	0.24943125
766.527	0.24948531
766.713	0.2494343
766.898	0.24946343
767.084	0.24944703
767.27	0.24932188
767.455	0.2492529
767.641	0.2492483
767.827	0.24923077
768.012	0.24930161
768.198	0.24932124
768.383	0.24932527
768.569	0.24942206
768.754	0.24949749
768.94	0.24944125
769.125	0.24941512
769.311	0.24935818
769.496	0.24930386
769.682	0.24933216
769.867	0.24933136
770.052	0.24934454
770.238	0.24938109
770.423	0.24936794
770.608	0.2494117
770.794	0.24943008
770.979	0.24942826
771.164	0.24937691
771.35	0.24933692
771.535	0.24938185
771.72	0.24943817
771.905	0.24946577
772.09	0.24946208
772.276	0.24937406
772.461	0.24928916
772.646	0.24926381
772.831	0.24921343
773.016	0.24918137
773.201	0.24909937
773.386	0.24909623
773.571	0.24917298
773.756	0.24925374
773.941	0.249259
774.126	0.24936841
774.311	0.24934871
774.496	0.24932747
774.681	0.24934192
774.866	0.24929391
775.051	0.2492196
775.236	0.24923935
775.421	0.24903392
775.606	0.24899805
775.791	0.24895746
775.976	0.24887151
776.16	0.24884675
776.345	0.2489102
776.53	0.24896449
776.715	0.24909374
776.899	0.24913108
777.084	0.24914638
777.269	0.24916416
777.454	0.24913771
777.638	0.24904719
777.823	0.24894113
778.008	0.24883808
778.192	0.24877084
778.377	0.24869266
778.561	0.24869357
778.746	0.24867574
778.931	0.24875049
779.115	0.24877798
779.3	0.2487855
779.484	0.24877473
779.669	0.24879032
779.853	0.24870379
780.037	0.24867277
780.222	0.24853527
780.406	0.24836414
780.591	0.24822092
780.775	0.24816123
780.959	0.2481284
781.144	0.24808509
781.328	0.24803647
781.512	0.24795239
781.697	0.24790146
781.881	0.24787003
782.065	0.24780277
782.249	0.24770713
782.434	0.24763991
782.618	0.24753471
782.802	0.24752937
782.986	0.24750163
783.17	0.24738736
783.354	0.247277
783.539	0.24714846
783.723	0.24710576
783.907	0.24705161
784.091	0.24694868
784.275	0.24690413
784.459	0.24689543
784.643	0.24689722
784.827	0.24691123
785.011	0.24684423
785.195	0.24683082
785.379	0.24671177
785.563	0.24658837
785.747	0.24646662
785.93	0.24636063
786.114	0.24623475
786.298	0.24609254
786.482	0.24590676
786.666	0.24589377
786.85	0.2458589
787.033	0.24587774
787.217	0.24588814
787.401	0.24588633
787.585	0.24584218
787.768	0.24590702
787.952	0.24585583
788.136	0.24580683
788.319	0.24574211
788.503	0.24552702
788.687	0.24540077
788.87	0.24523692
789.054	0.24508581
789.237	0.24499005
789.421	0.24484531
789.605	0.24466975
789.788	0.2446368
789.972	0.24457482
790.155	0.24462855
790.338	0.24450203
790.522	0.24439585
790.705	0.24438475
790.889	0.24431009
791.072	0.24425438
791.256	0.24422854
791.439	0.24408737
791.622	0.24407316
791.806	0.24407209
791.989	0.24398451
792.172	0.24399656
792.355	0.24394396
792.539	0.24384025
792.722	0.2437343
792.905	0.24365115
793.088	0.24350175
793.271	0.24334247
793.455	0.24319189
793.638	0.24302314
793.821	0.24280708
794.004	0.24273556
794.187	0.24260951
794.37	0.242517
794.553	0.24251523
794.736	0.24241539
794.919	0.24230114
795.102	0.24226016
795.285	0.24214554
795.468	0.24202218
795.651	0.24194324
795.834	0.24181501
796.017	0.24178402
796.2	0.24172435
796.383	0.24169663
796.566	0.24165505
796.749	0.24156106
796.931	0.24139422
797.114	0.24121402
797.297	0.24102588
797.48	0.24087005
797.663	0.2407028
797.845	0.24053984
798.028	0.24044974
798.211	0.24038191
798.393	0.24029867
798.576	0.24021814
798.759	0.24016768
798.941	0.24008865
799.124	0.24002897
799.307	0.23996141
799.489	0.23987483
799.672	0.23981961
799.854	0.23968079
800.037	0.23959493
800.219	0.23945688
800.402	0.23933341
800.584	0.23914179
800.767	0.23905687
800.949	0.23892063
801.132	0.23888939
801.314	0.23874756
801.496	0.23863761
801.679	0.23849708
801.861	0.2383995
802.043	0.23815551
802.226	0.2380293
802.408	0.23786669
802.59	0.23778865
802.772	0.23777222
802.955	0.23767252
803.137	0.23755782
803.319	0.23750376
803.501	0.23736001
803.684	0.23720241
803.866	0.23703311
804.048	0.23682745
804.23	0.23668767
804.412	0.23663752
804.594	0.23649055
804.776	0.23640589
804.958	0.23631193
805.14	0.23617415
805.322	0.23601253
805.504	0.2358669
805.686	0.2356579
805.868	0.23550472
806.05	0.23530472
806.232	0.23509885
806.414	0.23495314
806.596	0.23481224
806.778	0.23469737
806.96	0.23460559
807.141	0.23442894
807.323	0.23431843
807.505	0.23421422
807.687	0.23406235
807.869	0.2339292
808.05	0.23375562
808.232	0.23355685
808.414	0.23343853
808.595	0.23325534
808.777	0.23302777
808.959	0.23295597
809.14	0.23278832
809.322	0.23273159
809.504	0.23262104
809.685	0.23262968
809.867	0.23254633
810.048	0.23250352
810.23	0.23231698
810.411	0.23221412
810.593	0.23197109
810.774	0.23185632
810.956	0.23166433
811.137	0.2314955
811.319	0.23140803
811.5	0.23134699
811.681	0.23126789
811.863	0.23116099
812.044	0.23099869
812.225	0.23087337
812.407	0.23074168
812.588	0.23051251
812.769	0.23021492
812.951	0.22996055
813.132	0.22973527
813.313	0.2295554
813.494	0.22924524
813.675	0.22909728
813.857	0.22898899
814.038	0.22891212
814.219	0.22880034
814.4	0.22873231
814.581	0.22866343
814.762	0.2285889
814.943	0.22836897
815.124	0.22808526
815.305	0.22787398
815.486	0.22762541
815.667	0.2274176
815.848	0.22709511
816.029	0.22683245
816.21	0.22667166
816.391	0.22655987
816.572	0.22638743
816.753	0.22625726
816.934	0.22607956
817.115	0.22605714
817.295	0.22602297
817.476	0.22583057
817.657	0.22570988
817.838	0.22557286
818.019	0.22538085
818.199	0.22522902
818.38	0.22497053
818.561	0.22468869
818.741	0.22452369
818.922	0.22432663
819.103	0.22416542
819.283	0.22407612
819.464	0.22392506
819.645	0.22368002
819.825	0.22351974
820.006	0.22338759
820.186	0.22322359
820.367	0.22302967
820.547	0.22277403
820.728	0.22248902
820.908	0.22239662
821.089	0.22229357
821.269	0.22218336
821.45	0.22211581
821.63	0.22196851
821.81	0.2218905
821.991	0.22183816
822.171	0.22170511
822.351	0.22154786
822.532	0.22134645
822.712	0.22106875
822.892	0.22092387
823.072	0.22075821
823.253	0.22063038
823.433	0.2204232
823.613	0.2202005
823.793	0.21998228
823.973	0.21979796
824.154	0.21949844
824.334	0.2192136
824.514	0.21893372
824.694	0.21868375
824.874	0.2184958
825.054	0.21830306
825.234	0.2181283
825.414	0.21794475
825.594	0.21774001
825.774	0.21759107
825.954	0.21742893
826.134	0.21719338
826.314	0.21692148
826.494	0.21672279
826.674	0.21649816
826.854	0.21627673
827.033	0.21594634
827.213	0.21574414
827.393	0.21552742
827.573	0.21549458
827.753	0.21527844
827.932	0.21530318
828.112	0.21528604
828.292	0.21532283
828.472	0.21516731
828.651	0.21508546
828.831	0.21484458
829.011	0.21470061
829.19	0.21434141
829.37	0.21412871
829.549	0.21388719
829.729	0.21368435
829.909	0.21341716
830.088	0.21316527
830.268	0.21283634
830.447	0.21268768
830.627	0.21243759
830.806	0.21219805
830.986	0.21195014
831.165	0.21179037
831.344	0.21163194
831.524	0.21149989
831.703	0.21118632
831.883	0.21091715
832.062	0.21065782
832.241	0.21045138
832.421	0.21020836
832.6	0.20991645
832.779	0.20970215
832.958	0.20957332
833.138	0.20933115
833.317	0.20913385
833.496	0.20891369
833.675	0.20877185
833.854	0.20863207
834.034	0.20839747
834.213	0.20819617
834.392	0.20808735
834.571	0.2079219
834.75	0.20776818
834.929	0.20754158
835.108	0.20736206
835.287	0.20731186
835.466	0.20709176
835.645	0.20687638
835.824	0.20660588
836.003	0.20637692
836.182	0.20614852
836.361	0.20588805
836.54	0.20552381
836.719	0.2053273
836.897	0.20508529
837.076	0.20496095
837.255	0.20490766
837.434	0.20479013
837.613	0.20466504
837.791	0.20455618
837.97	0.20439797
838.149	0.20415397
838.328	0.20383669
838.506	0.2035281
838.685	0.20329836
838.864	0.20313548
839.042	0.2029474
839.221	0.20271499
839.4	0.20254301
839.578	0.20238494
839.757	0.20200442
839.935	0.20166709
840.114	0.20140842
840.292	0.20117729
840.471	0.20100763
840.649	0.20086879
840.828	0.20064221
841.006	0.20058899
841.185	0.20039805
841.363	0.20009277
841.541	0.19978966
841.72	0.19965706
841.898	0.19936504
842.076	0.19911079
842.255	0.19886417
842.433	0.198681
842.611	0.1984347
842.789	0.19814538
842.968	0.19775854
843.146	0.19750013
843.324	0.1973444
843.502	0.19715413
843.68	0.19703017
843.859	0.19697303
844.037	0.19692233
844.215	0.19684144
844.393	0.19671719
844.571	0.19651752
844.749	0.19630917
844.927	0.19599589
845.105	0.195688
845.283	0.19555429
845.461	0.19527036
845.639	0.19498826
845.817	0.19475303
845.995	0.19449594
846.173	0.19433881
846.351	0.19414534
846.529	0.19377087
846.706	0.19343857
846.884	0.19327049
847.062	0.19302628
847.24	0.19287818
847.418	0.19259174
847.595	0.19234255
847.773	0.19214663
847.951	0.19198007
848.129	0.19175232
848.306	0.19158928
848.484	0.19140488
848.662	0.19129306
848.839	0.19128544
849.017	0.19116725
849.194	0.1910717
849.372	0.19090146
849.549	0.19062057
849.727	0.19036258
849.905	0.19006551
850.082	0.18966448
850.26	0.18937632
850.437	0.18916662
850.614	0.188966
850.792	0.18878607
850.969	0.18857575
851.147	0.18834763
851.324	0.18810035
851.501	0.18796638
851.679	0.18766723
851.856	0.18739965
852.033	0.18724784
852.211	0.18707359
852.388	0.1869328
852.565	0.18673752
852.742	0.18646646
852.92	0.18630854
853.097	0.18605617
853.274	0.18573028
853.451	0.18538447
853.628	0.18517173
853.805	0.18510139
853.982	0.18490863
854.159	0.18472882
854.336	0.18468527
854.514	0.18452349
854.691	0.18432874
854.868	0.18413285
855.045	0.18381112
855.221	0.18356863
855.398	0.18321022
855.575	0.18285478
855.752	0.18260641
855.929	0.18246719
856.106	0.18222563
856.283	0.18208132
856.46	0.1819604
856.637	0.18181382
856.813	0.18165774
856.99	0.18155468
857.167	0.1814053
857.344	0.18124434
857.52	0.18102705
857.697	0.18069432
857.874	0.18049316
858.05	0.18018442
858.227	0.17992873
858.404	0.17962549
858.58	0.17936934
858.757	0.1790222
858.933	0.17887449
859.11	0.17869538
859.287	0.17854863
859.463	0.17828794
859.64	0.17814118
859.816	0.17795022
859.993	0.17785705
860.169	0.17765886
860.345	0.17734354
860.522	0.17708741
860.698	0.17692074
860.875	0.17671478
861.051	0.17650113
861.227	0.1762421
861.404	0.17609125
861.58	0.17604644
861.756	0.17592517
861.932	0.1758106
862.109	0.17562565
862.285	0.17537806
862.461	0.17509602
862.637	0.17472116
862.813	0.17440596
862.99	0.17408499
863.166	0.1736669
863.342	0.17340224
863.518	0.17319018
863.694	0.17305204
863.87	0.1729016
864.046	0.17271821
864.222	0.17265227
864.398	0.17259716
864.574	0.17231995
864.75	0.17214881
864.926	0.1720612
865.102	0.17195102
865.278	0.17160362
865.454	0.17127584
865.63	0.1710038
865.805	0.17081094
865.981	0.17057571
866.157	0.17024062
866.333	0.16985687
866.509	0.16980517
866.684	0.16953905
866.86	0.16931428
867.036	0.16916977
867.212	0.16885719
867.387	0.16858236
867.563	0.16845323
867.739	0.16818469
867.914	0.16806307
868.09	0.16791341
868.265	0.16767055
868.441	0.16755951
868.617	0.16748056
868.792	0.16730924
868.968	0.16712556
869.143	0.1670062
869.319	0.16690061
869.494	0.16664719
869.67	0.1664661
869.845	0.16623483
870.02	0.16601181
870.196	0.16584224
870.371	0.16553795
870.546	0.16525791
870.722	0.16503056
870.897	0.1647988
871.072	0.16456679
871.248	0.1643057
871.423	0.1640531
871.598	0.1639113
871.773	0.16361546
871.949	0.16351312
872.124	0.16342738
872.299	0.16327841
872.474	0.16323378
872.649	0.16314227
872.824	0.16286179
872.999	0.16264524
873.174	0.16246957
873.349	0.16221948
873.524	0.16200853
873.699	0.16174773
873.874	0.16147632
874.049	0.16128883
874.224	0.1611292
874.399	0.16092917
874.574	0.16064787
874.749	0.16040446
874.924	0.16010268
875.099	0.15987729
875.274	0.15968315
875.449	0.15957544
875.623	0.15923077
875.798	0.15903193
875.973	0.15869657
876.148	0.15837323
876.322	0.15808719
876.497	0.15783178
876.672	0.15748225
876.846	0.1573216
877.021	0.15712006
877.196	0.15702675
877.37	0.15705544
877.545	0.15704117
877.72	0.15693484
877.894	0.1568966
878.069	0.1567214
878.243	0.15651452
878.418	0.15644469
878.592	0.15607197
878.767	0.1557784
878.941	0.1555117
879.116	0.15512782
879.29	0.15485473
879.464	0.15461059
879.639	0.15425419
879.813	0.15421761
879.987	0.15389956
880.162	0.15373697
880.336	0.15371344
880.51	0.15360381
880.685	0.15352929
880.859	0.15343701
881.033	0.15326221
881.207	0.15306536
881.381	0.15286899
881.556	0.15256145
881.73	0.15242983
881.904	0.152263
882.078	0.15200269
882.252	0.15165362
882.426	0.15162208
882.6	0.1514797
882.774	0.15138097
882.948	0.15116269
883.122	0.15088279
883.296	0.15077905
883.47	0.15073197
883.644	0.15043015
883.818	0.15021457
883.992	0.14997345
884.166	0.14965476
884.34	0.14930437
884.514	0.14897887
884.687	0.14864386
884.861	0.14849947
885.035	0.14832535
885.209	0.14819091
885.382	0.14805867
885.556	0.14813585
885.73	0.14817646
885.904	0.14808957
886.077	0.14791379
886.251	0.14775101
886.425	0.1475964
886.598	0.1473861
886.772	0.14711277
886.945	0.1466657
887.119	0.14643021
887.292	0.14624411
887.466	0.14607605
887.64	0.14583618
887.813	0.14583822
887.986	0.14572971
888.16	0.14576683
888.333	0.1457126
888.507	0.14568646
888.68	0.14549324
888.854	0.14539395
889.027	0.145029
889.2	0.14479077
889.374	0.1445203
889.547	0.14422913
889.72	0.1439052
889.893	0.14376887
890.067	0.14351993
890.24	0.14349942
890.413	0.143381
890.586	0.14325621
890.759	0.14319696
890.933	0.14312756
891.106	0.14294948
891.279	0.14279863
891.452	0.14265904
891.625	0.14239841
891.798	0.14228061
891.971	0.14205658
892.144	0.14177593
892.317	0.14153948
892.49	0.14136479
892.663	0.1412216
892.836	0.14121438
893.009	0.14090972
893.182	0.14066185
893.355	0.14055677
893.527	0.14040255
893.7	0.14032205
893.873	0.14012717
894.046	0.13975984
894.219	0.13966459
894.391	0.13957607
894.564	0.13939342
894.737	0.13927163
894.91	0.13896421
895.082	0.13864788
895.255	0.13849859
895.428	0.13826137
895.6	0.13802359
895.773	0.13780248
895.945	0.13760632
896.118	0.13757542
896.291	0.13761175
896.463	0.13753654
896.636	0.13744849
896.808	0.13736611
896.981	0.13732415
897.153	0.1371258
897.326	0.13687125
897.498	0.13656093
897.67	0.13642603
897.843	0.13626346
898.015	0.13622396
898.187	0.13604799
898.36	0.13577638
898.532	0.1355064
898.704	0.1354178
898.877	0.13512079
899.049	0.13494619
899.221	0.13462529
899.393	0.13437123
899.566	0.13431262
899.738	0.13432055
899.91	0.13413494
900.082	0.1341015
900.254	0.13395253
900.426	0.1337875
900.598	0.13368189
900.77	0.13350274
900.942	0.13326548
901.114	0.13298809
901.286	0.13271729
901.458	0.13256175
901.63	0.13247504
901.802	0.13237908
901.974	0.13233676
902.146	0.1322597
902.318	0.13221625
902.49	0.13215157
902.662	0.13205626
902.834	0.1319591
903.005	0.13202507
903.177	0.13190841
903.349	0.13173054
903.521	0.13158004
903.693	0.13140336
903.864	0.13122632
904.036	0.1310354
904.208	0.13052241
904.379	0.13026864
904.551	0.13018502
904.723	0.13016329
904.894	0.13010182
905.066	0.13003476
905.237	0.13006896
905.409	0.13015919
905.58	0.1301784
905.752	0.12997177
905.923	0.12963324
906.095	0.1293613
906.266	0.12905311
906.438	0.12881461
906.609	0.12860389
906.78	0.12830468
906.952	0.12815395
907.123	0.12809847
907.295	0.12811517
907.466	0.12794855
907.637	0.12771848
907.808	0.12746642
907.98	0.12734152
908.151	0.12724558
908.322	0.12710116
908.493	0.12679765
908.665	0.1267863
908.836	0.12663044
909.007	0.12654285
909.178	0.12646175
909.349	0.12622991
909.52	0.12615439
909.691	0.12601986
909.862	0.1258241
910.033	0.12570505
910.204	0.12556325
910.375	0.12535907
910.546	0.12523216
910.717	0.1249656
910.888	0.12492188
911.059	0.12475438
911.23	0.12452128
911.401	0.12430721
911.572	0.12413935
911.742	0.12417323
911.913	0.12416951
912.084	0.12403116
912.255	0.12392779
912.426	0.12381645
912.596	0.12376619
912.767	0.12373374
912.938	0.12354451
913.108	0.12328507
913.279	0.12307416
913.45	0.12296958
913.62	0.12297455
913.791	0.12280878
913.962	0.12268652
914.132	0.12252671
914.303	0.12246687
914.473	0.12251934
914.644	0.12238751
914.814	0.12216263
914.985	0.1221034
915.155	0.12191885
915.326	0.1215363
915.496	0.12119755
915.666	0.12070579
915.837	0.12057564
916.007	0.12029218
916.177	0.11991883
916.348	0.1197582
916.518	0.11984466
916.688	0.11988196
916.858	0.11988806
917.029	0.11956703
917.199	0.11952958
917.369	0.11943415
917.539	0.11937713
917.709	0.11913409
917.88	0.11891539
918.05	0.11868986
918.22	0.11872889
918.39	0.11853372
918.56	0.11853568
918.73	0.11830028
918.9	0.11819567
919.07	0.11816553
919.24	0.11822593
919.41	0.11809998
919.58	0.11791944
919.75	0.11779256
919.92	0.11748833
920.09	0.11736898
920.26	0.11714005
920.429	0.11700551
920.599	0.1168036
920.769	0.11675997
920.939	0.11643868
921.109	0.11641895
921.278	0.11609374
921.448	0.11589638
921.618	0.11562384
921.787	0.11547701
921.957	0.11537822
922.127	0.11534006
922.296	0.11521898
922.466	0.11520199
922.636	0.11519006
922.805	0.11506847
922.975	0.11491274
923.144	0.11478396
923.314	0.11456468
923.483	0.11444127
923.653	0.1144423
923.822	0.11423289
923.992	0.11412424
924.161	0.11389518
924.331	0.11371378
924.5	0.11364304
924.669	0.11345139
924.839	0.11327456
925.008	0.11320765
925.177	0.11309661
925.347	0.11309135
925.516	0.11297898
925.685	0.11298634
925.854	0.11295548
926.023	0.11267222
926.193	0.11253625
926.362	0.11223551
926.531	0.11213905
926.7	0.11210992
926.869	0.11194901
927.038	0.11175748
927.207	0.11184424
927.376	0.11172165
927.545	0.11175952
927.715	0.11171215
927.884	0.11153363
928.052	0.11151116
928.221	0.11145955
928.39	0.11129489
928.559	0.11137284
928.728	0.11146185
928.897	0.11148239
929.066	0.11168202
929.235	0.11159881
929.404	0.11169899
929.572	0.11183392
929.741	0.11178518
929.91	0.11169295
930.079	0.11169131
930.247	0.11139144
930.416	0.11128897
930.585	0.11093816
930.753	0.11076155
930.922	0.11053802
931.091	0.11046262
931.259	0.11019248
931.428	0.11017826
931.596	0.11018444
931.765	0.11026858
931.934	0.1102142
932.102	0.11013262
932.27	0.11000157
932.439	0.10987178
932.607	0.10970351
932.776	0.10964262
932.944	0.10951541
933.113	0.10919798
933.281	0.10890359
933.449	0.1083465
933.618	0.10809113
933.786	0.10778441
933.954	0.10726849
934.123	0.1071881
934.291	0.10722529
934.459	0.10718992
934.627	0.10743601
934.795	0.10761238
934.964	0.10773525
935.132	0.1078705
935.3	0.1076495
935.468	0.1076029
935.636	0.10761088
935.804	0.10753966
935.972	0.10701291
936.14	0.10683587
936.308	0.10659695
936.476	0.10664512
936.644	0.10637915
936.812	0.10644977
936.98	0.10632786
937.148	0.10669113
937.316	0.10652884
937.484	0.10675043
937.652	0.1064996
937.82	0.10663961
937.987	0.10635893
938.155	0.10655486
938.323	0.10633355
938.491	0.10603588
938.658	0.10633343
938.826	0.10627625
938.994	0.10617765
939.162	0.10624736
939.329	0.10595211
939.497	0.10634458
939.665	0.10675033
939.832	0.10644947
940	0.10656974
940.167	0.10649381
940.335	0.10627434
940.502	0.10673448
940.67	0.10632561
940.837	0.10649788
941.005	0.10568278
941.172	0.10590997
941.34	0.10610662
941.507	0.10706206
941.674	0.10752006
941.842	0.10747054
942.009	0.10825019
942.177	0.10866189
942.344	0.10932459
942.511	0.10975334
942.678	0.10983157
942.846	0.10864416
943.013	0.10870637
943.18	0.10788189
943.347	0.10849415
943.514	0.10727766
943.682	0.10695102
943.849	0.10576479
944.016	0.10530696
944.183	0.10538985
944.35	0.1050258
944.517	0.10547659
944.684	0.10615906
944.851	0.104958
945.018	0.10552783
945.185	0.10564579
945.352	0.10425175
945.519	0.1038039
945.686	0.10265445
945.853	0.10278156
946.02	0.10271703
946.187	0.10225572
946.353	0.10285907
946.52	0.10391973
946.687	0.10355084
946.854	0.10389931
947.021	0.10330103
947.187	0.10374464
947.354	0.10277713
947.521	0.10250097
947.687	0.10207349
947.854	0.10298741
948.021	0.10306563
948.187	0.10276259
948.354	0.10297315
948.52	0.10350775
948.687	0.10401455
948.854	0.10450023
949.02	0.10283514
949.187	0.10263422
949.353	0.10314102
949.52	0.10184407
949.686	0.10188764
949.852	0.10129856
950.019	0.10119856
950.185	0.10198963
950.352	0.10165679
950.518	0.10080418
950.684	0.10174283
950.851	0.10149445
951.017	0.1012926
951.183	0.10116472
951.349	0.10070287
951.516	0.09964094
951.682	0.10003515
951.848	0.09898474
952.014	0.09857225
952.18	0.09881142
952.346	0.0984678
952.512	0.09885131
952.679	0.09951493
952.845	0.09865837
953.011	0.09884767
953.177	0.09916298
953.343	0.09840234
953.509	0.09889164
953.675	0.09839456
953.841	0.0980289
954.007	0.0986057
954.172	0.09887597
954.338	0.09819767
954.504	0.09761486
954.67	0.09654127
954.836	0.09684828
955.002	0.09675142
955.167	0.09640083
955.333	0.09553708
955.499	0.09591224
955.665	0.09632272
955.83	0.09627676
955.996	0.09608509
956.162	0.09634539
956.327	0.0960294
956.493	0.09605779
956.659	0.0962293
956.824	0.0960712
956.99	0.09643756
957.155	0.09635542
957.321	0.09537327
957.486	0.0959917
957.652	0.09610019
957.817	0.09564426
957.983	0.09535922
958.148	0.09470674
958.314	0.09429119
958.479	0.09440387
958.644	0.09407816
958.81	0.09408327
958.975	0.09408704
959.14	0.09387535
959.306	0.09396749
959.471	0.09380095
959.636	0.09347906
959.801	0.0935749
959.967	0.0933379
960.132	0.09314341
960.297	0.09316999
960.462	0.09328611
960.627	0.09333299
960.792	0.09382047
960.957	0.09320282
961.123	0.09358682
961.288	0.09370139
961.453	0.09416035
961.618	0.09385947
961.783	0.09429634
961.948	0.09408815
962.113	0.09384642
962.277	0.09321752
962.442	0.09312807
962.607	0.09249792
962.772	0.09247989
962.937	0.0918054
963.102	0.09190459
963.267	0.0918042
963.431	0.09205182
963.596	0.09170699
963.761	0.09152177
963.926	0.09127677
964.09	0.09144072
964.255	0.09131315
964.42	0.09094975
964.584	0.09110555
964.749	0.09115594
964.914	0.0912953
965.078	0.09098333
965.243	0.0906835
965.407	0.09054316
965.572	0.09066076
965.736	0.09057204
965.901	0.09035866
966.065	0.09030198
966.23	0.09048424
966.394	0.09074443
966.559	0.09044395
966.723	0.09062314
966.887	0.08995561
967.052	0.08983887
967.216	0.08959441
967.38	0.08913718
967.545	0.08891777
967.709	0.08897094
967.873	0.08934595
968.037	0.08943979
968.202	0.08948226
968.366	0.0899681
968.53	0.09060253
968.694	0.09045161
968.858	0.0904895
969.022	0.08987947
969.187	0.08999593
969.351	0.08996463
969.515	0.08943182
969.679	0.08886363
969.843	0.08860185
970.007	0.08828421
970.171	0.08864565
970.335	0.08860372
970.499	0.0886965
970.662	0.08883629
970.826	0.08913822
970.99	0.08884092
971.154	0.08926899
971.318	0.08919696
971.482	0.08890151
971.645	0.08833349
971.809	0.08835725
971.973	0.08768826
972.137	0.08808535
972.3	0.0873902
972.464	0.08734312
972.628	0.08752157
972.791	0.08810187
972.955	0.08809654
973.119	0.0882775
973.282	0.08799732
973.446	0.08839538
973.609	0.08766404
973.773	0.0871959
973.936	0.0868283
974.1	0.08670118
974.263	0.08682154
974.427	0.08633826
974.59	0.08594098
974.754	0.08607066
974.917	0.08606943
975.08	0.08563773
975.244	0.085005
975.407	0.08519952
975.57	0.08546414
975.734	0.0854826
975.897	0.0853985
976.06	0.08536308
976.223	0.08553278
976.387	0.08583569
976.55	0.08542212
976.713	0.08498336
976.876	0.08516282
977.039	0.08462901
977.202	0.08482851
977.365	0.08464028
977.528	0.0847844
977.692	0.08504469
977.855	0.08528552
978.018	0.08476272
978.181	0.08508547
978.344	0.08495937
978.506	0.08518838
978.669	0.08484438
978.832	0.08422229
978.995	0.08437668
979.158	0.08449372
979.321	0.08419533
979.484	0.08398733
979.646	0.08371234
979.809	0.08388718
979.972	0.08383242
980.135	0.08428103
980.297	0.08414727
980.46	0.08436194
980.623	0.08475759
980.786	0.08451834
980.948	0.08436469
981.111	0.08440003
981.273	0.08403409
981.436	0.08393503
981.599	0.08390854
981.761	0.08306804
981.924	0.08349062
982.086	0.08322005
982.249	0.08324826
982.411	0.08282003
982.573	0.08280882
982.736	0.083063
982.898	0.08332839
983.061	0.08283526
983.223	0.08294896
983.385	0.08269865
983.548	0.08300322
983.71	0.08286132
983.872	0.08277001
984.034	0.08263995
984.197	0.08262048
984.359	0.08250539
984.521	0.08348196
984.683	0.08366031
984.845	0.08406576
985.008	0.08371872
985.17	0.08429569
985.332	0.08429524
985.494	0.08423652
985.656	0.08369093
985.818	0.08281137
985.98	0.08213059
986.142	0.08227348
986.304	0.08121314
986.466	0.08079215
986.628	0.08022679
986.79	0.07976424
986.952	0.07975303
987.113	0.08024061
987.275	0.07967805
987.437	0.08034038
987.599	0.08134718
987.761	0.08198737
987.922	0.08157435
988.084	0.08215623
988.246	0.08201911
988.408	0.08253324
988.569	0.08180517
988.731	0.08118337
988.893	0.08117505
989.054	0.08195952
989.216	0.08175317
989.377	0.08121542
989.539	0.08086415
989.701	0.08029684
989.862	0.08034081
990.024	0.07938995
990.185	0.07885382
990.347	0.07844847
990.508	0.07816275
990.669	0.07781947
990.831	0.07902034
990.992	0.07916412
991.154	0.07983342
991.315	0.08011178
991.476	0.08093479
991.638	0.08143966
991.799	0.0823332
991.96	0.08196701
992.121	0.08157232
992.283	0.08133677
992.444	0.08131429
992.605	0.08011487
992.766	0.0803698
992.927	0.07952889
993.088	0.07961291
993.249	0.07919772
993.41	0.07878369
993.572	0.07835539
993.733	0.07900415
993.894	0.07850832
994.055	0.07812036
994.216	0.07810196
994.376	0.0781877
994.537	0.07882649
994.698	0.07938257
994.859	0.07971149
995.02	0.07984162
995.181	0.07941278
995.342	0.07961394
995.503	0.08004429
995.663	0.07958142
995.824	0.07849689
995.985	0.07815953
996.146	0.07833333
996.306	0.07885442
996.467	0.0785203
996.628	0.07945372
996.788	0.07999819
996.949	0.08167722
997.11	0.08102385
997.27	0.0800447
997.431	0.08015217
997.591	0.07985852
997.752	0.07777752
997.912	0.07785292
998.073	0.07742225
998.233	0.07782843
998.394	0.07835508
998.554	0.07963554
998.714	0.07925668
998.875	0.08002207
999.035	0.07895228
999.196	0.07814969
999.356	0.07855564
999.516	0.07939851
999.676	0.07862873
999.837	0.07861133
999.997	0.07805645
1000.157	0.07852585
1000.317	0.07806672
1000.477	0.07748407
1000.638	0.07668215
1000.798	0.07735995
1000.958	0.07728442
1001.118	0.07763194
1001.278	0.07757534
1001.438	0.07785267
1001.598	0.07796552
1001.758	0.07699803
1001.918	0.07676828
1002.078	0.07706051
1002.238	0.07671659
1002.398	0.07733874
1002.558	0.07737324
1002.718	0.07641597
1002.878	0.0774784
1003.037	0.07542552
1003.197	0.07554535
1003.357	0.07540841
1003.517	0.07571104
1003.677	0.07460081
1003.836	0.0752274
1003.996	0.07562905
1004.156	0.07615274
1004.315	0.07646587
1004.475	0.07733837
1004.635	0.07724858
1004.794	0.07869513
1004.954	0.07832851
1005.114	0.07852449
1005.273	0.07887369
1005.433	0.07717108
1005.592	0.07653556
1005.752	0.07434302
1005.911	0.07315726
1006.071	0.07366873
1006.23	0.07272087
1006.389	0.0728984
1006.549	0.07414738
1006.708	0.07425095
1006.868	0.07544324
1007.027	0.07662299
1007.186	0.07638784
1007.345	0.07660164
1007.505	0.07670496
1007.664	0.07774154
1007.823	0.07681305
1007.982	0.07680888
1008.142	0.07620818
1008.301	0.07740192
1008.46	0.07714737
1008.619	0.07635147
1008.778	0.07542775
1008.937	0.07714977
1009.096	0.07716396
1009.255	0.0790996
1009.414	0.07740447
1009.573	0.07655872
1009.732	0.07604374
1009.891	0.07551143
1010.05	0.07498527
1010.209	0.07381535
1010.368	0.07190418
1010.527	0.07189049
1010.686	0.07448409
1010.845	0.0751419
1011.003	0.07587043
1011.162	0.07346876
1011.321	0.07381947
1011.48	0.07473538
1011.638	0.07496561
1011.797	0.07321299
1011.956	0.07342165
1012.115	0.07297902
1012.273	0.07391591
1012.432	0.07361965
1012.59	0.0711116
1012.749	0.07089271
1012.908	0.07152939
1013.066	0.07233304
1013.225	0.07125959
1013.383	0.07273193
1013.542	0.07276644
1013.7	0.07438219
1013.859	0.07482249
1014.017	0.07441891
1014.175	0.07378672
1014.334	0.07703302
1014.492	0.07825078
1014.65	0.07929427
1014.809	0.07995828
1014.967	0.07949475
1015.125	0.08195695
1015.284	0.08364009
1015.442	0.08238759
1015.6	0.07987752
1015.758	0.08067955
1015.916	0.07930343
1016.075	0.08088951
1016.233	0.07684748
1016.391	0.0766253
1016.549	0.07541568
1016.707	0.07467077
1016.865	0.07297494
1017.023	0.0741051
1017.181	0.07193517
1017.339	0.07431635
1017.497	0.07283963
1017.655	0.07240447
1017.813	0.07340061
1017.971	0.07352642
1018.129	0.07387381
1018.286	0.0775664
1018.444	0.07501139
1018.602	0.07469333
1018.76	0.07466475
1018.918	0.076691
1019.075	0.07771609
1019.233	0.07516137
1019.391	0.07139851
1019.549	0.0712202
1019.706	0.07274556
1019.864	0.07363289
1020.022	0.07126666
1020.179	0.06996826
1020.337	0.07113707
1020.494	0.06908384
1020.652	0.07032087
1020.809	0.07052725
1020.967	0.06983108
1021.124	0.0717484
1021.282	0.07327117
1021.439	0.07524641
1021.597	0.07943197
1021.754	0.07941615
1021.911	0.07992449
1022.069	0.07938325
1022.226	0.07948529
1022.384	0.07658538
1022.541	0.07435881
1022.698	0.07117564
1022.855	0.07052312
1023.013	0.0714148
1023.17	0.06999242
1023.327	0.0692703
1023.484	0.0720367
1023.641	0.07140185
1023.798	0.07550343
1023.956	0.07962238
1024.113	0.07659088
1024.27	0.07873694
1024.427	0.0811709
1024.584	0.08048186
1024.741	0.08000136
1024.898	0.08095908
1025.055	0.0771514
1025.212	0.07342204
1025.369	0.07432567
1025.525	0.07077154
1025.682	0.07220554
1025.839	0.07280596
1025.996	0.06892703
1026.153	0.07140518
1026.31	0.07495987
1026.466	0.07624518
1026.623	0.0783455
1026.78	0.08137647
1026.937	0.0821567
1027.093	0.08668317
1027.25	0.0886235
1027.407	0.08929005
1027.563	0.0887565
1027.72	0.08616301
1027.876	0.08242682
1028.033	0.08486445
1028.19	0.08339341
1028.346	0.08084604
1028.503	0.08162279
1028.659	0.07684586
1028.816	0.08333727
1028.972	0.08386553
1029.128	0.08560042
1029.285	0.08081794
1029.441	0.07513279
1029.598	0.06954382
1029.754	0.07509522
1029.91	0.07124069
1030.067	0.06781221
1030.223	0.06955844
1030.379	0.06958181
1030.535	0.07930735
1030.691	0.08519163
1030.848	0.08487809
1031.004	0.08631039
1031.16	0.09368671
1031.316	0.0906518
1031.472	0.09314669
1031.628	0.08489952
1031.784	0.08615557
1031.94	0.08858869
1032.096	0.08469393
1032.252	0.08253414
1032.408	0.08768406
1032.564	0.08890332
1032.72	0.09088826
1032.876	0.09105579
1033.032	0.08792162
1033.188	0.08552418
1033.344	0.08243866
1033.5	0.07581569
1033.655	0.07578516
1033.811	0.07555487
1033.967	0.07164623
