Data from 0_1_mm_pl_30pc_Absorbance__0__16-30-14-152.txt Node

Date: Fri Feb 24 16:30:14 CET 2023
User: Ange
Spectrometer: FLMT08341
Trigger mode: 0
Integration Time (sec): 1.000000E-2
Scans to average: 400
Electric dark correction enabled: true
Nonlinearity correction enabled: false
Boxcar width: 3
XAxis mode: Wavelengths
Number of Pixels in Spectrum: 3648
>>>>>Begin Spectral Data<<<<<
345.271	-0.00832155
345.487	-0.01765796
345.704	-0.01433227
345.921	-0.02475647
346.137	-0.03847197
346.354	-0.06735742
346.571	-0.10861216
346.787	-0.21749455
347.004	0.09346842
347.22	0.11663479
347.437	0.04205934
347.653	-0.15338958
347.87	1.20675227
348.086	-0
348.303	-0.47090255
348.519	0.36236399
348.736	0.32421193
348.952	0.31592586
349.169	0.31994593
349.385	0.33263491
349.601	0.33233408
349.818	0.32754276
350.034	0.32748952
350.251	0.32607194
350.467	0.32901484
350.683	0.32299825
350.9	0.32148555
351.116	0.31828753
351.332	0.31619498
351.549	0.32303178
351.765	0.33025574
351.981	0.3343821
352.197	0.34361287
352.414	0.35410536
352.63	0.36126841
352.846	0.3665432
353.062	0.35726358
353.278	0.35195909
353.495	0.35833888
353.711	0.35923341
353.927	0.35806746
354.143	0.35381762
354.359	0.3521559
354.575	0.35075531
354.792	0.3584145
355.008	0.35197249
355.224	0.34688831
355.44	0.34262947
355.656	0.34201598
355.872	0.34696642
356.088	0.36011566
356.304	0.35778389
356.52	0.35649436
356.736	0.36002487
356.952	0.36187433
357.168	0.36393907
357.384	0.36239601
357.6	0.35451377
357.816	0.35824537
358.032	0.36337537
358.248	0.36907262
358.464	0.36692931
358.679	0.3689342
358.895	0.37012588
359.111	0.37332694
359.327	0.36700997
359.543	0.36737153
359.759	0.36789576
359.974	0.36820579
360.19	0.36410227
360.406	0.36209948
360.622	0.35910656
360.838	0.35589833
361.053	0.35343911
361.269	0.35106093
361.485	0.3509046
361.701	0.35159156
361.916	0.34677002
362.132	0.34564213
362.348	0.34564183
362.563	0.34497535
362.779	0.34145831
362.995	0.34045126
363.21	0.34101912
363.426	0.34045212
363.641	0.33896829
363.857	0.34115805
364.073	0.33912626
364.288	0.33508357
364.504	0.33868856
364.719	0.3375341
364.935	0.33651399
365.15	0.33554736
365.366	0.33406373
365.581	0.33414203
365.797	0.33465803
366.012	0.32908819
366.228	0.32388199
366.443	0.32604207
366.658	0.32446064
366.874	0.32103473
367.089	0.32227872
367.305	0.32107399
367.52	0.32003932
367.735	0.31968289
367.951	0.3149821
368.166	0.31600919
368.381	0.3179176
368.597	0.31311843
368.812	0.31292814
369.027	0.31219862
369.243	0.31248098
369.458	0.31572188
369.673	0.31302028
369.888	0.31071203
370.104	0.30761347
370.319	0.30674656
370.534	0.30397238
370.749	0.30207189
370.964	0.29971413
371.179	0.29751289
371.395	0.29491473
371.61	0.29708991
371.825	0.29315849
372.04	0.29206463
372.255	0.28946951
372.47	0.28586882
372.685	0.2836514
372.9	0.28186482
373.115	0.27896368
373.33	0.27815944
373.545	0.27765398
373.76	0.27639409
373.975	0.27505792
374.19	0.27228231
374.405	0.27190949
374.62	0.27195904
374.835	0.27305024
375.05	0.27235148
375.265	0.27181411
375.48	0.270574
375.695	0.27270487
375.91	0.26917629
376.125	0.26505685
376.339	0.26094811
376.554	0.2581202
376.769	0.25690779
376.984	0.25639985
377.199	0.25474816
377.414	0.25342842
377.628	0.25375514
377.843	0.25378013
378.058	0.25278871
378.273	0.25135937
378.487	0.24929529
378.702	0.24754374
378.917	0.24716328
379.131	0.24454517
379.346	0.241366
379.561	0.23977293
379.775	0.23784192
379.99	0.2356626
380.205	0.23326749
380.419	0.23050496
380.634	0.22890145
380.848	0.229466
381.063	0.22777674
381.278	0.22775197
381.492	0.22587625
381.707	0.22582
381.921	0.22489815
382.136	0.22417615
382.35	0.22232811
382.565	0.21992341
382.779	0.21785765
382.994	0.2166079
383.208	0.21465051
383.422	0.21496295
383.637	0.21417278
383.851	0.21349429
384.066	0.21389651
384.28	0.21301264
384.494	0.21211282
384.709	0.21151749
384.923	0.20948423
385.137	0.20703401
385.352	0.20516829
385.566	0.20378217
385.78	0.20249861
385.995	0.20111533
386.209	0.19920411
386.423	0.19858076
386.637	0.1982214
386.852	0.19639939
387.066	0.19451796
387.28	0.1930571
387.494	0.19261383
387.708	0.19177162
387.923	0.19022682
388.137	0.18998673
388.351	0.18941663
388.565	0.18916723
388.779	0.18846963
388.993	0.18851677
389.207	0.1874177
389.421	0.18688351
389.635	0.18477881
389.85	0.18382156
390.064	0.18263338
390.278	0.18176189
390.492	0.18043722
390.706	0.18000177
390.92	0.17915025
391.134	0.17912608
391.348	0.1787792
391.561	0.17784627
391.775	0.17694663
391.989	0.17523021
392.203	0.17413616
392.417	0.17289347
392.631	0.1721181
392.845	0.17067968
393.059	0.17031357
393.273	0.16890468
393.486	0.16793764
393.7	0.16648491
393.914	0.16574561
394.128	0.16472317
394.342	0.16393718
394.555	0.16247003
394.769	0.16175998
394.983	0.16117451
395.197	0.1610281
395.41	0.15989908
395.624	0.1592069
395.838	0.15827067
396.051	0.15835959
396.265	0.15757153
396.479	0.15715974
396.692	0.15637763
396.906	0.15561867
397.12	0.15496483
397.333	0.15469921
397.547	0.1533759
397.76	0.1530368
397.974	0.15183495
398.187	0.15093711
398.401	0.15071017
398.614	0.1497983
398.828	0.14903423
399.041	0.14814512
399.255	0.14721557
399.468	0.14670823
399.682	0.14623491
399.895	0.14572709
400.109	0.14501156
400.322	0.1440979
400.536	0.14364106
400.749	0.14313628
400.962	0.14321987
401.176	0.14226659
401.389	0.14141284
401.602	0.14078842
401.816	0.14051005
402.029	0.14021976
402.242	0.13978049
402.456	0.13851456
402.669	0.13794854
402.882	0.13703174
403.095	0.13642594
403.309	0.13599622
403.522	0.1353601
403.735	0.13458975
403.948	0.13426534
404.161	0.13437741
404.375	0.13433681
404.588	0.13412192
404.801	0.13323384
405.014	0.13268779
405.227	0.13262646
405.44	0.13227528
405.653	0.13180473
405.866	0.13050983
406.079	0.12979131
406.293	0.12976138
406.506	0.12928383
406.719	0.12846835
406.932	0.12803559
407.145	0.12727488
407.358	0.12736927
407.571	0.12654034
407.784	0.12589434
407.996	0.12539899
408.209	0.12477612
408.422	0.1241684
408.635	0.12374045
408.848	0.12330982
409.061	0.12301925
409.274	0.12197384
409.487	0.1217353
409.7	0.12129807
409.912	0.12088094
410.125	0.12051369
410.338	0.12015675
410.551	0.1196748
410.764	0.11966353
410.976	0.1189848
411.189	0.11882237
411.402	0.11842631
411.615	0.11822272
411.827	0.11800781
412.04	0.11806923
412.253	0.11797488
412.465	0.1174838
412.678	0.11717893
412.891	0.11730868
413.103	0.11642147
413.316	0.11571925
413.529	0.11571454
413.741	0.11537997
413.954	0.11522407
414.166	0.11476305
414.379	0.11396402
414.591	0.11410457
414.804	0.11385439
415.016	0.11308398
415.229	0.11281829
415.441	0.11240665
415.654	0.11246495
415.866	0.11228081
416.079	0.11184601
416.291	0.1114371
416.504	0.11140823
416.716	0.11092901
416.928	0.11078639
417.141	0.11045766
417.353	0.1101528
417.566	0.10990176
417.778	0.10997302
417.99	0.10933426
418.203	0.10896294
418.415	0.10883028
418.627	0.10841836
418.839	0.10811107
419.052	0.10795054
419.264	0.10769557
419.476	0.10753058
419.688	0.1073954
419.901	0.10703514
420.113	0.10689154
420.325	0.10674892
420.537	0.10642355
420.749	0.10615072
420.961	0.10603378
421.174	0.10576599
421.386	0.10550048
421.598	0.10493419
421.81	0.10460455
422.022	0.10420034
422.234	0.10392613
422.446	0.1036997
422.658	0.10346805
422.87	0.10329584
423.082	0.10330055
423.294	0.10299545
423.506	0.10295722
423.718	0.10252841
423.93	0.10224079
424.142	0.10210242
424.354	0.10186561
424.566	0.10154628
424.778	0.10151072
424.99	0.10135851
425.202	0.10134874
425.414	0.10100125
425.625	0.10088731
425.837	0.10069535
426.049	0.10079338
426.261	0.10061843
426.473	0.10012056
426.684	0.09988584
426.896	0.09988279
427.108	0.09960291
427.32	0.09963195
427.531	0.09926449
427.743	0.09918222
427.955	0.09940312
428.167	0.09926566
428.378	0.09921837
428.59	0.09903123
428.802	0.0988828
429.013	0.09870181
429.225	0.09852627
429.436	0.09819091
429.648	0.09808032
429.86	0.09795247
430.071	0.09787604
430.283	0.09761548
430.494	0.09774915
430.706	0.09767863
430.917	0.09785711
431.129	0.09791572
431.34	0.09780855
431.552	0.0979312
431.763	0.09784238
431.975	0.09769789
432.186	0.09753668
432.398	0.09733574
432.609	0.09717276
432.821	0.09706025
433.032	0.09681051
433.243	0.09672395
433.455	0.09668522
433.666	0.09668546
433.877	0.09660562
434.089	0.09654585
434.3	0.09641643
434.511	0.0962764
434.723	0.09616622
434.934	0.09588029
435.145	0.09553147
435.356	0.09543597
435.568	0.09544411
435.779	0.09534907
435.99	0.09524693
436.201	0.09519818
436.412	0.09489144
436.624	0.09487369
436.835	0.09455468
437.046	0.09420065
437.257	0.09398498
437.468	0.09394916
437.679	0.09368248
437.89	0.09368859
438.101	0.09364603
438.312	0.0935584
438.523	0.09329223
438.734	0.09317888
438.945	0.09293464
439.156	0.09279313
439.367	0.0928648
439.578	0.09285195
439.789	0.09269136
440	0.09266906
440.211	0.09251697
440.422	0.09243822
440.633	0.09241837
440.844	0.09219526
441.055	0.09193963
441.266	0.0919384
441.477	0.09192375
441.687	0.09188002
441.898	0.09184707
442.109	0.09167465
442.32	0.09145964
442.531	0.09129763
442.741	0.09109503
442.952	0.09106528
443.163	0.09093835
443.374	0.09076802
443.584	0.09057907
443.795	0.09068115
444.006	0.09065295
444.216	0.09056192
444.427	0.09033346
444.638	0.09040301
444.848	0.0904719
445.059	0.09053742
445.27	0.09043975
445.48	0.09027989
445.691	0.09025408
445.901	0.09026247
446.112	0.09018339
446.323	0.09010294
446.533	0.09003062
446.744	0.08989141
446.954	0.08990285
447.165	0.08974546
447.375	0.08967427
447.586	0.08956751
447.796	0.08939055
448.006	0.0893871
448.217	0.08930724
448.427	0.0891157
448.638	0.08909578
448.848	0.08890327
449.058	0.08876946
449.269	0.08878309
449.479	0.08871243
449.689	0.08862667
449.9	0.08879463
450.11	0.08897713
450.32	0.08913035
450.531	0.08908918
450.741	0.08910727
450.951	0.08908618
451.161	0.08904918
451.372	0.08908527
451.582	0.08901842
451.792	0.08897861
452.002	0.08895571
452.212	0.08886355
452.422	0.08882895
452.633	0.08877039
452.843	0.08869504
453.053	0.08851912
453.263	0.08856262
453.473	0.08861355
453.683	0.08861264
453.893	0.088481
454.103	0.08856548
454.313	0.0885182
454.523	0.08853959
454.733	0.08832399
454.943	0.08837085
455.153	0.0882973
455.363	0.08831176
455.573	0.08832534
455.783	0.08824091
455.993	0.08814903
456.203	0.08833488
456.413	0.08823862
456.623	0.08814178
456.833	0.08821008
457.042	0.08823311
457.252	0.08833841
457.462	0.08842314
457.672	0.08829314
457.882	0.08827699
458.091	0.08832581
458.301	0.0883109
458.511	0.08813844
458.721	0.08800678
458.931	0.08802017
459.14	0.08807886
459.35	0.08815755
459.56	0.08816615
459.769	0.0882933
459.979	0.08843288
460.189	0.08841201
460.398	0.08844047
460.608	0.08842241
460.817	0.08839129
461.027	0.08839678
461.237	0.08827979
461.446	0.08825964
461.656	0.08841626
461.865	0.08830999
462.075	0.08826882
462.284	0.08825969
462.494	0.08829027
462.703	0.08821587
462.913	0.08820335
463.122	0.08821277
463.332	0.08842013
463.541	0.08848521
463.751	0.08851669
463.96	0.0885947
464.169	0.08880588
464.379	0.08893363
464.588	0.08890153
464.797	0.08889407
465.007	0.08883142
465.216	0.08886359
465.425	0.08880617
465.635	0.08876005
465.844	0.08874579
466.053	0.08876899
466.263	0.08877981
466.472	0.08886322
466.681	0.08896064
466.89	0.08902693
467.099	0.08906046
467.309	0.0889583
467.518	0.08894905
467.727	0.08884978
467.936	0.0888234
468.145	0.08877421
468.354	0.08879524
468.563	0.08890667
468.772	0.08911977
468.982	0.08914773
469.191	0.08928667
469.4	0.08942753
469.609	0.0893897
469.818	0.08946879
470.027	0.08939616
470.236	0.08927159
470.445	0.0892864
470.654	0.08929211
470.863	0.08928001
471.072	0.08946422
471.28	0.0894055
471.489	0.08949699
471.698	0.08951655
471.907	0.08960831
472.116	0.08963671
472.325	0.08963778
472.534	0.0896491
472.743	0.08976335
472.951	0.0898727
473.16	0.09003892
473.369	0.0901113
473.578	0.09023418
473.786	0.09042597
473.995	0.09052459
474.204	0.09063717
474.413	0.09071938
474.621	0.09084314
474.83	0.09089318
475.039	0.09095215
475.247	0.09100801
475.456	0.09102511
475.665	0.09107994
475.873	0.09106011
476.082	0.09110185
476.291	0.09113829
476.499	0.09121641
476.708	0.09125922
476.916	0.09136333
477.125	0.09143109
477.333	0.09160402
477.542	0.09167683
477.75	0.0918322
477.959	0.09197779
478.167	0.09209245
478.376	0.09221164
478.584	0.09237888
478.793	0.09251296
479.001	0.09258995
479.209	0.09271573
479.418	0.09273422
479.626	0.09283763
479.834	0.09291013
480.043	0.09304268
480.251	0.09300755
480.459	0.09313082
480.668	0.09321035
480.876	0.09334962
481.084	0.09336416
481.293	0.09346394
481.501	0.09344621
481.709	0.0935372
481.917	0.09360939
482.125	0.09367635
482.334	0.09371295
482.542	0.0938727
482.75	0.09392581
482.958	0.09405663
483.166	0.09426371
483.374	0.0943516
483.583	0.09447532
483.791	0.09463197
483.999	0.09482806
484.207	0.09494693
484.415	0.09508645
484.623	0.09512961
484.831	0.09530574
485.039	0.09543165
485.247	0.09563374
485.455	0.09564245
485.663	0.09588471
485.871	0.09599275
486.079	0.09614797
486.287	0.09628396
486.495	0.09639453
486.702	0.09650352
486.91	0.09668937
487.118	0.09678261
487.326	0.09695658
487.534	0.09702425
487.742	0.09715223
487.95	0.09732082
488.157	0.09740552
488.365	0.09757529
488.573	0.09766611
488.781	0.09781568
488.988	0.09807014
489.196	0.09816086
489.404	0.09834587
489.612	0.09850552
489.819	0.09869989
490.027	0.09885455
490.235	0.09891032
490.442	0.09900255
490.65	0.09922575
490.857	0.09936222
491.065	0.09949373
491.273	0.09956121
491.48	0.09969251
491.688	0.09983909
491.895	0.09995191
492.103	0.10010565
492.31	0.10021329
492.518	0.10037404
492.725	0.10051171
492.933	0.10066622
493.14	0.10094156
493.348	0.10119948
493.555	0.10132245
493.763	0.10142572
493.97	0.10156141
494.177	0.10179662
494.385	0.10197853
494.592	0.10208472
494.8	0.1022088
495.007	0.10238308
495.214	0.10260579
495.422	0.10281556
495.629	0.10296005
495.836	0.10311607
496.043	0.10326134
496.251	0.10343196
496.458	0.10357136
496.665	0.1037897
496.872	0.10397614
497.08	0.10410043
497.287	0.10432258
497.494	0.10448994
497.701	0.10469679
497.908	0.1049243
498.115	0.1050692
498.322	0.10520428
498.53	0.1053603
498.737	0.10551193
498.944	0.1057371
499.151	0.10590778
499.358	0.10605501
499.565	0.10620591
499.772	0.10637388
499.979	0.10657034
500.186	0.10675251
500.393	0.10691768
500.6	0.10705298
500.807	0.10719832
501.014	0.10736027
501.221	0.10760501
501.427	0.10780847
501.634	0.10793373
501.841	0.10812904
502.048	0.1083743
502.255	0.10855878
502.462	0.10880391
502.669	0.10893419
502.875	0.1092085
503.082	0.10950517
503.289	0.10967643
503.496	0.10985358
503.702	0.11009972
503.909	0.11033847
504.116	0.11057836
504.323	0.11068984
504.529	0.1108795
504.736	0.11107801
504.943	0.11122745
505.149	0.11144576
505.356	0.11162227
505.563	0.11184051
505.769	0.11209954
505.976	0.11229252
506.182	0.11253733
506.389	0.11284623
506.595	0.11306499
506.802	0.11334399
507.008	0.11354489
507.215	0.11374525
507.421	0.11396652
507.628	0.11419586
507.834	0.11433906
508.041	0.11455509
508.247	0.11470358
508.454	0.11499934
508.66	0.11523197
508.866	0.11542624
509.073	0.11566801
509.279	0.11591858
509.486	0.11619263
509.692	0.11638215
509.898	0.11654036
510.105	0.11677364
510.311	0.1170153
510.517	0.11724923
510.723	0.11749133
510.93	0.11768637
511.136	0.11796238
511.342	0.11822506
511.548	0.1184231
511.754	0.11866733
511.961	0.11884076
512.167	0.11902481
512.373	0.11927171
512.579	0.11951792
512.785	0.11971385
512.991	0.119996
513.197	0.12025449
513.404	0.12056057
513.61	0.12080142
513.816	0.12108173
514.022	0.12131523
514.228	0.12159227
514.434	0.12179319
514.64	0.12203799
514.846	0.1222251
515.052	0.12250638
515.258	0.12268155
515.464	0.12288456
515.669	0.12309683
515.875	0.1233433
516.081	0.12359202
516.287	0.12388431
516.493	0.12413284
516.699	0.12437071
516.905	0.12465165
517.111	0.12489791
517.316	0.12511486
517.522	0.12539212
517.728	0.12562721
517.934	0.12590809
518.139	0.12620163
518.345	0.1264414
518.551	0.12669053
518.757	0.12700296
518.962	0.12723212
519.168	0.127476
519.374	0.12767336
519.579	0.12795614
519.785	0.12827969
519.991	0.12859646
520.196	0.12891547
520.402	0.12913943
520.607	0.1294382
520.813	0.12977709
521.018	0.12999494
521.224	0.13021088
521.429	0.13047832
521.635	0.1306762
521.84	0.13094308
522.046	0.13119482
522.251	0.13139019
522.457	0.13167194
522.662	0.13194649
522.868	0.13218311
523.073	0.13247911
523.279	0.13270386
523.484	0.13292938
523.689	0.13321739
523.895	0.13348461
524.1	0.13375946
524.305	0.13401094
524.511	0.13423564
524.716	0.13454328
524.921	0.13483121
525.126	0.13505059
525.332	0.13532676
525.537	0.13559459
525.742	0.13590377
525.947	0.13621445
526.153	0.13650055
526.358	0.13674623
526.563	0.13705042
526.768	0.13734058
526.973	0.13764214
527.178	0.13789454
527.383	0.13814356
527.588	0.13846397
527.794	0.13881249
527.999	0.13909366
528.204	0.13931909
528.409	0.13952315
528.614	0.13979449
528.819	0.14000948
529.024	0.14018848
529.229	0.14042295
529.434	0.14066392
529.639	0.14093998
529.843	0.1412268
530.048	0.14148179
530.253	0.14177977
530.458	0.14211058
530.663	0.14240744
530.868	0.14275261
531.073	0.14304232
531.278	0.14334738
531.482	0.14367191
531.687	0.14399581
531.892	0.14419282
532.097	0.14441077
532.302	0.14465397
532.506	0.14492955
532.711	0.14513597
532.916	0.14535947
533.12	0.14553068
533.325	0.14578288
533.53	0.14603585
533.734	0.14628095
533.939	0.14648121
534.144	0.14678115
534.348	0.14701854
534.553	0.1473338
534.757	0.14768518
534.962	0.14801079
535.167	0.14828766
535.371	0.14860836
535.576	0.14888022
535.78	0.1492298
535.985	0.14952273
536.189	0.14975488
536.394	0.14999551
536.598	0.15026821
536.803	0.15053989
537.007	0.15079415
537.211	0.1510175
537.416	0.15123327
537.62	0.1515552
537.825	0.15182731
538.029	0.15209573
538.233	0.15237654
538.438	0.15271791
538.642	0.15297231
538.846	0.15333298
539.05	0.15354902
539.255	0.1538052
539.459	0.15410115
539.663	0.15434443
539.867	0.15456675
540.072	0.15486889
540.276	0.1550863
540.48	0.15539962
540.684	0.15567722
540.888	0.15595804
541.092	0.1562793
541.297	0.15654463
541.501	0.15679577
541.705	0.15707115
541.909	0.15731949
542.113	0.15757926
542.317	0.15784971
542.521	0.15808748
542.725	0.15834376
542.929	0.15861606
543.133	0.15893331
543.337	0.15924221
543.541	0.15955203
543.745	0.15979244
543.949	0.1600741
544.153	0.16032101
544.357	0.16061549
544.56	0.16089455
544.764	0.16111228
544.968	0.16133556
545.172	0.16149332
545.376	0.16169439
545.58	0.16195387
545.783	0.16218677
545.987	0.16235329
546.191	0.16258241
546.395	0.16282454
546.598	0.16318739
546.802	0.16346277
547.006	0.16370768
547.21	0.16394018
547.413	0.16422672
547.617	0.16454258
547.821	0.16484721
548.024	0.16507614
548.228	0.16534539
548.431	0.16558634
548.635	0.16583202
548.839	0.16602624
549.042	0.16621414
549.246	0.16637281
549.449	0.16662009
549.653	0.16682887
549.856	0.1671107
550.06	0.16734425
550.263	0.16767143
550.467	0.16798646
550.67	0.16830757
550.874	0.16856895
551.077	0.16885937
551.28	0.16913449
551.484	0.16940043
551.687	0.16958235
551.891	0.16979322
552.094	0.17001376
552.297	0.17023726
552.501	0.17046453
552.704	0.1706441
552.907	0.17084568
553.11	0.17108197
553.314	0.17129841
553.517	0.1715009
553.72	0.17174632
553.923	0.17195769
554.127	0.17219157
554.33	0.17241297
554.533	0.17265586
554.736	0.17281707
554.939	0.17300489
555.142	0.17322748
555.345	0.17341746
555.549	0.17364788
555.752	0.17388577
555.955	0.17409717
556.158	0.1744155
556.361	0.17465996
556.564	0.17486007
556.767	0.17509931
556.97	0.17530964
557.173	0.17554549
557.376	0.17580112
557.579	0.17592154
557.782	0.17613229
557.984	0.17631089
558.187	0.17656391
558.39	0.17672355
558.593	0.17690476
558.796	0.17702915
558.999	0.1772123
559.202	0.17746107
559.404	0.17766152
559.607	0.1777957
559.81	0.17800066
560.013	0.17814687
560.216	0.17837047
560.418	0.17862812
560.621	0.17880327
560.824	0.17899995
561.026	0.17927856
561.229	0.17949742
561.432	0.17974532
561.634	0.17987837
561.837	0.18009201
562.04	0.18024789
562.242	0.18045355
562.445	0.18053825
562.647	0.18069405
562.85	0.18078775
563.053	0.18098596
563.255	0.1811085
563.458	0.1813074
563.66	0.18147772
563.863	0.18171404
564.065	0.1818582
564.268	0.18206907
564.47	0.18230683
564.672	0.18245138
564.875	0.18259509
565.077	0.1827179
565.28	0.18280909
565.482	0.18300571
565.684	0.18318621
565.887	0.18325838
566.089	0.18342261
566.291	0.18357881
566.494	0.18379783
566.696	0.18403483
566.898	0.18414264
567.1	0.18423775
567.303	0.18444596
567.505	0.1846109
567.707	0.18468753
567.909	0.18471259
568.111	0.18476752
568.314	0.18496435
568.516	0.18516187
568.718	0.18526137
568.92	0.18540642
569.122	0.18555995
569.324	0.18576123
569.526	0.1858797
569.728	0.18598193
569.93	0.18605499
570.132	0.18614887
570.334	0.18624532
570.536	0.18635872
570.738	0.18639973
570.94	0.18643755
571.142	0.18656714
571.344	0.18663535
571.546	0.18672406
571.748	0.18681353
571.95	0.18691026
572.152	0.18710865
572.354	0.18730611
572.555	0.18740623
572.757	0.18755531
572.959	0.18766416
573.161	0.18778726
573.363	0.18792283
573.564	0.18806169
573.766	0.18814248
573.968	0.18827342
574.17	0.18838905
574.371	0.18846815
574.573	0.18853641
574.775	0.18857048
574.976	0.18856238
575.178	0.18864242
575.38	0.18862972
575.581	0.18866162
575.783	0.18876953
575.985	0.18889465
576.186	0.18902409
576.388	0.18912
576.589	0.18916346
576.791	0.18931185
576.992	0.18946784
577.194	0.18950491
577.395	0.18958066
577.597	0.18969908
577.798	0.18973964
578	0.18982849
578.201	0.18994459
578.402	0.18996266
578.604	0.19005244
578.805	0.19012013
579.007	0.19013849
579.208	0.19028634
579.409	0.19035974
579.611	0.19037565
579.812	0.19047277
580.013	0.19059073
580.215	0.19051324
580.416	0.19057214
580.617	0.19053548
580.818	0.19060497
581.019	0.19062535
581.221	0.19065228
581.422	0.19067044
581.623	0.19083164
581.824	0.19082988
582.025	0.19090653
582.226	0.19092837
582.428	0.19101292
582.629	0.1909814
582.83	0.1910375
583.031	0.19108188
583.232	0.19116842
583.433	0.19123388
583.634	0.19127648
583.835	0.19126496
584.036	0.19132442
584.237	0.1913234
584.438	0.19130451
584.639	0.19127727
584.84	0.19131273
585.041	0.19132503
585.242	0.19137526
585.442	0.19145358
585.643	0.19153703
585.844	0.19160159
586.045	0.19169888
586.246	0.19166465
586.447	0.19168655
586.647	0.19169764
586.848	0.19169466
587.049	0.19167968
587.25	0.19164327
587.45	0.19158405
587.651	0.19166712
587.852	0.19171425
588.053	0.1918295
588.253	0.19193748
588.454	0.19201452
588.655	0.19209482
588.855	0.19219722
589.056	0.1922632
589.256	0.19233686
589.457	0.19230334
589.658	0.19229386
589.858	0.19227624
590.059	0.19234447
590.259	0.19239459
590.46	0.19242086
590.66	0.192455
590.861	0.1925575
591.061	0.19262566
591.262	0.1927048
591.462	0.19276935
591.662	0.19278536
591.863	0.19275791
592.063	0.19275726
592.264	0.19276974
592.464	0.1927708
592.664	0.19279322
592.865	0.19288393
593.065	0.19280796
593.265	0.19287902
593.465	0.19284315
593.666	0.19284234
593.866	0.19283712
594.066	0.19289132
594.266	0.19279481
594.467	0.19287275
594.667	0.19283385
594.867	0.1929657
595.067	0.19293063
595.267	0.19287062
595.467	0.19281239
595.668	0.19280416
595.868	0.19281111
596.068	0.19280895
596.268	0.19268908
596.468	0.1927423
596.668	0.19278102
596.868	0.19283007
597.068	0.1928448
597.268	0.19290776
597.468	0.19291849
597.668	0.19297497
597.868	0.19300121
598.068	0.19308612
598.268	0.1930385
598.467	0.19311739
598.667	0.19304813
598.867	0.19307749
599.067	0.19314327
599.267	0.1930876
599.467	0.19305562
599.667	0.19305733
599.866	0.19303681
600.066	0.19308252
600.266	0.1930679
600.466	0.19304134
600.665	0.19308147
600.865	0.19309492
601.065	0.1931648
601.264	0.19313039
601.464	0.19312428
601.664	0.19325072
601.863	0.1933225
602.063	0.19339606
602.263	0.1933854
602.462	0.19340287
602.662	0.19346075
602.861	0.1935384
603.061	0.19352022
603.26	0.19353176
603.46	0.19348159
603.659	0.19351656
603.859	0.19346231
604.058	0.19342441
604.258	0.19349329
604.457	0.19352496
604.657	0.19342947
604.856	0.19342906
605.056	0.19354856
605.255	0.19363148
605.454	0.1937706
605.654	0.19368601
605.853	0.19371046
606.052	0.19377455
606.252	0.19385245
606.451	0.19384017
606.65	0.19383745
606.849	0.19370186
607.049	0.19373942
607.248	0.19373467
607.447	0.19376848
607.646	0.19378117
607.845	0.19376624
608.045	0.19371521
608.244	0.19387082
608.443	0.19387427
608.642	0.19391586
608.841	0.19391349
609.04	0.19387311
609.239	0.19391744
609.438	0.19396156
609.637	0.19402044
609.836	0.19411602
610.035	0.19416179
610.234	0.19427317
610.433	0.19437616
610.632	0.19443511
610.831	0.19463028
611.03	0.19461433
611.229	0.19474923
611.428	0.194826
611.627	0.19478752
611.826	0.1948898
612.025	0.19505495
612.224	0.19504085
612.422	0.19510902
612.621	0.19512054
612.82	0.19516535
613.019	0.19529049
613.218	0.19538839
613.416	0.19526763
613.615	0.19538508
613.814	0.19547136
614.012	0.19552805
614.211	0.19549851
614.41	0.19560259
614.608	0.19563114
614.807	0.1957698
615.006	0.19586048
615.204	0.19593827
615.403	0.19603754
615.602	0.19622977
615.8	0.1963861
615.999	0.19638705
616.197	0.19645253
616.396	0.19660206
616.594	0.19660938
616.793	0.19671859
616.991	0.19673761
617.19	0.19663547
617.388	0.1968683
617.586	0.19697539
617.785	0.19696415
617.983	0.19709582
618.182	0.19709487
618.38	0.19713481
618.578	0.19729087
618.777	0.19731153
618.975	0.19742069
619.173	0.19750848
619.372	0.19759217
619.57	0.19769535
619.768	0.19790762
619.966	0.19808025
620.165	0.19811864
620.363	0.19824267
620.561	0.19821938
620.759	0.19831851
620.957	0.19849859
621.155	0.1985842
621.354	0.19853889
621.552	0.19877941
621.75	0.19884054
621.948	0.19913752
622.146	0.19932658
622.344	0.19938095
622.542	0.19949363
622.74	0.19974329
622.938	0.19974305
623.136	0.19993341
623.334	0.20005955
623.532	0.20001953
623.73	0.20009232
623.928	0.20026142
624.126	0.20042196
624.324	0.20066984
624.522	0.20066997
624.719	0.20076941
624.917	0.20105588
625.115	0.20113602
625.313	0.20127034
625.511	0.20135412
625.708	0.20123799
625.906	0.2013827
626.104	0.20144546
626.302	0.20167469
626.499	0.20190421
626.697	0.20200419
626.895	0.20206816
627.093	0.20235075
627.29	0.20256707
627.488	0.20270386
627.686	0.20273905
627.883	0.20286291
628.081	0.20286992
628.278	0.20319382
628.476	0.2032617
628.673	0.20339583
628.871	0.20356488
629.068	0.2036533
629.266	0.20382717
629.463	0.2039606
629.661	0.20395551
629.858	0.20409941
630.056	0.20414763
630.253	0.20425071
630.451	0.2044124
630.648	0.20451993
630.845	0.20468648
631.043	0.20480503
631.24	0.20500531
631.438	0.2052585
631.635	0.20542092
631.832	0.20544314
632.029	0.2055673
632.227	0.20572863
632.424	0.20592571
632.621	0.20605073
632.818	0.20608572
633.016	0.20628542
633.213	0.2064666
633.41	0.2067164
633.607	0.20690877
633.804	0.20704745
634.001	0.20715378
634.199	0.2074326
634.396	0.20753038
634.593	0.20767328
634.79	0.20778085
634.987	0.20799136
635.184	0.20813301
635.381	0.20838994
635.578	0.2085221
635.775	0.20863779
635.972	0.20883728
636.169	0.20899084
636.366	0.20902507
636.563	0.20914881
636.76	0.20917583
636.957	0.20929596
637.153	0.20937969
637.35	0.20954068
637.547	0.20959681
637.744	0.2097782
637.941	0.20995607
638.138	0.21020623
638.334	0.21029402
638.531	0.21055837
638.728	0.21068948
638.925	0.21102399
639.121	0.21119887
639.318	0.21140396
639.515	0.21150866
639.711	0.21177377
639.908	0.21179511
640.105	0.21195371
640.301	0.21192548
640.498	0.21201246
640.695	0.21218717
640.891	0.21229143
641.088	0.2123523
641.284	0.2125942
641.481	0.212698
641.677	0.21284744
641.874	0.21292268
642.07	0.21303375
642.267	0.21330535
642.463	0.21345706
642.66	0.21367499
642.856	0.21381492
643.053	0.21396497
643.249	0.21425053
643.445	0.21438645
643.642	0.21449402
643.838	0.21466065
644.034	0.21473883
644.231	0.21487445
644.427	0.21506515
644.623	0.21519029
644.82	0.21536831
645.016	0.21549347
645.212	0.21559501
645.408	0.2158015
645.604	0.21613998
645.801	0.21636144
645.997	0.21652707
646.193	0.21662217
646.389	0.21685661
646.585	0.21705261
646.781	0.2172785
646.977	0.21735778
647.173	0.21740832
647.37	0.21750019
647.566	0.21768722
647.762	0.21775618
647.958	0.2179169
648.154	0.21794842
648.35	0.21807238
648.546	0.21823543
648.742	0.21850103
648.937	0.21848654
649.133	0.21865108
649.329	0.21886668
649.525	0.21897849
649.721	0.21913286
649.917	0.2194017
650.113	0.21944083
650.309	0.21985046
650.504	0.21998018
650.7	0.22004084
650.896	0.22027408
651.092	0.2204309
651.287	0.2204747
651.483	0.22073751
651.679	0.22075943
651.875	0.22097307
652.07	0.22107189
652.266	0.22116301
652.462	0.22126538
652.657	0.22141276
652.853	0.22148858
653.048	0.22165119
653.244	0.22169633
653.44	0.22191371
653.635	0.22200035
653.831	0.22226537
654.026	0.22249319
654.222	0.22265867
654.417	0.22281059
654.613	0.2229788
654.808	0.22306896
655.004	0.22331694
655.199	0.22336027
655.394	0.22343699
655.59	0.22359138
655.785	0.22365083
655.98	0.22384101
656.176	0.22393115
656.371	0.22414508
656.566	0.22430998
656.762	0.22436344
656.957	0.2244977
657.152	0.2246228
657.348	0.22476601
657.543	0.22498107
657.738	0.22510285
657.933	0.2252235
658.128	0.22546346
658.324	0.22554906
658.519	0.22579791
658.714	0.22591423
658.909	0.22602123
659.104	0.22612061
659.299	0.22623622
659.494	0.22629625
659.689	0.22650253
659.884	0.2265973
660.079	0.22665691
660.274	0.22681293
660.469	0.22688105
660.664	0.22702731
660.859	0.22716581
661.054	0.22726086
661.249	0.22737757
661.444	0.22754565
661.639	0.22760467
661.834	0.22770824
662.029	0.22785262
662.224	0.22797084
662.418	0.22811957
662.613	0.22826294
662.808	0.22838251
663.003	0.22857876
663.198	0.22877642
663.392	0.22881085
663.587	0.22909076
663.782	0.22914381
663.977	0.22921274
664.171	0.22932786
664.366	0.22938029
664.561	0.22947314
664.755	0.22968117
664.95	0.22960159
665.144	0.2297034
665.339	0.2298838
665.534	0.23002197
665.728	0.23023552
665.923	0.23039413
666.117	0.23045815
666.312	0.23060594
666.506	0.23081508
666.701	0.23084559
666.895	0.23092249
667.09	0.23101974
667.284	0.23119357
667.479	0.23135824
667.673	0.23149511
667.867	0.23164373
668.062	0.2317156
668.256	0.23181673
668.45	0.23193398
668.645	0.23184925
668.839	0.2318588
669.033	0.23193542
669.228	0.23190681
669.422	0.23208436
669.616	0.23218853
669.81	0.23232093
670.004	0.23248131
670.199	0.23268405
670.393	0.23280481
670.587	0.23300663
670.781	0.23315517
670.975	0.23333904
671.169	0.23334785
671.363	0.23344215
671.558	0.23352818
671.752	0.23369662
671.946	0.23378776
672.14	0.23386804
672.334	0.23385031
672.528	0.2341063
672.722	0.23416523
672.916	0.23425539
673.11	0.23420567
673.304	0.2343656
673.497	0.23437784
673.691	0.23455036
673.885	0.23445594
674.079	0.23456306
674.273	0.23455526
674.467	0.23471935
674.661	0.23466605
674.854	0.23474869
675.048	0.2348475
675.242	0.23501405
675.436	0.23511883
675.629	0.23533801
675.823	0.23535793
676.017	0.2355113
676.211	0.23556419
676.404	0.23561166
676.598	0.23569758
676.792	0.23584331
676.985	0.23594021
677.179	0.23608668
677.372	0.23616296
677.566	0.23644563
677.76	0.23663898
677.953	0.23670894
678.147	0.2367533
678.34	0.2368786
678.534	0.23695492
678.727	0.23710627
678.921	0.2371996
679.114	0.23713607
679.307	0.23723384
679.501	0.23733498
679.694	0.23735617
679.888	0.23746316
680.081	0.23750334
680.274	0.23748872
680.468	0.23763188
680.661	0.23768704
680.854	0.23789149
681.048	0.23800371
681.241	0.23813596
681.434	0.2382335
681.627	0.23834613
681.821	0.23845045
682.014	0.23867045
682.207	0.23863558
682.4	0.23865485
682.593	0.23876935
682.786	0.23884364
682.98	0.23894701
683.173	0.23910581
683.366	0.2390613
683.559	0.23908239
683.752	0.23921744
683.945	0.23922794
684.138	0.23932082
684.331	0.23932764
684.524	0.23940676
684.717	0.23950767
684.91	0.2397158
685.103	0.23978548
685.296	0.23990193
685.489	0.23999165
685.682	0.2400882
685.874	0.24015914
686.067	0.24027989
686.26	0.24033908
686.453	0.2404504
686.646	0.2404991
686.839	0.24063061
687.031	0.24075267
687.224	0.24069348
687.417	0.24077088
687.61	0.24077687
687.802	0.24082353
687.995	0.24097629
688.188	0.24100106
688.38	0.24106654
688.573	0.24129273
688.766	0.24140897
688.958	0.2414856
689.151	0.24144709
689.343	0.24145906
689.536	0.24145492
689.729	0.24151553
689.921	0.24156216
690.114	0.24152592
690.306	0.24159339
690.499	0.24174019
690.691	0.24185504
690.884	0.24198424
691.076	0.24206853
691.268	0.24203531
691.461	0.24204871
691.653	0.24214152
691.846	0.24226113
692.038	0.24228768
692.23	0.24230914
692.423	0.24235926
692.615	0.24249654
692.807	0.24262954
692.999	0.24265794
693.192	0.24259109
693.384	0.24267552
693.576	0.24267388
693.768	0.24270411
693.961	0.24265007
694.153	0.24268994
694.345	0.24275991
694.537	0.24292208
694.729	0.24299526
694.921	0.24311108
695.113	0.24323856
695.305	0.24333655
695.498	0.24339917
695.69	0.24351573
695.882	0.24352695
696.074	0.24359059
696.266	0.24365412
696.458	0.24367475
696.65	0.2438288
696.842	0.24392741
697.033	0.24395889
697.225	0.24398763
697.417	0.24402862
697.609	0.24411407
697.801	0.24416059
697.993	0.24423529
698.185	0.24424088
698.376	0.24432368
698.568	0.24439943
698.76	0.24448616
698.952	0.24450554
699.144	0.24462069
699.335	0.24462367
699.527	0.24468975
699.719	0.24471615
699.91	0.24484751
700.102	0.24479846
700.294	0.24491164
700.485	0.24499985
700.677	0.24508391
700.869	0.24520888
701.06	0.24534907
701.252	0.24532947
701.443	0.24552359
701.635	0.24557451
701.826	0.24563716
702.018	0.24569878
702.209	0.24576528
702.401	0.24572728
702.592	0.24587221
702.784	0.24587336
702.975	0.24595369
703.166	0.24595016
703.358	0.24601092
703.549	0.24604992
703.741	0.2461701
703.932	0.24617066
704.123	0.2461972
704.315	0.24628341
704.506	0.24645044
704.697	0.24650476
704.888	0.24661779
705.08	0.24669168
705.271	0.24677945
705.462	0.24683923
705.653	0.24686245
705.844	0.24681388
706.035	0.24692446
706.227	0.24696979
706.418	0.24703259
706.609	0.24713272
706.8	0.24727339
706.991	0.24731541
707.182	0.24740665
707.373	0.24739648
707.564	0.24747549
707.755	0.247492
707.946	0.2475722
708.137	0.24761078
708.328	0.24767568
708.519	0.24781112
708.71	0.24796867
708.901	0.24801101
709.092	0.24818212
709.283	0.24828536
709.473	0.24838002
709.664	0.24856169
709.855	0.24857228
710.046	0.24862041
710.237	0.24870531
710.427	0.24871048
710.618	0.24876178
710.809	0.24881011
711	0.24883476
711.19	0.24879209
711.381	0.24889541
711.572	0.24896285
711.762	0.24912811
711.953	0.24917274
712.144	0.24921535
712.334	0.24926822
712.525	0.24945589
712.715	0.24946756
712.906	0.24947348
713.097	0.24940202
713.287	0.24945342
713.478	0.24955832
713.668	0.24960921
713.859	0.24966218
714.049	0.24970017
714.239	0.24985272
714.43	0.24996591
714.62	0.25001123
714.811	0.25009934
715.001	0.25020406
715.191	0.2502868
715.382	0.25041625
715.572	0.25056353
715.762	0.25063067
715.953	0.25081041
716.143	0.25092924
716.333	0.25096174
716.523	0.25098265
716.714	0.25110828
716.904	0.25108921
717.094	0.25127419
717.284	0.25125139
717.474	0.25128306
717.664	0.25147768
717.855	0.2516616
718.045	0.25177405
718.235	0.25195467
718.425	0.25205339
718.615	0.25226753
718.805	0.25243747
718.995	0.25253896
719.185	0.25267476
719.375	0.25276772
719.565	0.25288609
719.755	0.25299676
719.945	0.25307433
720.135	0.25319634
720.325	0.25331676
720.515	0.25343376
720.704	0.2535328
720.894	0.25358566
721.084	0.25362298
721.274	0.2537062
721.464	0.25378629
721.654	0.25388459
721.843	0.25391932
722.033	0.25401301
722.223	0.25408397
722.413	0.25424565
722.602	0.25435185
722.792	0.25447537
722.982	0.25456353
723.171	0.25473098
723.361	0.25486894
723.55	0.25505843
723.74	0.25508069
723.93	0.25515002
724.119	0.25516154
724.309	0.25519822
724.498	0.2552083
724.688	0.25525302
724.877	0.25523958
725.067	0.2553308
725.256	0.25540623
725.446	0.25547481
725.635	0.25554974
725.825	0.2556267
726.014	0.2556689
726.203	0.25574374
726.393	0.2557562
726.582	0.25578803
726.771	0.25589699
726.961	0.25590931
727.15	0.25590365
727.339	0.25588766
727.529	0.2559408
727.718	0.25596665
727.907	0.25606179
728.096	0.25609373
728.286	0.25620781
728.475	0.25638971
728.664	0.25653035
728.853	0.25660356
729.042	0.25664423
729.231	0.2566904
729.42	0.25673749
729.609	0.25674117
729.799	0.25668934
729.988	0.2567039
730.177	0.25669371
730.366	0.25684143
730.555	0.25689018
730.744	0.25694571
730.933	0.25702748
731.122	0.25710556
731.31	0.25716405
731.499	0.2572673
731.688	0.25730745
731.877	0.25735609
732.066	0.25738132
732.255	0.25736375
732.444	0.25739946
732.632	0.25746634
732.821	0.25752857
733.01	0.25758079
733.199	0.25763494
733.388	0.25771116
733.576	0.25784605
733.765	0.25798045
733.954	0.25805851
734.142	0.25813616
734.331	0.25825589
734.52	0.25828258
734.708	0.25829627
734.897	0.25832896
735.086	0.25832622
735.274	0.25828242
735.463	0.25830268
735.651	0.25832215
735.84	0.25845097
736.028	0.25857325
736.217	0.25862861
736.405	0.25869714
736.594	0.25880752
736.782	0.25882974
736.971	0.25882659
737.159	0.25881153
737.347	0.25884275
737.536	0.25884001
737.724	0.25888831
737.912	0.25891932
738.101	0.2589535
738.289	0.25900584
738.477	0.25900746
738.666	0.25899605
738.854	0.25908461
739.042	0.25913604
739.23	0.25916553
739.418	0.25923028
739.607	0.2593305
739.795	0.25943297
739.983	0.25958961
740.171	0.25968441
740.359	0.25974066
740.547	0.2597863
740.735	0.25985332
740.923	0.2599315
741.112	0.26001416
741.3	0.26004343
741.488	0.26006666
741.676	0.26014798
741.864	0.26024964
742.052	0.26038554
742.239	0.26034445
742.427	0.26038882
742.615	0.26040863
742.803	0.26052463
742.991	0.26059844
743.179	0.26068126
743.367	0.26069502
743.555	0.26086496
743.742	0.26093246
743.93	0.26101399
744.118	0.26101464
744.306	0.26107188
744.494	0.26105153
744.681	0.26110257
744.869	0.26108849
745.057	0.26123197
745.244	0.26132319
745.432	0.26145084
745.62	0.26151032
745.807	0.26168241
745.995	0.26172767
746.182	0.26178926
746.37	0.26178551
746.558	0.2618062
746.745	0.26172726
746.933	0.26175757
747.12	0.26175061
747.308	0.26178144
747.495	0.2617858
747.683	0.26176366
747.87	0.26181928
748.057	0.26203599
748.245	0.2621372
748.432	0.26219457
748.62	0.26231575
748.807	0.2624044
748.994	0.26255537
749.182	0.26263215
749.369	0.26257898
749.556	0.26264556
749.743	0.26269439
749.931	0.26279022
750.118	0.26292374
750.305	0.26297466
750.492	0.262982
750.68	0.2630897
750.867	0.26311085
751.054	0.26321858
751.241	0.26316098
751.428	0.26319216
751.615	0.26324681
751.802	0.26335346
751.989	0.26340925
752.176	0.26352067
752.363	0.26360985
752.55	0.26372181
752.737	0.26377168
752.924	0.26382396
753.111	0.26388332
753.298	0.26395887
753.485	0.26392327
753.672	0.26385915
753.859	0.26390044
754.046	0.26391891
754.233	0.26392668
754.42	0.26395469
754.606	0.26388217
754.793	0.2638516
754.98	0.26396673
755.167	0.26401208
755.353	0.2641196
755.54	0.26418058
755.727	0.26417747
755.914	0.26424164
756.1	0.26429141
756.287	0.26425931
756.474	0.26430911
756.66	0.26433748
756.847	0.26437462
757.033	0.2644527
757.22	0.26455834
757.407	0.26473026
757.593	0.26496544
757.78	0.2650075
757.966	0.26502914
758.153	0.26513022
758.339	0.26520114
758.526	0.26522223
758.712	0.26518468
758.898	0.26513978
759.085	0.26514293
759.271	0.26521333
759.458	0.26521135
759.644	0.26525816
759.83	0.26537315
760.017	0.26551437
760.203	0.26558794
760.389	0.2656934
760.576	0.26569759
760.762	0.26572675
760.948	0.26565936
761.134	0.26558118
761.32	0.26551686
761.507	0.26546958
761.693	0.26549477
761.879	0.26552026
762.065	0.2655687
762.251	0.2657012
762.437	0.2658083
762.623	0.26589492
762.809	0.26593289
762.995	0.26592764
763.181	0.26597742
763.367	0.26598352
763.553	0.26597239
763.739	0.26604367
763.925	0.26607131
764.111	0.2661707
764.297	0.26628339
764.483	0.26633301
764.669	0.26636975
764.855	0.26642692
765.041	0.26635172
765.227	0.26637803
765.412	0.26636803
765.598	0.26633182
765.784	0.26635843
765.97	0.26646737
766.156	0.26650589
766.341	0.26658981
766.527	0.26658613
766.713	0.26657616
766.898	0.26663107
767.084	0.26660584
767.27	0.26653292
767.455	0.26652361
767.641	0.26655572
767.827	0.26661879
768.012	0.26670622
768.198	0.26671883
768.383	0.26675002
768.569	0.26680294
768.754	0.26678195
768.94	0.26669992
769.125	0.2666487
769.311	0.26662533
769.496	0.26658151
769.682	0.26662949
769.867	0.26661601
770.052	0.26669481
770.238	0.26680297
770.423	0.26682898
770.608	0.26678905
770.794	0.26685368
770.979	0.2668029
771.164	0.26683867
771.35	0.26683828
771.535	0.26683838
771.72	0.26688339
771.905	0.2669902
772.09	0.26697329
772.276	0.26702765
772.461	0.26699047
772.646	0.26694378
772.831	0.26693877
773.016	0.26689455
773.201	0.26685355
773.386	0.2668756
773.571	0.26691502
773.756	0.26698019
773.941	0.26705781
774.126	0.26714419
774.311	0.26715047
774.496	0.26717416
774.681	0.26717086
774.866	0.26712512
775.051	0.26701733
775.236	0.26697664
775.421	0.26678013
775.606	0.26670959
775.791	0.26656903
775.976	0.26652703
776.16	0.26648724
776.345	0.26657682
776.53	0.26667186
776.715	0.26683798
776.899	0.26695147
777.084	0.26704047
777.269	0.26705407
777.454	0.2670963
777.638	0.26707319
777.823	0.26695053
778.008	0.26680646
778.192	0.26672615
778.377	0.26664222
778.561	0.26668239
778.746	0.266647
778.931	0.26662592
779.115	0.26664896
779.3	0.26670312
779.484	0.26665956
779.669	0.26670955
779.853	0.26656121
780.037	0.26652286
780.222	0.26640446
780.406	0.26628151
780.591	0.26619567
780.775	0.26618814
780.959	0.26615629
781.144	0.2662184
781.328	0.26613265
781.512	0.26612942
781.697	0.26608589
781.881	0.26605957
782.065	0.26607481
782.249	0.26599239
782.434	0.26595587
782.618	0.26597508
782.802	0.26603518
782.986	0.26605779
783.17	0.26600036
783.354	0.26585211
783.539	0.26573517
783.723	0.26561962
783.907	0.26559806
784.091	0.26547426
784.275	0.26543813
784.459	0.26544699
784.643	0.26551183
784.827	0.26551925
785.011	0.26557937
785.195	0.2655268
785.379	0.26545019
785.563	0.26535723
785.747	0.26524116
785.93	0.26521106
786.114	0.26513184
786.298	0.26489577
786.482	0.26474186
786.666	0.26471664
786.85	0.2646413
787.033	0.26467219
787.217	0.2646337
787.401	0.26465116
787.585	0.26476488
787.768	0.26482717
787.952	0.26481682
788.136	0.26483146
788.319	0.26470147
788.503	0.2645744
788.687	0.26449181
788.87	0.26434428
789.054	0.26424296
789.237	0.26413974
789.421	0.26403278
789.605	0.2639901
789.788	0.26391922
789.972	0.26389623
790.155	0.26383985
790.338	0.26370393
790.522	0.26360787
790.705	0.26356659
790.889	0.26345462
791.072	0.26344875
791.256	0.26344163
791.439	0.26341286
791.622	0.26343598
791.806	0.26352328
791.989	0.26344969
792.172	0.26343008
792.355	0.26342126
792.539	0.26334095
792.722	0.2632714
792.905	0.26318537
793.088	0.26298345
793.271	0.26296512
793.455	0.26289455
793.638	0.26274105
793.821	0.26255326
794.004	0.26241859
794.187	0.26237506
794.37	0.26234523
794.553	0.26232743
794.736	0.2622743
794.919	0.26216464
795.102	0.26211892
795.285	0.26205659
795.468	0.26191826
795.651	0.261831
795.834	0.26174149
796.017	0.26172749
796.2	0.26170119
796.383	0.26166048
796.566	0.26167271
796.749	0.26162194
796.931	0.26150632
797.114	0.26133189
797.297	0.2611142
797.48	0.26097536
797.663	0.2608724
797.845	0.26066568
798.028	0.26060756
798.211	0.26054614
798.393	0.26054027
798.576	0.2605396
798.759	0.26047132
798.941	0.26043413
799.124	0.26049263
799.307	0.26046953
799.489	0.26046533
799.672	0.26034199
799.854	0.26022177
800.037	0.26014257
800.219	0.26000559
800.402	0.25984378
800.584	0.25968674
800.767	0.25955123
800.949	0.25945317
801.132	0.25948119
801.314	0.25934672
801.496	0.25922878
801.679	0.25905891
801.861	0.25896487
802.043	0.2588159
802.226	0.25870439
802.408	0.25854523
802.59	0.25854905
802.772	0.25851858
802.955	0.25854258
803.137	0.2584451
803.319	0.25839362
803.501	0.2582794
803.684	0.25815704
803.866	0.25797327
804.048	0.25787228
804.23	0.25771246
804.412	0.25765956
804.594	0.25752598
804.776	0.25746041
804.958	0.25733916
805.14	0.25727316
805.322	0.25709128
805.504	0.25696247
805.686	0.25674368
805.868	0.25664159
806.05	0.25644146
806.232	0.25627399
806.414	0.25612253
806.596	0.25603891
806.778	0.25599922
806.96	0.25600692
807.141	0.2558179
807.323	0.25573031
807.505	0.25566173
807.687	0.25551108
807.869	0.25541104
808.05	0.2552781
808.232	0.25506689
808.414	0.2550353
808.595	0.25493172
808.777	0.25476065
808.959	0.25474172
809.14	0.25463783
809.322	0.25454067
809.504	0.25449184
809.685	0.25445182
809.867	0.25438768
810.048	0.25434655
810.23	0.25426718
810.411	0.25417225
810.593	0.25402596
810.774	0.25395607
810.956	0.25388079
811.137	0.25374341
811.319	0.25370918
811.5	0.25362274
811.681	0.2535149
811.863	0.25346917
812.044	0.2533075
812.225	0.25320131
812.407	0.2531015
812.588	0.25291696
812.769	0.25264548
812.951	0.25252504
813.132	0.25232299
813.313	0.2521914
813.494	0.2518697
813.675	0.25175328
813.857	0.25169143
814.038	0.25162249
814.219	0.25148803
814.4	0.25135544
814.581	0.25124183
814.762	0.25117809
814.943	0.25104489
815.124	0.25077519
815.305	0.25057046
815.486	0.25026396
815.667	0.25007307
815.848	0.24978766
816.029	0.24952002
816.21	0.24930791
816.391	0.24918362
816.572	0.24900031
816.753	0.24899163
816.934	0.24887799
817.115	0.24887764
817.295	0.24887786
817.476	0.2487068
817.657	0.24855054
817.838	0.24844241
818.019	0.24823027
818.199	0.24799497
818.38	0.24777415
818.561	0.24753148
818.741	0.24740864
818.922	0.2472653
819.103	0.24710443
819.283	0.24699211
819.464	0.24700061
819.645	0.24678978
819.825	0.24670445
820.006	0.24657897
820.186	0.24648824
820.367	0.24637775
820.547	0.24617789
820.728	0.2458977
820.908	0.24581949
821.089	0.24561523
821.269	0.24550561
821.45	0.24532294
821.63	0.24517734
821.81	0.24510946
821.991	0.24505074
822.171	0.24496414
822.351	0.24485055
822.532	0.24470621
822.712	0.24456613
822.892	0.24453358
823.072	0.24444857
823.253	0.24433112
823.433	0.24409304
823.613	0.24399676
823.793	0.24387218
823.973	0.2436888
824.154	0.2433069
824.334	0.24303247
824.514	0.24278962
824.694	0.24260696
824.874	0.24235223
825.054	0.2421352
825.234	0.24201217
825.414	0.24193832
825.594	0.2417567
825.774	0.24159496
825.954	0.24142161
826.134	0.2412222
826.314	0.24093296
826.494	0.24074019
826.674	0.24053005
826.854	0.24030137
827.033	0.24004078
827.213	0.23995781
827.393	0.2398362
827.573	0.23985023
827.753	0.23971371
827.932	0.23970145
828.112	0.23971283
828.292	0.23975876
828.472	0.2395586
828.651	0.23947476
828.831	0.23919273
829.011	0.23900821
829.19	0.23869189
829.37	0.23850198
829.549	0.23831779
829.729	0.23810871
829.909	0.23787489
830.088	0.23770155
830.268	0.23742226
830.447	0.2372982
830.627	0.23709456
830.806	0.23687725
830.986	0.2366995
831.165	0.2364602
831.344	0.23629713
831.524	0.23618365
831.703	0.23595044
831.883	0.23567397
832.062	0.23539665
832.241	0.23517439
832.421	0.23499651
832.6	0.23469608
832.779	0.23442372
832.958	0.2342682
833.138	0.23405634
833.317	0.23388223
833.496	0.23372525
833.675	0.23363888
833.854	0.23363196
834.034	0.23351306
834.213	0.23332161
834.392	0.2332767
834.571	0.23311384
834.75	0.23294694
834.929	0.23272642
835.108	0.23248357
835.287	0.23241053
835.466	0.23219403
835.645	0.23199194
835.824	0.23175704
836.003	0.23161382
836.182	0.23142907
836.361	0.23124328
836.54	0.23090771
836.719	0.23072714
836.897	0.23045211
837.076	0.23040124
837.255	0.23023894
837.434	0.23016359
837.613	0.22999872
837.791	0.22993231
837.97	0.22977196
838.149	0.22961633
838.328	0.22934367
838.506	0.22912496
838.685	0.22885281
838.864	0.22874464
839.042	0.22851432
839.221	0.22835705
839.4	0.2282464
839.578	0.22808213
839.757	0.22778061
839.935	0.22751156
840.114	0.22728441
840.292	0.22717555
840.471	0.22712311
840.649	0.22697199
840.828	0.22676003
841.006	0.22668447
841.185	0.22652671
841.363	0.22623266
841.541	0.22596704
841.72	0.22579992
841.898	0.22558354
842.076	0.2253304
842.255	0.22511678
842.433	0.22495166
842.611	0.22476778
842.789	0.22455704
842.968	0.22418476
843.146	0.22385063
843.324	0.22367002
843.502	0.2234546
843.68	0.22328741
843.859	0.22324743
844.037	0.22305387
844.215	0.22293886
844.393	0.22279687
844.571	0.22266287
844.749	0.22251591
844.927	0.22231926
845.105	0.22206628
845.283	0.22194477
845.461	0.22173895
845.639	0.22165456
845.817	0.22141024
845.995	0.22129178
846.173	0.22109558
846.351	0.22081155
846.529	0.22051357
846.706	0.22019524
846.884	0.21998699
847.062	0.21978286
847.24	0.21949501
847.418	0.21926
847.595	0.21909611
847.773	0.2189265
847.951	0.21881963
848.129	0.21857306
848.306	0.21843271
848.484	0.21823162
848.662	0.21812667
848.839	0.21803862
849.017	0.21796894
849.194	0.21783589
849.372	0.21765083
849.549	0.2173843
849.727	0.21723452
849.905	0.21700558
850.082	0.21665346
850.26	0.21632433
850.437	0.21603555
850.614	0.21584222
850.792	0.21572076
850.969	0.21551512
851.147	0.21524295
851.324	0.21502502
851.501	0.21492421
851.679	0.21468801
851.856	0.21445611
852.033	0.21431465
852.211	0.21414626
852.388	0.21398025
852.565	0.21381882
852.742	0.21351888
852.92	0.21339294
853.097	0.21311463
853.274	0.21275571
853.451	0.2124479
853.628	0.21225445
853.805	0.21217574
853.982	0.21209687
854.159	0.21189342
854.336	0.21180597
854.514	0.21164888
854.691	0.21144252
854.868	0.21124658
855.045	0.21096578
855.221	0.21064998
855.398	0.21040497
855.575	0.21004399
855.752	0.20983377
855.929	0.20972049
856.106	0.20950272
856.283	0.20942622
856.46	0.20928818
856.637	0.20913183
856.813	0.2091448
856.99	0.20907682
857.167	0.20883731
857.344	0.20871754
857.52	0.20845262
857.697	0.20819389
857.874	0.2080324
858.05	0.20773458
858.227	0.20746723
858.404	0.2072521
858.58	0.20700738
858.757	0.20673086
858.933	0.20660988
859.11	0.20643556
859.287	0.20624171
859.463	0.20605598
859.64	0.2059479
859.816	0.20576646
859.993	0.20566689
860.169	0.20547819
860.345	0.20511377
860.522	0.20493909
860.698	0.20471917
860.875	0.20454566
861.051	0.20435091
861.227	0.20406759
861.404	0.20389057
861.58	0.20386728
861.756	0.20370962
861.932	0.20362462
862.109	0.2033619
862.285	0.20318218
862.461	0.20308834
862.637	0.20281916
862.813	0.20255553
862.99	0.20218793
863.166	0.20183182
863.342	0.20172905
863.518	0.20151332
863.694	0.20125676
863.87	0.20107804
864.046	0.20091912
864.222	0.20096352
864.398	0.20092273
864.574	0.20061487
864.75	0.20034857
864.926	0.20019422
865.102	0.20005726
865.278	0.19965483
865.454	0.19928991
865.63	0.19892575
865.805	0.19870772
865.981	0.19858671
866.157	0.19830675
866.333	0.19799958
866.509	0.19796271
866.684	0.19776077
866.86	0.19762912
867.036	0.19743972
867.212	0.19706766
867.387	0.19676286
867.563	0.19657478
867.739	0.19642048
867.914	0.1961718
868.09	0.19591115
868.265	0.19576934
868.441	0.19569322
868.617	0.19561926
868.792	0.19541915
868.968	0.19516055
869.143	0.19513788
869.319	0.19510138
869.494	0.1948867
869.67	0.19469589
869.845	0.19455564
870.02	0.19432151
870.196	0.19416037
870.371	0.19387716
870.546	0.19367595
870.722	0.19350986
870.897	0.19333826
871.072	0.19304852
871.248	0.19287733
871.423	0.19263897
871.598	0.19247234
871.773	0.19208999
871.949	0.19181477
872.124	0.19170165
872.299	0.19153758
872.474	0.19152367
872.649	0.1913666
872.824	0.19112415
872.999	0.1909446
873.174	0.19075939
873.349	0.19048968
873.524	0.19035386
873.699	0.19003269
873.874	0.18988273
874.049	0.18976818
874.224	0.18968358
874.399	0.18956407
874.574	0.18944352
874.749	0.18928677
874.924	0.1890958
875.099	0.18890473
875.274	0.18860189
875.449	0.18842161
875.623	0.1880981
875.798	0.18775068
875.973	0.18740008
876.148	0.18701714
876.322	0.18677713
876.497	0.1865955
876.672	0.18631262
876.846	0.18613502
877.021	0.18608285
877.196	0.18593803
877.37	0.18595672
877.545	0.18587321
877.72	0.18580326
877.894	0.18570906
878.069	0.18560215
878.243	0.18528724
878.418	0.18518757
878.592	0.18487459
878.767	0.18450749
878.941	0.18423143
879.116	0.18389378
879.29	0.18358544
879.464	0.18328539
879.639	0.18295597
879.813	0.18293252
879.987	0.18272309
880.162	0.18257718
880.336	0.18249037
880.51	0.18243221
880.685	0.1823927
880.859	0.18226243
881.033	0.18200117
881.207	0.18169876
881.381	0.18140748
881.556	0.18110393
881.73	0.18079757
881.904	0.18062251
882.078	0.18041439
882.252	0.18019598
882.426	0.1802254
882.6	0.18015712
882.774	0.18018712
882.948	0.18012904
883.122	0.17996645
883.296	0.17987233
883.47	0.17977811
883.644	0.17961712
883.818	0.17937016
883.992	0.17921081
884.166	0.17896826
884.34	0.17873902
884.514	0.17844619
884.687	0.17809611
884.861	0.17775092
885.035	0.17761318
885.209	0.17729267
885.382	0.1770552
885.556	0.17685123
885.73	0.17678054
885.904	0.17668214
886.077	0.17654029
886.251	0.17633114
886.425	0.1761787
886.598	0.17604045
886.772	0.17586325
886.945	0.17553089
887.119	0.17528067
887.292	0.17512977
887.466	0.17502712
887.64	0.174804
887.813	0.17472477
887.986	0.17466631
888.16	0.1746886
888.333	0.17461709
888.507	0.17451738
888.68	0.1742682
888.854	0.17422339
889.027	0.1739128
889.2	0.17371288
889.374	0.17333521
889.547	0.17307544
889.72	0.1729154
889.893	0.17274345
890.067	0.17249697
890.24	0.17246735
890.413	0.1723443
890.586	0.17230896
890.759	0.17232957
890.933	0.17209585
891.106	0.17198552
891.279	0.17190988
891.452	0.17176804
891.625	0.17145936
891.798	0.17125183
891.971	0.17093309
892.144	0.17071031
892.317	0.1704758
892.49	0.17016751
892.663	0.169896
892.836	0.16986228
893.009	0.16969332
893.182	0.16960163
893.355	0.16953741
893.527	0.16935225
893.7	0.16931774
893.873	0.16928016
894.046	0.16900941
894.219	0.16893084
894.391	0.16862397
894.564	0.16843189
894.737	0.16823157
894.91	0.16798486
895.082	0.16763858
895.255	0.1673816
895.428	0.16713025
895.6	0.16710296
895.773	0.16685235
895.945	0.16681286
896.118	0.1667297
896.291	0.16677972
896.463	0.16671149
896.636	0.16657577
896.808	0.16638219
896.981	0.16636258
897.153	0.16610709
897.326	0.16593389
897.498	0.16558942
897.67	0.16538495
897.843	0.16523042
898.015	0.16514514
898.187	0.16494872
898.36	0.16472726
898.532	0.16439669
898.704	0.16427092
898.877	0.1640446
899.049	0.16394837
899.221	0.16369757
899.393	0.16354455
899.566	0.16354327
899.738	0.16350781
899.91	0.16333264
900.082	0.16337973
900.254	0.16317128
900.426	0.16300654
900.598	0.16287575
900.77	0.16251833
900.942	0.16239621
901.114	0.16215201
901.286	0.1618498
901.458	0.16164976
901.63	0.16154953
901.802	0.16134498
901.974	0.1613258
902.146	0.16114493
902.318	0.16107843
902.49	0.16099961
902.662	0.16086778
902.834	0.16087014
903.005	0.1609325
903.177	0.1609376
903.349	0.16083115
903.521	0.16079456
903.693	0.16074062
903.864	0.16055364
904.036	0.16033168
904.208	0.15987263
904.379	0.15947111
904.551	0.15935269
904.723	0.15918057
904.894	0.15901944
905.066	0.15917166
905.237	0.15918444
905.409	0.15918006
905.58	0.15925051
905.752	0.15906626
905.923	0.1588634
906.095	0.15858156
906.266	0.15821026
906.438	0.15788225
906.609	0.15783978
906.78	0.1575855
906.952	0.1573722
907.123	0.15728331
907.295	0.15729671
907.466	0.157158
907.637	0.15698169
907.808	0.15673549
907.98	0.15661472
908.151	0.15670327
908.322	0.15653627
908.493	0.15628543
908.665	0.15627099
908.836	0.15609981
909.007	0.15602132
909.178	0.15594991
909.349	0.15552684
909.52	0.15549437
909.691	0.15538616
909.862	0.15511093
910.033	0.15492638
910.204	0.15460576
910.375	0.15437237
910.546	0.15427705
910.717	0.15399539
910.888	0.15387834
911.059	0.15371578
911.23	0.15362074
911.401	0.15364427
911.572	0.15355562
911.742	0.15356598
911.913	0.15359153
912.084	0.15332714
912.255	0.15328073
912.426	0.15312865
912.596	0.1528694
912.767	0.15269541
912.938	0.15243512
913.108	0.15210702
913.279	0.15206908
913.45	0.15196186
913.62	0.15195066
913.791	0.15201564
913.962	0.15206313
914.132	0.15194371
914.303	0.15184637
914.473	0.15183739
914.644	0.15158033
914.814	0.15135243
914.985	0.15119522
915.155	0.15082357
915.326	0.1504645
915.496	0.15013423
915.666	0.14964223
915.837	0.14955302
916.007	0.14921073
916.177	0.14886467
916.348	0.14887194
916.518	0.14900434
916.688	0.14908961
916.858	0.14904887
917.029	0.14878834
917.199	0.14888416
917.369	0.14871321
917.539	0.14858981
917.709	0.14825526
917.88	0.14793881
918.05	0.14776695
918.22	0.147637
918.39	0.14732837
918.56	0.14736645
918.73	0.14708546
918.9	0.147017
919.07	0.14695643
919.24	0.14705962
919.41	0.14699064
919.58	0.14681782
919.75	0.14671132
919.92	0.14657171
920.09	0.14655651
920.26	0.14637907
920.429	0.14598262
920.599	0.14587794
920.769	0.14583433
920.939	0.14549246
921.109	0.14522621
921.278	0.14478692
921.448	0.14460069
921.618	0.14442788
921.787	0.1442102
921.957	0.14411751
922.127	0.14388476
922.296	0.14392035
922.466	0.14387244
922.636	0.14384981
922.805	0.14386624
922.975	0.14372841
923.144	0.14360521
923.314	0.14352976
923.483	0.14326338
923.653	0.14333421
923.822	0.14311796
923.992	0.14289052
924.161	0.14260646
924.331	0.14230891
924.5	0.1422226
924.669	0.14199401
924.839	0.14177186
925.008	0.14169213
925.177	0.14158488
925.347	0.14168984
925.516	0.14158678
925.685	0.1415014
925.854	0.14150783
926.023	0.14127375
926.193	0.14115089
926.362	0.1408496
926.531	0.14055165
926.7	0.14048288
926.869	0.1404563
927.038	0.14036119
927.207	0.14060241
927.376	0.14040716
927.545	0.14061876
927.715	0.14077737
927.884	0.14088271
928.052	0.14099426
928.221	0.14089647
928.39	0.14064277
928.559	0.1409786
928.728	0.14103413
928.897	0.14106146
929.066	0.14116854
929.235	0.14081844
929.404	0.14084418
929.572	0.1409847
929.741	0.14075956
929.91	0.14056342
930.079	0.14039667
930.247	0.14001509
930.416	0.14006003
930.585	0.13982726
930.753	0.13941729
930.922	0.13910793
931.091	0.1389755
931.259	0.13871941
931.428	0.13883929
931.596	0.13868122
931.765	0.13889202
931.934	0.1389859
932.102	0.13892575
932.27	0.1388893
932.439	0.13885655
932.607	0.13833822
932.776	0.13830561
932.944	0.13801047
933.113	0.13758434
933.281	0.13735673
933.449	0.13685948
933.618	0.13645118
933.786	0.13630827
933.954	0.13584678
934.123	0.13572418
934.291	0.13589284
934.459	0.13593434
934.627	0.13614223
934.795	0.13648577
934.964	0.13652309
935.132	0.13662244
935.3	0.13652687
935.468	0.13640179
935.636	0.13640933
935.804	0.13643003
935.972	0.13602519
936.14	0.13586193
936.308	0.13558086
936.476	0.13530694
936.644	0.13512371
936.812	0.13486888
936.98	0.13463878
937.148	0.1347171
937.316	0.1346875
937.484	0.13499382
937.652	0.13482552
937.82	0.1348281
937.987	0.13494129
938.155	0.13518959
938.323	0.13498964
938.491	0.13481741
938.658	0.13503292
938.826	0.13527232
938.994	0.13565562
939.162	0.13546518
939.329	0.13519554
939.497	0.13536582
939.665	0.13583315
939.832	0.13557923
940	0.13622311
940.167	0.13549073
940.335	0.13567141
940.502	0.13528219
940.67	0.13533243
940.837	0.13553013
941.005	0.13500799
941.172	0.13448304
941.34	0.13472024
941.507	0.13536583
941.674	0.13590372
941.842	0.13521663
942.009	0.1349829
942.177	0.13543037
942.344	0.13587153
942.511	0.13662717
942.678	0.13680511
942.846	0.13625689
943.013	0.13674225
943.18	0.13683261
943.347	0.136967
943.514	0.13689212
943.682	0.13700057
943.849	0.13596025
944.016	0.13585603
944.183	0.13614068
944.35	0.13631356
944.517	0.13652945
944.684	0.1358363
944.851	0.13385659
945.018	0.1338266
945.185	0.13427712
945.352	0.13324903
945.519	0.13264326
945.686	0.13222062
945.853	0.1337551
946.02	0.13366091
946.187	0.13285492
946.353	0.13222752
946.52	0.13347145
946.687	0.13369842
946.854	0.13353919
947.021	0.1330315
947.187	0.13375545
947.354	0.13330664
947.521	0.13389794
947.687	0.13245832
947.854	0.13246097
948.021	0.13298422
948.187	0.13144301
948.354	0.13102604
948.52	0.13163646
948.687	0.13166003
948.854	0.1329302
949.02	0.13166177
949.187	0.13097782
949.353	0.13138412
949.52	0.13045053
949.686	0.12996672
949.852	0.13036001
950.019	0.12984336
950.185	0.13008148
950.352	0.12967707
950.518	0.12934145
950.684	0.13014483
950.851	0.12990767
951.017	0.12881046
951.183	0.12774239
951.349	0.12779698
951.516	0.1273548
951.682	0.1273841
951.848	0.12694903
952.014	0.12691447
952.18	0.12748081
952.346	0.12844836
952.512	0.12848893
952.679	0.12915397
952.845	0.12856115
953.011	0.12798037
953.177	0.12776742
953.343	0.12681893
953.509	0.12687242
953.675	0.12640667
953.841	0.12611505
954.007	0.12640397
954.172	0.12705856
954.338	0.12631341
954.504	0.12563214
954.67	0.12409998
954.836	0.12399871
955.002	0.12314392
955.167	0.12297736
955.333	0.12190726
955.499	0.12234162
955.665	0.1227659
955.83	0.12326067
955.996	0.12344611
956.162	0.12369652
956.327	0.12356347
956.493	0.12344849
956.659	0.12349104
956.824	0.12331585
956.99	0.12357335
957.155	0.12306373
957.321	0.12249798
957.486	0.12254559
957.652	0.12269807
957.817	0.12307381
957.983	0.12253379
958.148	0.12250324
958.314	0.12252479
958.479	0.12234475
958.644	0.12210492
958.81	0.12247109
958.975	0.12166933
959.14	0.12193065
959.306	0.12123873
959.471	0.1209327
959.636	0.12021908
959.801	0.12058722
959.967	0.12020719
960.132	0.12042727
960.297	0.11974475
960.462	0.11999869
960.627	0.12002471
960.792	0.12085601
960.957	0.12023615
961.123	0.12081412
961.288	0.1205786
961.453	0.12139358
961.618	0.12121904
961.783	0.12154679
961.948	0.12139306
962.113	0.12093725
962.277	0.11993767
962.442	0.11984995
962.607	0.11922448
962.772	0.11901251
962.937	0.11829727
963.102	0.11824418
963.267	0.11852758
963.431	0.11874721
963.596	0.11848458
963.761	0.11876587
963.926	0.11853752
964.09	0.11878247
964.255	0.11919057
964.42	0.11873021
964.584	0.11873397
964.749	0.11886746
964.914	0.11858623
965.078	0.11824061
965.243	0.11799315
965.407	0.11743325
965.572	0.11762552
965.736	0.11742854
965.901	0.117252
966.065	0.11733021
966.23	0.1176435
966.394	0.11788583
966.559	0.117825
966.723	0.11747187
966.887	0.11694368
967.052	0.11679161
967.216	0.11647109
967.38	0.11600972
967.545	0.11584814
967.709	0.11573123
967.873	0.11633792
968.037	0.11685311
968.202	0.11677799
968.366	0.1166629
968.53	0.11706807
968.694	0.11715487
968.858	0.11708084
969.022	0.11636742
969.187	0.11558455
969.351	0.11543007
969.515	0.11561733
969.679	0.11505343
969.843	0.11404092
970.007	0.11347221
970.171	0.11391697
970.335	0.11464317
970.499	0.11484143
970.662	0.11431585
970.826	0.11447621
970.99	0.11502456
971.154	0.11544686
971.318	0.11528641
971.482	0.11467262
971.645	0.11446764
971.809	0.11459211
971.973	0.1143199
972.137	0.11419368
972.3	0.11422997
972.464	0.11426664
972.628	0.11485215
972.791	0.11537967
972.955	0.11576071
973.119	0.11619924
973.282	0.11617812
973.446	0.11637253
973.609	0.1159748
973.773	0.11581803
973.936	0.11495681
974.1	0.11456697
974.263	0.11456428
974.427	0.11423
974.59	0.11358861
974.754	0.11381815
974.917	0.11302183
975.08	0.1129238
975.244	0.11283618
975.407	0.11265184
975.57	0.11299203
975.734	0.11267042
975.897	0.11215743
976.06	0.11233882
976.223	0.11249764
976.387	0.11234517
976.55	0.11176763
976.713	0.11111086
976.876	0.11144554
977.039	0.11084088
977.202	0.11099109
977.365	0.11038638
977.528	0.11055124
977.692	0.11100744
977.855	0.11103789
978.018	0.11055499
978.181	0.11091231
978.344	0.11042545
978.506	0.11104438
978.669	0.11072307
978.832	0.11013833
978.995	0.10988389
979.158	0.11026971
979.321	0.11036958
979.484	0.11018738
979.646	0.10995277
979.809	0.11028126
979.972	0.1103671
980.135	0.11089548
980.297	0.11044401
980.46	0.11034189
980.623	0.11088589
980.786	0.11078415
980.948	0.11038643
981.111	0.11026082
981.273	0.110691
981.436	0.11087689
981.599	0.11105398
981.761	0.1101646
981.924	0.11047261
982.086	0.11006932
982.249	0.11004732
982.411	0.10936567
982.573	0.10884941
982.736	0.10858232
982.898	0.10875917
983.061	0.10811951
983.223	0.10828833
983.385	0.10796516
983.548	0.10781712
983.71	0.10797215
983.872	0.10763561
984.034	0.10770643
984.197	0.10768881
984.359	0.10749912
984.521	0.10802856
984.683	0.10806168
984.845	0.10839647
985.008	0.10827098
985.17	0.1092903
985.332	0.1092897
985.494	0.10932581
985.656	0.10937161
985.818	0.10849898
985.98	0.10825476
986.142	0.10804447
986.304	0.10681578
986.466	0.10627313
986.628	0.10606104
986.79	0.10569428
986.952	0.10606054
987.113	0.10596656
987.275	0.10598959
987.437	0.10622515
987.599	0.10655735
987.761	0.10753085
987.922	0.1072143
988.084	0.10732277
988.246	0.10763347
988.408	0.10815846
988.569	0.10789455
988.731	0.10820823
988.893	0.10728374
989.054	0.10791158
989.216	0.10776026
989.377	0.10669706
989.539	0.10651061
989.701	0.10594177
989.862	0.10584916
990.024	0.1056061
990.185	0.10502032
990.347	0.10455358
990.508	0.10427591
990.669	0.10431007
990.831	0.10500332
990.992	0.10531781
991.154	0.10481391
991.315	0.10554321
991.476	0.10685644
991.638	0.10768522
991.799	0.10767981
991.96	0.10725578
992.121	0.10702235
992.283	0.10762701
992.444	0.10666808
992.605	0.1051575
992.766	0.10501706
992.927	0.1046753
993.088	0.10505356
993.249	0.10434951
993.41	0.10390965
993.572	0.10349779
993.733	0.10467347
993.894	0.10472056
994.055	0.10373798
994.216	0.10370764
994.376	0.10321343
994.537	0.10402596
994.698	0.10490908
994.859	0.10374479
995.02	0.10361894
995.181	0.10316117
995.342	0.10336067
995.503	0.10432861
995.663	0.10358223
995.824	0.10286885
995.985	0.10410114
996.146	0.1043478
996.306	0.10570221
996.467	0.105138
996.628	0.10617678
996.788	0.10589528
996.949	0.10769211
997.11	0.10640183
997.27	0.10628923
997.431	0.10533547
997.591	0.10469388
997.752	0.10273597
997.912	0.10316031
998.073	0.10198488
998.233	0.103168
998.394	0.10316609
998.554	0.10469964
998.714	0.10487693
998.875	0.10553259
999.035	0.10491013
999.196	0.10417444
999.356	0.10392369
999.516	0.10435774
999.676	0.10442849
999.837	0.10487655
999.997	0.10390999
1000.157	0.10451066
1000.317	0.10405363
1000.477	0.10271795
1000.638	0.10192275
1000.798	0.10150794
1000.958	0.10085229
1001.118	0.10167332
1001.278	0.10223101
1001.438	0.10301366
1001.598	0.10357032
1001.758	0.10364674
1001.918	0.10338504
1002.078	0.10311484
1002.238	0.1028179
1002.398	0.10288061
1002.558	0.10220658
1002.718	0.10272662
1002.878	0.103207
1003.037	0.10147088
1003.197	0.10204105
1003.357	0.10139409
1003.517	0.10092587
1003.677	0.09989258
1003.836	0.09999459
1003.996	0.09861576
1004.156	0.09927547
1004.315	0.09940617
1004.475	0.10077096
1004.635	0.10133938
1004.794	0.10330094
1004.954	0.10241041
1005.114	0.10326315
1005.273	0.10411912
1005.433	0.10216886
1005.592	0.10188062
1005.752	0.10055651
1005.911	0.09957862
1006.071	0.10027326
1006.23	0.09971623
1006.389	0.09871444
1006.549	0.10035979
1006.708	0.09896433
1006.868	0.09879577
1007.027	0.10009612
1007.186	0.09966805
1007.345	0.1001439
1007.505	0.10026472
1007.664	0.10097741
1007.823	0.10221295
1007.982	0.10297467
1008.142	0.10289439
1008.301	0.10400365
1008.46	0.10291123
1008.619	0.10268163
1008.778	0.1030298
1008.937	0.10213122
1009.096	0.1016748
1009.255	0.10137153
1009.414	0.10009357
1009.573	0.10024699
1009.732	0.10203684
1009.891	0.10124838
1010.05	0.10262408
1010.209	0.10211527
1010.368	0.1007293
1010.527	0.10043634
1010.686	0.10375407
1010.845	0.10231613
1011.003	0.10269453
1011.162	0.10067798
1011.321	0.09872328
1011.48	0.10065745
1011.638	0.10123408
1011.797	0.09964341
1011.956	0.09866307
1012.115	0.09789399
1012.273	0.09859867
1012.432	0.10024139
1012.59	0.09536282
1012.749	0.09515548
1012.908	0.09349928
1013.066	0.0954182
1013.225	0.09575937
1013.383	0.09636214
1013.542	0.09602093
1013.7	0.09934761
1013.859	0.09894111
1014.017	0.09990921
1014.175	0.09868042
1014.334	0.10057643
1014.492	0.09995262
1014.65	0.1010421
1014.809	0.10229869
1014.967	0.10273066
1015.125	0.10536738
1015.284	0.10764502
1015.442	0.10577719
1015.6	0.10588988
1015.758	0.10626711
1015.916	0.10443155
1016.075	0.10544446
1016.233	0.10099645
1016.391	0.09997279
1016.549	0.10011566
1016.707	0.09977798
1016.865	0.09917182
1017.023	0.09982294
1017.181	0.09865186
1017.339	0.10203671
1017.497	0.10015199
1017.655	0.10025735
1017.813	0.10094538
1017.971	0.10195933
1018.129	0.10172697
1018.286	0.10329444
1018.444	0.09879776
1018.602	0.09923706
1018.76	0.09762703
1018.918	0.09899935
1019.075	0.09863746
1019.233	0.09900736
1019.391	0.09686385
1019.549	0.09931652
1019.706	0.10168328
1019.864	0.10370523
1020.022	0.10351961
1020.179	0.10303287
1020.337	0.10335393
1020.494	0.10217898
1020.652	0.10092025
1020.809	0.10226244
1020.967	0.10124183
1021.124	0.09822611
1021.282	0.1000233
1021.439	0.1007549
1021.597	0.10313442
1021.754	0.10402236
1021.911	0.10438059
1022.069	0.1023325
1022.226	0.10610065
1022.384	0.10291473
1022.541	0.10026678
1022.698	0.10016354
1022.855	0.10223456
1023.013	0.09825789
1023.17	0.10040327
1023.327	0.09954922
1023.484	0.1015303
1023.641	0.10138424
1023.798	0.10493708
1023.956	0.10754975
1024.113	0.10836236
1024.27	0.10859638
1024.427	0.10925738
1024.584	0.10712542
1024.741	0.10765738
1024.898	0.10483459
1025.055	0.09895793
1025.212	0.09520623
1025.369	0.09181363
1025.525	0.09038257
1025.682	0.09557714
1025.839	0.09690492
1025.996	0.09458837
1026.153	0.09607388
1026.31	0.10402568
1026.466	0.10925656
1026.623	0.11209927
1026.78	0.10845507
1026.937	0.10719814
1027.093	0.11017629
1027.25	0.113197
1027.407	0.10687554
1027.563	0.10264201
1027.72	0.10157943
1027.876	0.10047678
1028.033	0.1046737
1028.19	0.10452498
1028.346	0.10137917
1028.503	0.09960884
1028.659	0.10024504
1028.816	0.10418394
1028.972	0.10975338
1029.128	0.1109841
1029.285	0.10763326
1029.441	0.10626249
1029.598	0.1068705
1029.754	0.11409222
1029.91	0.10862665
1030.067	0.10056819
1030.223	0.10045207
1030.379	0.1013921
1030.535	0.10499705
1030.691	0.11153164
1030.848	0.10705383
1031.004	0.10936177
1031.16	0.11496135
1031.316	0.11890429
1031.472	0.12438973
1031.628	0.12438341
1031.784	0.12188728
1031.94	0.12573248
1032.096	0.12235831
1032.252	0.1297626
1032.408	0.12782456
1032.564	0.13249542
1032.72	0.1355654
1032.876	0.13583406
1033.032	0.13836632
1033.188	0.1399657
1033.344	0.13287287
1033.5	0.1290347
1033.655	0.12113164
1033.811	0.11969211
1033.967	0.12443612
