Data from 0_1_mm_pl_10pc_Absorbance__0__16-29-05-607.txt Node

Date: Fri Feb 24 16:29:05 CET 2023
User: Ange
Spectrometer: FLMT08341
Trigger mode: 0
Integration Time (sec): 1.000000E-2
Scans to average: 400
Electric dark correction enabled: true
Nonlinearity correction enabled: false
Boxcar width: 3
XAxis mode: Wavelengths
Number of Pixels in Spectrum: 3648
>>>>>Begin Spectral Data<<<<<
345.271	-0.00479197
345.487	-0.01677119
345.704	-0.00759845
345.921	-0.01079064
346.137	-0.0159141
346.354	-0.02076457
346.571	-0.05176315
346.787	-0.07708187
347.004	-0.04365137
347.22	0.07216975
347.437	0.14251607
347.653	0.20795484
347.87	-0.09794571
348.086	0.19063642
348.303	0.54341631
348.519	0.16801531
348.736	0.16991732
348.952	0.17097579
349.169	0.17061589
349.385	0.17637207
349.601	0.1735138
349.818	0.17250247
350.034	0.17180018
350.251	0.17086206
350.467	0.16991817
350.683	0.1670804
350.9	0.16436385
351.116	0.16277552
351.332	0.16078984
351.549	0.1602995
351.765	0.16276707
351.981	0.16461418
352.197	0.1680644
352.414	0.17205232
352.63	0.17472233
352.846	0.17585858
353.062	0.175287
353.278	0.17185359
353.495	0.17446254
353.711	0.17413682
353.927	0.17325939
354.143	0.17136314
354.359	0.1713835
354.575	0.17011399
354.792	0.17389006
355.008	0.1709698
355.224	0.16887998
355.44	0.16689103
355.656	0.16458359
355.872	0.16494178
356.088	0.16808524
356.304	0.16690353
356.52	0.16662133
356.736	0.16772657
356.952	0.16825386
357.168	0.16898755
357.384	0.16843741
357.6	0.16453644
357.816	0.16404117
358.032	0.16493711
358.248	0.16582474
358.464	0.16492638
358.679	0.16558974
358.895	0.16616261
359.111	0.16663625
359.327	0.16453422
359.543	0.16400717
359.759	0.16492817
359.974	0.16377779
360.19	0.1607357
360.406	0.15958693
360.622	0.15882069
360.838	0.1568757
361.053	0.15568438
361.269	0.1537601
361.485	0.15378192
361.701	0.15493962
361.916	0.15285825
362.132	0.15324986
362.348	0.15263445
362.563	0.15214541
362.779	0.1511133
362.995	0.15062259
363.21	0.15146568
363.426	0.1513553
363.641	0.14947559
363.857	0.1505768
364.073	0.14884882
364.288	0.14677508
364.504	0.14812699
364.719	0.14605865
364.935	0.14483072
365.15	0.14452295
365.366	0.14337074
365.581	0.14222655
365.797	0.14215275
366.012	0.14006004
366.228	0.13829996
366.443	0.1389959
366.658	0.13746131
366.874	0.13588145
367.089	0.13682166
367.305	0.13553087
367.52	0.13524115
367.735	0.13477621
367.951	0.13237641
368.166	0.13281363
368.381	0.13320066
368.597	0.13169635
368.812	0.13242026
369.027	0.1310103
369.243	0.13074409
369.458	0.13148124
369.673	0.13049616
369.888	0.12943039
370.104	0.12860015
370.319	0.12805698
370.534	0.12747333
370.749	0.12730555
370.964	0.12626675
371.179	0.12612751
371.395	0.12510121
371.61	0.12481494
371.825	0.12298657
372.04	0.12225894
372.255	0.12129678
372.47	0.12125609
372.685	0.11902931
372.9	0.11915891
373.115	0.11794728
373.33	0.11768007
373.545	0.11772154
373.76	0.11667986
373.975	0.11499725
374.19	0.11444986
374.405	0.11309227
374.62	0.11359679
374.835	0.11359766
375.05	0.11268249
375.265	0.11213336
375.48	0.11172248
375.695	0.1124917
375.91	0.11148768
376.125	0.1100239
376.339	0.10830705
376.554	0.10653763
376.769	0.10610859
376.984	0.10524753
377.199	0.10459001
377.414	0.10398414
377.628	0.10364486
377.843	0.10363232
378.058	0.1038762
378.273	0.1036129
378.487	0.10331248
378.702	0.10262829
378.917	0.10216164
379.131	0.10056698
379.346	0.09923335
379.561	0.09820156
379.775	0.09704176
379.99	0.09582135
380.205	0.0943032
380.419	0.09391761
380.634	0.09365655
380.848	0.0935298
381.063	0.09327573
381.278	0.09302536
381.492	0.09266249
381.707	0.09242754
381.921	0.0915415
382.136	0.09103206
382.35	0.09022431
382.565	0.0894522
382.779	0.08824826
382.994	0.08773984
383.208	0.08658775
383.422	0.08645261
383.637	0.08617426
383.851	0.08569058
384.066	0.08554316
384.28	0.08593203
384.494	0.08525517
384.709	0.08547318
384.923	0.08464192
385.137	0.08356743
385.352	0.08315094
385.566	0.08233148
385.78	0.0815421
385.995	0.08117094
386.209	0.08064427
386.423	0.08048402
386.637	0.08019568
386.852	0.07908211
387.066	0.07831106
387.28	0.07750939
387.494	0.07670194
387.708	0.0758093
387.923	0.07509431
388.137	0.07515006
388.351	0.07556147
388.565	0.07527493
388.779	0.07502213
388.993	0.07514179
389.207	0.07481695
389.421	0.07415344
389.635	0.07335891
389.85	0.07265457
390.064	0.07274567
390.278	0.07247617
390.492	0.07194446
390.706	0.07206178
390.92	0.07229684
391.134	0.07220664
391.348	0.07202178
391.561	0.07132896
391.775	0.0709954
391.989	0.0702462
392.203	0.0690024
392.417	0.06840747
392.631	0.06812126
392.845	0.06740703
393.059	0.0673738
393.273	0.06654061
393.486	0.06616497
393.7	0.06628917
393.914	0.06632165
394.128	0.0657466
394.342	0.06553669
394.555	0.06498852
394.769	0.06485151
394.983	0.06476926
395.197	0.0645377
395.41	0.06358212
395.624	0.06293232
395.838	0.0627507
396.051	0.06270564
396.265	0.06251993
396.479	0.06249285
396.692	0.06244992
396.906	0.06216791
397.12	0.06235056
397.333	0.06186631
397.547	0.06135869
397.76	0.06139393
397.974	0.06100536
398.187	0.06049325
398.401	0.06046495
398.614	0.06007552
398.828	0.06000042
399.041	0.05943495
399.255	0.05887203
399.468	0.0586366
399.682	0.05846803
399.895	0.0581107
400.109	0.05790166
400.322	0.05739949
400.536	0.05736002
400.749	0.05720058
400.962	0.05713153
401.176	0.05674303
401.389	0.05671105
401.602	0.05643311
401.816	0.05658456
402.029	0.05625801
402.242	0.0560408
402.456	0.05556602
402.669	0.05529636
402.882	0.0549725
403.095	0.0546286
403.309	0.05446144
403.522	0.05412743
403.735	0.053819
403.948	0.05379277
404.161	0.05382468
404.375	0.05360065
404.588	0.05363982
404.801	0.05323383
405.014	0.053451
405.227	0.05340019
405.44	0.05328945
405.653	0.05313222
405.866	0.05261873
406.079	0.05226124
406.293	0.05219296
406.506	0.05193337
406.719	0.05173341
406.932	0.05148202
407.145	0.05105207
407.358	0.05097392
407.571	0.0504773
407.784	0.0501904
407.996	0.04997383
408.209	0.04973482
408.422	0.04931415
408.635	0.04926499
408.848	0.04927226
409.061	0.04938962
409.274	0.04917333
409.487	0.0491623
409.7	0.04914688
409.912	0.04905101
410.125	0.0489299
410.338	0.04869117
410.551	0.04857379
410.764	0.04838247
410.976	0.04784374
411.189	0.04764997
411.402	0.04749103
411.615	0.04734766
411.827	0.0472665
412.04	0.04732607
412.253	0.04742541
412.465	0.04745401
412.678	0.04709974
412.891	0.04727836
413.103	0.04695917
413.316	0.04670974
413.529	0.04653002
413.741	0.04627047
413.954	0.04612026
414.166	0.04602125
414.379	0.04574893
414.591	0.04587983
414.804	0.04593469
415.016	0.04575165
415.229	0.0455664
415.441	0.04545004
415.654	0.04559749
415.866	0.04557337
416.079	0.0454561
416.291	0.04546548
416.504	0.04524968
416.716	0.04528717
416.928	0.04540125
417.141	0.04518538
417.353	0.04496688
417.566	0.04479565
417.778	0.04479295
417.99	0.04461226
418.203	0.04437104
418.415	0.04416999
418.627	0.04415953
418.839	0.0440905
419.052	0.04405837
419.264	0.04397939
419.476	0.04400943
419.688	0.04408311
419.901	0.04386302
420.113	0.0436169
420.325	0.04347744
420.537	0.04346702
420.749	0.04327502
420.961	0.04323448
421.174	0.04297579
421.386	0.04275584
421.598	0.04260482
421.81	0.04259499
422.022	0.04246493
422.234	0.0423958
422.446	0.04240754
422.658	0.04246764
422.87	0.04256445
423.082	0.04261836
423.294	0.04238989
423.506	0.04232349
423.718	0.04210791
423.93	0.04202449
424.142	0.0418386
424.354	0.04182273
424.566	0.04168237
424.778	0.04158959
424.99	0.04139778
425.202	0.04141854
425.414	0.04119517
425.625	0.0412471
425.837	0.04118726
426.049	0.04134795
426.261	0.04137214
426.473	0.04131361
426.684	0.0411519
426.896	0.04128837
427.108	0.04113506
427.32	0.0411861
427.531	0.04095287
427.743	0.04105293
427.955	0.0410712
428.167	0.04119743
428.378	0.04110258
428.59	0.04121601
428.802	0.04127075
429.013	0.04127974
429.225	0.04121211
429.436	0.04148191
429.648	0.04149315
429.86	0.04153068
430.071	0.04159012
430.283	0.04136509
430.494	0.04159236
430.706	0.04152364
430.917	0.04132629
431.129	0.04111525
431.34	0.0411921
431.552	0.04104391
431.763	0.04097232
431.975	0.04072166
432.186	0.04073958
432.398	0.04055077
432.609	0.04050012
432.821	0.04029797
433.032	0.04015765
433.243	0.04018157
433.455	0.04027547
433.666	0.04009848
433.877	0.04011261
434.089	0.0401254
434.3	0.04009234
434.511	0.04004085
434.723	0.03991759
434.934	0.03971003
435.145	0.03964149
435.356	0.03976019
435.568	0.03987045
435.779	0.03981764
435.99	0.03989725
436.201	0.04001799
436.412	0.03980396
436.624	0.039932
436.835	0.03970296
437.046	0.03950569
437.257	0.0394973
437.468	0.03941164
437.679	0.03912737
437.89	0.03923075
438.101	0.03907057
438.312	0.03898087
438.523	0.03888041
438.734	0.03876443
438.945	0.03871576
439.156	0.03871971
439.367	0.03892795
439.578	0.0390909
439.789	0.03910621
440	0.03914385
440.211	0.03911631
440.422	0.03907905
440.633	0.03918512
440.844	0.03887769
441.055	0.0387781
441.266	0.03875247
441.477	0.03871769
441.687	0.03865535
441.898	0.03873262
442.109	0.03854961
442.32	0.03860634
442.531	0.03843332
442.741	0.03842232
442.952	0.03831581
443.163	0.03830444
443.374	0.03827892
443.584	0.03831542
443.795	0.0382953
444.006	0.0384253
444.216	0.03843598
444.427	0.03853851
444.638	0.03858884
444.848	0.03861416
445.059	0.0388107
445.27	0.03875855
445.48	0.03860004
445.691	0.03855321
445.901	0.03845993
446.112	0.03851551
446.323	0.03847165
446.533	0.03828313
446.744	0.03820594
446.954	0.03821437
447.165	0.03803533
447.375	0.03808127
447.586	0.0379953
447.796	0.03780497
448.006	0.03787504
448.217	0.03792851
448.427	0.03792554
448.638	0.03808884
448.848	0.03800062
449.058	0.03805525
449.269	0.03823249
449.479	0.03817256
449.689	0.03812425
449.9	0.03820914
450.11	0.03828318
450.32	0.03838125
450.531	0.03841208
450.741	0.03832395
450.951	0.03833062
451.161	0.03845286
451.372	0.03856024
451.582	0.03855009
451.792	0.03857277
452.002	0.03849205
452.212	0.03858339
452.422	0.03867284
452.633	0.03864549
452.843	0.03852513
453.053	0.03845939
453.263	0.03847979
453.473	0.03854713
453.683	0.03845504
453.893	0.03840747
454.103	0.03845008
454.313	0.03843997
454.523	0.03850721
454.733	0.03842958
454.943	0.03833586
455.153	0.03823538
455.363	0.03816504
455.573	0.03811666
455.783	0.03807641
455.993	0.03798737
456.203	0.03808746
456.413	0.03812754
456.623	0.03824093
456.833	0.03821347
457.042	0.03817064
457.252	0.03832128
457.462	0.03827034
457.672	0.03827531
457.882	0.03838645
458.091	0.03840375
458.301	0.03849865
458.511	0.03849227
458.721	0.03844977
458.931	0.0385878
459.14	0.03848055
459.35	0.0384429
459.56	0.03840001
459.769	0.03848998
459.979	0.03857945
460.189	0.03849076
460.398	0.03854368
460.608	0.03865592
460.817	0.03858047
461.027	0.03861673
461.237	0.03858928
461.446	0.03868929
461.656	0.0388054
461.865	0.03871581
462.075	0.03869731
462.284	0.03873793
462.494	0.0388447
462.703	0.03877383
462.913	0.03872885
463.122	0.03869341
463.332	0.03883147
463.541	0.03892661
463.751	0.0389584
463.96	0.03897592
464.169	0.03898261
464.379	0.03893841
464.588	0.03897019
464.797	0.03901134
465.007	0.03884879
465.216	0.0388864
465.425	0.03885342
465.635	0.03885241
465.844	0.03885734
466.053	0.03896215
466.263	0.03891946
466.472	0.03907553
466.681	0.03921654
466.89	0.03930016
467.099	0.03943338
467.309	0.03949602
467.518	0.03947035
467.727	0.03951907
467.936	0.03939725
468.145	0.03925719
468.354	0.03927929
468.563	0.03925358
468.772	0.03930042
468.982	0.03928896
469.191	0.03930696
469.4	0.03949484
469.609	0.0395464
469.818	0.03954426
470.027	0.03961372
470.236	0.03954507
470.445	0.03955832
470.654	0.03966139
470.863	0.03965857
471.072	0.03976014
471.28	0.0397485
471.489	0.03978562
471.698	0.03986024
471.907	0.03995301
472.116	0.03980823
472.325	0.03979107
472.534	0.03978805
472.743	0.03985129
472.951	0.03992106
473.16	0.04004071
473.369	0.04006971
473.578	0.0402467
473.786	0.04033335
473.995	0.04035907
474.204	0.04045379
474.413	0.04059083
474.621	0.0407172
474.83	0.04074371
475.039	0.04072218
475.247	0.04082073
475.456	0.04085373
475.665	0.04091775
475.873	0.04087602
476.082	0.04087807
476.291	0.04087505
476.499	0.04097369
476.708	0.04092541
476.916	0.04103377
477.125	0.04094268
477.333	0.04102693
477.542	0.04106287
477.75	0.04114616
477.959	0.04114378
478.167	0.04121833
478.376	0.0412563
478.584	0.04138115
478.793	0.04145127
479.001	0.04142309
479.209	0.04150549
479.418	0.04149513
479.626	0.04155801
479.834	0.04161189
480.043	0.04175765
480.251	0.04171953
480.459	0.04181174
480.668	0.04182541
480.876	0.04196853
481.084	0.04203001
481.293	0.04209786
481.501	0.04208543
481.709	0.04216171
481.917	0.04220992
482.125	0.04233964
482.334	0.04242133
482.542	0.04252161
482.75	0.04251633
482.958	0.04260305
483.166	0.0427454
483.374	0.04282818
483.583	0.04282372
483.791	0.04289034
483.999	0.04297701
484.207	0.04308305
484.415	0.04311436
484.623	0.04310557
484.831	0.04315963
485.039	0.04324249
485.247	0.04329008
485.455	0.04331904
485.663	0.0433667
485.871	0.04347814
486.079	0.04349468
486.287	0.04357637
486.495	0.04366786
486.702	0.04373682
486.91	0.04378615
487.118	0.0439246
487.326	0.04400877
487.534	0.04413207
487.742	0.04419328
487.95	0.04430166
488.157	0.04441729
488.365	0.0445605
488.573	0.04462571
488.781	0.04468426
488.988	0.04487325
489.196	0.04498004
489.404	0.04511453
489.612	0.04517418
489.819	0.04524132
490.027	0.04535107
490.235	0.04543001
490.442	0.04538593
490.65	0.04546924
490.857	0.04549502
491.065	0.04555331
491.273	0.04562358
491.48	0.04565099
491.688	0.04571609
491.895	0.04577176
492.103	0.0458877
492.31	0.04594726
492.518	0.04604559
492.725	0.04606969
492.933	0.04614999
493.14	0.04625578
493.348	0.04644403
493.555	0.0464972
493.763	0.04653406
493.97	0.04657298
494.177	0.04677346
494.385	0.04685331
494.592	0.04693696
494.8	0.04696953
495.007	0.0470747
495.214	0.04720737
495.422	0.04731452
495.629	0.04734456
495.836	0.04742052
496.043	0.04750533
496.251	0.04760705
496.458	0.04766709
496.665	0.04780143
496.872	0.04794687
497.08	0.04806562
497.287	0.04821202
497.494	0.04829984
497.701	0.04843956
497.908	0.04856224
498.115	0.0486481
498.322	0.04871309
498.53	0.04872333
498.737	0.04878826
498.944	0.04891547
499.151	0.04901429
499.358	0.04909187
499.565	0.04919078
499.772	0.04928769
499.979	0.04941776
500.186	0.04954028
500.393	0.0496604
500.6	0.04972314
500.807	0.04980725
501.014	0.04988653
501.221	0.05005824
501.427	0.05018587
501.634	0.05022794
501.841	0.05031328
502.048	0.05038599
502.255	0.05046673
502.462	0.05058995
502.669	0.05063939
502.875	0.05075282
503.082	0.05093614
503.289	0.05097825
503.496	0.05110344
503.702	0.05126422
503.909	0.05140287
504.116	0.05156048
504.323	0.05163845
504.529	0.05177403
504.736	0.05192835
504.943	0.05202265
505.149	0.05213492
505.356	0.05221773
505.563	0.05227651
505.769	0.05238199
505.976	0.05246966
506.182	0.05257941
506.389	0.05274444
506.595	0.05290541
506.802	0.05301219
507.008	0.0531782
507.215	0.0533335
507.421	0.05346127
507.628	0.05360391
507.834	0.05365685
508.041	0.0537321
508.247	0.05383842
508.454	0.0539414
508.66	0.05406217
508.866	0.05416074
509.073	0.05428793
509.279	0.05446764
509.486	0.05464041
509.692	0.05472349
509.898	0.05485421
510.105	0.0549953
510.311	0.05511768
510.517	0.05526254
510.723	0.05536357
510.93	0.05547036
511.136	0.05564154
511.342	0.05577671
511.548	0.05587656
511.754	0.0559957
511.961	0.05606518
512.167	0.05616741
512.373	0.05627103
512.579	0.0564576
512.785	0.05659435
512.991	0.05676681
513.197	0.05691957
513.404	0.0570632
513.61	0.05722774
513.816	0.05739258
514.022	0.05747612
514.228	0.05759191
514.434	0.05770294
514.64	0.05781539
514.846	0.05793192
515.052	0.05808805
515.258	0.05819795
515.464	0.05831409
515.669	0.05843722
515.875	0.05855156
516.081	0.05869584
516.287	0.05888972
516.493	0.05901907
516.699	0.05919129
516.905	0.05937686
517.111	0.05954577
517.316	0.05968667
517.522	0.05985693
517.728	0.06002215
517.934	0.06013757
518.139	0.06023995
518.345	0.06033789
518.551	0.0604334
518.757	0.060589
518.962	0.06069597
519.168	0.06076953
519.374	0.06091122
519.579	0.06108467
519.785	0.06125702
519.991	0.06144625
520.196	0.06160768
520.402	0.0618041
520.607	0.06201589
520.813	0.06221193
521.018	0.06232001
521.224	0.06248145
521.429	0.06265604
521.635	0.06282586
521.84	0.06298957
522.046	0.06315693
522.251	0.06328195
522.457	0.06339592
522.662	0.06355631
522.868	0.06369876
523.073	0.06379856
523.279	0.06387931
523.484	0.06398499
523.689	0.06414141
523.895	0.06433704
524.1	0.06444629
524.305	0.06455035
524.511	0.06472408
524.716	0.06490912
524.921	0.0650559
525.126	0.06524042
525.332	0.06543595
525.537	0.06560363
525.742	0.06581198
525.947	0.06596774
526.153	0.06608954
526.358	0.06622167
526.563	0.06634547
526.768	0.06647812
526.973	0.06665427
527.178	0.06678868
527.383	0.06694287
527.588	0.06713257
527.794	0.06735757
527.999	0.06752899
528.204	0.0676643
528.409	0.067817
528.614	0.06794418
528.819	0.06807271
529.024	0.06817744
529.229	0.06824419
529.434	0.06838887
529.639	0.0685281
529.843	0.068683
530.048	0.06882643
530.253	0.06901871
530.458	0.0692161
530.663	0.06946692
530.868	0.06963124
531.073	0.06982444
531.278	0.069991
531.482	0.07020342
531.687	0.07037858
531.892	0.0704901
532.097	0.07057619
532.302	0.07072959
532.506	0.07086012
532.711	0.07099594
532.916	0.07111632
533.12	0.07120509
533.325	0.07136619
533.53	0.07155685
533.734	0.07173444
533.939	0.07189861
534.144	0.07206284
534.348	0.07221198
534.553	0.07241208
534.757	0.07262967
534.962	0.07278798
535.167	0.0729498
535.371	0.07317565
535.576	0.07336114
535.78	0.07360033
535.985	0.073818
536.189	0.0739601
536.394	0.0740831
536.598	0.07422751
536.803	0.07432386
537.007	0.07447557
537.211	0.07457493
537.416	0.0746906
537.62	0.07488299
537.825	0.07509375
538.029	0.07528596
538.233	0.07550278
538.438	0.07569427
538.642	0.07587987
538.846	0.07609788
539.05	0.07625888
539.255	0.07644214
539.459	0.07665025
539.663	0.07680859
539.867	0.07697717
540.072	0.07718809
540.276	0.07735713
540.48	0.07758191
540.684	0.07777554
540.888	0.07796257
541.092	0.07819201
541.297	0.07837333
541.501	0.07850767
541.705	0.07867431
541.909	0.0787872
542.113	0.07891263
542.317	0.07906641
542.521	0.07921536
542.725	0.07938851
542.929	0.07959899
543.133	0.07977004
543.337	0.07995801
543.541	0.08017265
543.745	0.08030788
543.949	0.08046532
544.153	0.08065621
544.357	0.08085159
544.56	0.08106104
544.764	0.08123863
544.968	0.08137945
545.172	0.08148171
545.376	0.0815787
545.58	0.08171111
545.783	0.08183492
545.987	0.0820015
546.191	0.08217881
546.395	0.08236214
546.598	0.08259597
546.802	0.08283646
547.006	0.08296828
547.21	0.0831554
547.413	0.08326545
547.617	0.083473
547.821	0.08367514
548.024	0.08387569
548.228	0.08404387
548.431	0.08424724
548.635	0.08436522
548.839	0.08451574
549.042	0.08463489
549.246	0.08472126
549.449	0.08488495
549.653	0.08504894
549.856	0.08524534
550.06	0.08546169
550.263	0.0857027
550.467	0.08590419
550.67	0.08613295
550.874	0.08631207
551.077	0.08651758
551.28	0.08670966
551.484	0.08685996
551.687	0.08696037
551.891	0.08712639
552.094	0.08729615
552.297	0.08753592
552.501	0.08770994
552.704	0.08784173
552.907	0.08802635
553.11	0.08827244
553.314	0.08844644
553.517	0.08861439
553.72	0.08871273
553.923	0.08888034
554.127	0.08909549
554.33	0.08925372
554.533	0.0893876
554.736	0.08954071
554.939	0.08972944
555.142	0.08991426
555.345	0.09004711
555.549	0.09020176
555.752	0.09039289
555.955	0.09056968
556.158	0.0907393
556.361	0.09087968
556.564	0.0910346
556.767	0.09123506
556.97	0.09142589
557.173	0.09158324
557.376	0.09178523
557.579	0.09193915
557.782	0.09216268
557.984	0.09233911
558.187	0.09249763
558.39	0.09264829
558.593	0.09282197
558.796	0.09292045
558.999	0.09303649
559.202	0.09317399
559.404	0.09328593
559.607	0.09345652
559.81	0.09357908
560.013	0.0937184
560.216	0.09391321
560.418	0.09413785
560.621	0.09431102
560.824	0.09452555
561.026	0.09475795
561.229	0.09495727
561.432	0.09520559
561.634	0.09537016
561.837	0.09559405
562.04	0.09575235
562.242	0.09591909
562.445	0.09602451
562.647	0.09616639
562.85	0.0962402
563.053	0.09640761
563.255	0.09647378
563.458	0.09663415
563.66	0.09680285
563.863	0.09701826
564.065	0.09722161
564.268	0.09739341
564.47	0.09765995
564.672	0.09788806
564.875	0.09805
565.077	0.09821038
565.28	0.09834518
565.482	0.09850079
565.684	0.09875053
565.887	0.09879137
566.089	0.09891346
566.291	0.09914161
566.494	0.09932207
566.696	0.09953076
566.898	0.09962498
567.1	0.09972651
567.303	0.0999564
567.505	0.10014935
567.707	0.10020642
567.909	0.10030351
568.111	0.10037441
568.314	0.10059129
568.516	0.1007702
568.718	0.10088152
568.92	0.10101732
569.122	0.10121462
569.324	0.10140127
569.526	0.1015507
569.728	0.101666
569.93	0.10177323
570.132	0.10189769
570.334	0.10203329
570.536	0.10212855
570.738	0.10222414
570.94	0.10228475
571.142	0.10245595
571.344	0.10257137
571.546	0.10269397
571.748	0.10284676
571.95	0.10304147
572.152	0.10323285
572.354	0.10348703
572.555	0.10363762
572.757	0.10380806
572.959	0.10395329
573.161	0.10412879
573.363	0.10425338
573.564	0.10442555
573.766	0.10450201
573.968	0.10470372
574.17	0.1048638
574.371	0.10500981
574.573	0.1051368
574.775	0.1052454
574.976	0.10530765
575.178	0.10546357
575.38	0.10548134
575.581	0.10554755
575.783	0.10572247
575.985	0.10589737
576.186	0.10603319
576.388	0.10620488
576.589	0.10634052
576.791	0.10656411
576.992	0.10676919
577.194	0.10684453
577.395	0.10696696
577.597	0.10718851
577.798	0.10731052
578	0.10744762
578.201	0.10758871
578.402	0.10774673
578.604	0.10789132
578.805	0.10803687
579.007	0.10811716
579.208	0.10832278
579.409	0.10844282
579.611	0.10858923
579.812	0.1087122
580.013	0.10888554
580.215	0.10891203
580.416	0.10905201
580.617	0.10910116
580.818	0.10923495
581.019	0.10931982
581.221	0.1094429
581.422	0.10958889
581.623	0.10977475
581.824	0.10986168
582.025	0.11001957
582.226	0.11015176
582.428	0.11032485
582.629	0.11043778
582.83	0.11057819
583.031	0.11070664
583.232	0.11086066
583.433	0.1109986
583.634	0.11111338
583.835	0.11118194
584.036	0.11124036
584.237	0.11129548
584.438	0.11141545
584.639	0.11149146
584.84	0.11161783
585.041	0.11176682
585.242	0.11185211
585.442	0.1120604
585.643	0.11225733
585.844	0.11238484
586.045	0.11254459
586.246	0.11262059
586.447	0.11272453
586.647	0.11286274
586.848	0.11290202
587.049	0.11297969
587.25	0.11306233
587.45	0.11316233
587.651	0.11333271
587.852	0.11346144
588.053	0.1137067
588.253	0.1139228
588.454	0.11408325
588.655	0.11424953
588.855	0.11440069
589.056	0.11456453
589.256	0.11471943
589.457	0.11475533
589.658	0.11486645
589.858	0.11496566
590.059	0.11512906
590.259	0.11529582
590.46	0.11540477
590.66	0.11552946
590.861	0.1157196
591.061	0.11587221
591.262	0.11605708
591.462	0.11616377
591.662	0.11624651
591.863	0.11631858
592.063	0.11643877
592.264	0.11652898
592.464	0.1166521
592.664	0.11676
592.865	0.1169576
593.065	0.11705388
593.265	0.11725379
593.465	0.117351
593.666	0.11747039
593.866	0.11757002
594.066	0.11773883
594.266	0.11778897
594.467	0.11796236
594.667	0.11803782
594.867	0.11824411
595.067	0.11828545
595.267	0.11833313
595.467	0.11835616
595.668	0.11848344
595.868	0.11858645
596.068	0.1186809
596.268	0.11871327
596.468	0.11889925
596.668	0.11906037
596.868	0.11924713
597.068	0.11933833
597.268	0.11947516
597.468	0.11958671
597.668	0.11968818
597.868	0.11982551
598.068	0.12000528
598.268	0.12007246
598.467	0.12023669
598.667	0.1202903
598.867	0.12042479
599.067	0.12060389
599.267	0.1206758
599.467	0.12075063
599.667	0.12083802
599.866	0.12096986
600.066	0.12109843
600.266	0.1212031
600.466	0.12129902
600.665	0.12142122
600.865	0.12155271
601.065	0.12167687
601.264	0.12173476
601.464	0.12182327
601.664	0.12199309
601.863	0.12211057
602.063	0.12226271
602.263	0.12228657
602.462	0.12245683
602.662	0.12257244
602.861	0.1227684
603.061	0.12281918
603.26	0.12297954
603.46	0.12303932
603.659	0.12324004
603.859	0.12329141
604.058	0.12333434
604.258	0.12348386
604.457	0.12365253
604.657	0.12363718
604.856	0.12374246
605.056	0.12388963
605.255	0.12405344
605.454	0.12429802
605.654	0.12431171
605.853	0.12439412
606.052	0.12458453
606.252	0.12472334
606.451	0.12480074
606.65	0.12489753
606.849	0.12488591
607.049	0.12503962
607.248	0.12517689
607.447	0.12525095
607.646	0.12536414
607.845	0.12546155
608.045	0.12548408
608.244	0.12566451
608.443	0.12573713
608.642	0.12581352
608.841	0.12594685
609.04	0.1260028
609.239	0.12612039
609.438	0.12623336
609.637	0.12637193
609.836	0.12654222
610.035	0.12670893
610.234	0.12684648
610.433	0.12703318
610.632	0.1271363
610.831	0.12741825
611.03	0.1274752
611.229	0.12764341
611.428	0.12780855
611.627	0.12792221
611.826	0.1280495
612.025	0.12826833
612.224	0.1282894
612.422	0.12847816
612.621	0.12858115
612.82	0.1287089
613.019	0.12886664
613.218	0.12904403
613.416	0.12903724
613.615	0.1292444
613.814	0.12937767
614.012	0.12948815
614.211	0.12947129
614.41	0.12962749
614.608	0.12972507
614.807	0.12991005
615.006	0.13006924
615.204	0.13019276
615.403	0.13037007
615.602	0.13061434
615.8	0.13080865
615.999	0.1309044
616.197	0.13106496
616.396	0.13119588
616.594	0.13131503
616.793	0.13148003
616.991	0.13157749
617.19	0.13153274
617.388	0.13173535
617.586	0.1318754
617.785	0.13195869
617.983	0.13210888
618.182	0.1321701
618.38	0.1322551
618.578	0.13244706
618.777	0.13255838
618.975	0.13268242
619.173	0.13281786
619.372	0.13292747
619.57	0.13300887
619.768	0.13324731
619.966	0.13343466
620.165	0.13355311
620.363	0.13371187
620.561	0.13376028
620.759	0.13392859
620.957	0.13415731
621.155	0.13430029
621.354	0.13432843
621.552	0.1345296
621.75	0.134643
621.948	0.13490245
622.146	0.13508444
622.344	0.1351989
622.542	0.13532243
622.74	0.13560244
622.938	0.13565274
623.136	0.13588949
623.334	0.13609793
623.532	0.13611233
623.73	0.13623224
623.928	0.13645162
624.126	0.13658643
624.324	0.13684324
624.522	0.13689603
624.719	0.13699681
624.917	0.13729088
625.115	0.13738433
625.313	0.13748824
625.511	0.13764948
625.708	0.13764208
625.906	0.13775665
626.104	0.13786668
626.302	0.13811462
626.499	0.13836067
626.697	0.13852345
626.895	0.13860696
627.093	0.13884883
627.29	0.1391159
627.488	0.13927866
627.686	0.13935246
627.883	0.13946982
628.081	0.1395119
628.278	0.13983135
628.476	0.13992518
628.673	0.14005863
628.871	0.14024119
629.068	0.14034007
629.266	0.14052736
629.463	0.14064045
629.661	0.14067599
629.858	0.14081483
630.056	0.14089006
630.253	0.14094709
630.451	0.14113553
630.648	0.14128073
630.845	0.14147025
631.043	0.14158662
631.24	0.14181961
631.438	0.14202834
631.635	0.14223089
631.832	0.14225705
632.029	0.14239084
632.227	0.14257916
632.424	0.14276651
632.621	0.14289734
632.818	0.1429858
633.016	0.14319108
633.213	0.14338423
633.41	0.14359944
633.607	0.14376366
633.804	0.14393586
634.001	0.14404266
634.199	0.1442997
634.396	0.14442516
634.593	0.14454049
634.79	0.14467678
634.987	0.14488061
635.184	0.1450239
635.381	0.14528731
635.578	0.14547314
635.775	0.14560943
635.972	0.14578872
636.169	0.14591255
636.366	0.14592983
636.563	0.14603391
636.76	0.14605546
636.957	0.14616292
637.153	0.14622714
637.35	0.14644804
637.547	0.1465948
637.744	0.14682116
637.941	0.14703092
638.138	0.14730119
638.334	0.14739068
638.531	0.14763564
638.728	0.14776665
638.925	0.14805136
639.121	0.14824025
639.318	0.14837158
639.515	0.14844148
639.711	0.14868761
639.908	0.1487656
640.105	0.14888082
640.301	0.14885367
640.498	0.14891934
640.695	0.14910304
640.891	0.14922321
641.088	0.14932406
641.284	0.14952831
641.481	0.14965457
641.677	0.14978636
641.874	0.14987379
642.07	0.15000924
642.267	0.15022679
642.463	0.15033133
642.66	0.15051034
642.856	0.15063865
643.053	0.15077127
643.249	0.15107541
643.445	0.15121782
643.642	0.15133026
643.838	0.15149834
644.034	0.15159628
644.231	0.15173804
644.427	0.1519511
644.623	0.15202627
644.82	0.1521806
645.016	0.1523402
645.212	0.15241612
645.408	0.1525808
645.604	0.15289041
645.801	0.15308834
645.997	0.15326985
646.193	0.15336029
646.389	0.1535892
646.585	0.15379092
646.781	0.15400757
646.977	0.15404202
647.173	0.15408932
647.37	0.15418555
647.566	0.15433958
647.762	0.15439187
647.958	0.15457429
648.154	0.154638
648.35	0.15481781
648.546	0.15500168
648.742	0.15526726
648.937	0.15528216
649.133	0.15548513
649.329	0.15567735
649.525	0.15580654
649.721	0.15592741
649.917	0.15616403
650.113	0.15618386
650.309	0.15656317
650.504	0.15667002
650.7	0.15672923
650.896	0.15696542
651.092	0.15710882
651.287	0.15719899
651.483	0.15745119
651.679	0.15750845
651.875	0.15771605
652.07	0.1578261
652.266	0.15788018
652.462	0.15801577
652.657	0.15814721
652.853	0.15823528
653.048	0.15836812
653.244	0.15839597
653.44	0.15856284
653.635	0.15867675
653.831	0.1589176
654.026	0.1591337
654.222	0.15930568
654.417	0.15950923
654.613	0.15973116
654.808	0.15989142
655.004	0.16012529
655.199	0.16020431
655.394	0.16028821
655.59	0.16045811
655.785	0.1605086
655.98	0.16063015
656.176	0.1607182
656.371	0.16086861
656.566	0.16102428
656.762	0.16110899
656.957	0.16122249
657.152	0.1613683
657.348	0.16150665
657.543	0.16172911
657.738	0.16192059
657.933	0.16203044
658.128	0.16223717
658.324	0.16232274
658.519	0.16252548
658.714	0.16269458
658.909	0.16279111
659.104	0.16290126
659.299	0.16305024
659.494	0.16314929
659.689	0.16336625
659.884	0.1634707
660.079	0.16353306
660.274	0.16367533
660.469	0.16376966
660.664	0.16390789
660.859	0.16407502
661.054	0.16417571
661.249	0.16429639
661.444	0.16450163
661.639	0.16465394
661.834	0.1647644
662.029	0.16492924
662.224	0.16504665
662.418	0.16519792
662.613	0.16538143
662.808	0.16550124
663.003	0.16564836
663.198	0.16583733
663.392	0.16588559
663.587	0.16614996
663.782	0.16622424
663.977	0.16635158
664.171	0.16647958
664.366	0.16661684
664.561	0.16676461
664.755	0.16702476
664.95	0.16697236
665.144	0.16706791
665.339	0.16720749
665.534	0.167358
665.728	0.16746885
665.923	0.16763208
666.117	0.16771765
666.312	0.16792476
666.506	0.16816756
666.701	0.16824429
666.895	0.16839464
667.09	0.16856024
667.284	0.16870282
667.479	0.16882072
667.673	0.16893804
667.867	0.16907357
668.062	0.16914418
668.256	0.16920806
668.45	0.16933046
668.645	0.16932932
668.839	0.16940461
669.033	0.16948276
669.228	0.16953999
669.422	0.16974525
669.616	0.16988509
669.81	0.17003838
670.004	0.17019936
670.199	0.17041308
670.393	0.17058187
670.587	0.17077112
670.781	0.17096668
670.975	0.17116238
671.169	0.17126063
671.363	0.17136382
671.558	0.17150728
671.752	0.17170634
671.946	0.17184853
672.14	0.17194082
672.334	0.17197745
672.528	0.17223165
672.722	0.17233813
672.916	0.1724259
673.11	0.1724272
673.304	0.17259513
673.497	0.17266145
673.691	0.17288124
673.885	0.17284423
674.079	0.17301523
674.273	0.173095
674.467	0.17327406
674.661	0.17331662
674.854	0.17346103
675.048	0.1735779
675.242	0.17373348
675.436	0.17389735
675.629	0.17409328
675.823	0.17419009
676.017	0.17436838
676.211	0.17446377
676.404	0.17454668
676.598	0.17467292
676.792	0.1747639
676.985	0.17492174
677.179	0.17510465
677.372	0.17517146
677.566	0.17548369
677.76	0.17568791
677.953	0.17581036
678.147	0.17596345
678.34	0.17611134
678.534	0.17622506
678.727	0.17646148
678.921	0.17657673
679.114	0.17659419
679.307	0.1767184
679.501	0.17690002
679.694	0.17700336
679.888	0.17712396
680.081	0.17720978
680.274	0.17722143
680.468	0.17742536
680.661	0.17757942
680.854	0.17777498
681.048	0.17791902
681.241	0.17813743
681.434	0.17831291
681.627	0.17851866
681.821	0.17863745
682.014	0.17888906
682.207	0.17890803
682.4	0.17901975
682.593	0.17911856
682.786	0.17919938
682.98	0.17933127
683.173	0.17957571
683.366	0.1796163
683.559	0.17971417
683.752	0.17989765
683.945	0.18001865
684.138	0.18016797
684.331	0.18022691
684.524	0.18031157
684.717	0.18045936
684.91	0.18070546
685.103	0.18077512
685.296	0.18093587
685.489	0.18110114
685.682	0.18126071
685.874	0.18140368
686.067	0.18158443
686.26	0.18175169
686.453	0.18196433
686.646	0.18211416
686.839	0.18229396
687.031	0.18247433
687.224	0.18250115
687.417	0.18267923
687.61	0.18272662
687.802	0.18282772
687.995	0.18299181
688.188	0.18309434
688.38	0.1832453
688.573	0.18350417
688.766	0.1836225
688.958	0.18377366
689.151	0.18381612
689.343	0.18390858
689.536	0.18396843
689.729	0.18406442
689.921	0.18416742
690.114	0.18420465
690.306	0.18432728
690.499	0.18450812
690.691	0.18466211
690.884	0.18485314
691.076	0.18501494
691.268	0.18508945
691.461	0.18516394
691.653	0.18530971
691.846	0.18552195
692.038	0.18561896
692.23	0.18568156
692.423	0.18580157
692.615	0.18599287
692.807	0.18621223
692.999	0.18635411
693.192	0.18637373
693.384	0.18650355
693.576	0.18662652
693.768	0.18676102
693.961	0.18681045
694.153	0.18689766
694.345	0.18696186
694.537	0.18716584
694.729	0.18733816
694.921	0.18748698
695.113	0.18763684
695.305	0.18780685
695.498	0.18791574
695.69	0.18813202
695.882	0.18821951
696.074	0.18834434
696.266	0.1885247
696.458	0.18862647
696.65	0.18880995
696.842	0.18905237
697.033	0.18914589
697.225	0.18924522
697.417	0.18939977
697.609	0.18946408
697.801	0.1895429
697.993	0.18972052
698.185	0.18980216
698.376	0.18993531
698.568	0.19004685
698.76	0.19015924
698.952	0.19028632
699.144	0.19043371
699.335	0.19046543
699.527	0.19050703
699.719	0.19063776
699.91	0.19085575
700.102	0.19089621
700.294	0.19108338
700.485	0.19127756
700.677	0.19147636
700.869	0.1917304
701.06	0.19193315
701.252	0.19199067
701.443	0.19223408
701.635	0.1923646
701.826	0.19254265
702.018	0.19263343
702.209	0.19275015
702.401	0.19276732
702.592	0.19296725
702.784	0.19304109
702.975	0.19320474
703.166	0.19327845
703.358	0.19337863
703.549	0.19352746
703.741	0.19374738
703.932	0.19382096
704.123	0.19393482
704.315	0.19407373
704.506	0.19431642
704.697	0.19450946
704.888	0.19468832
705.08	0.19482535
705.271	0.19502702
705.462	0.19519262
705.653	0.19533135
705.844	0.19532058
706.035	0.19550246
706.227	0.19556374
706.418	0.19567973
706.609	0.19580363
706.8	0.1959776
706.991	0.1960652
707.182	0.19628441
707.373	0.19634701
707.564	0.19650342
707.755	0.19660608
707.946	0.19674024
708.137	0.19682391
708.328	0.19698402
708.519	0.19713352
708.71	0.19731771
708.901	0.19745545
709.092	0.1976569
709.283	0.19784225
709.473	0.19803052
709.664	0.19821535
709.855	0.19833864
710.046	0.19850327
710.237	0.19866394
710.427	0.19881406
710.618	0.19894299
710.809	0.19906092
711	0.19922064
711.19	0.19931021
711.381	0.19944299
711.572	0.19955213
711.762	0.19969206
711.953	0.19981318
712.144	0.1999651
712.334	0.20002528
712.525	0.20017294
712.715	0.20025801
712.906	0.20040571
713.097	0.20051536
713.287	0.20062575
713.478	0.20073738
713.668	0.20089351
713.859	0.20102593
714.049	0.20117462
714.239	0.20130849
714.43	0.20143573
714.62	0.20154508
714.811	0.20170229
715.001	0.20189425
715.191	0.20206815
715.382	0.20220437
715.572	0.20240592
715.762	0.20258888
715.953	0.20281188
716.143	0.20298018
716.333	0.2030327
716.523	0.20310254
716.714	0.20333025
716.904	0.20342309
717.094	0.20355592
717.284	0.20364136
717.474	0.20377833
717.664	0.2040252
717.855	0.20425302
718.045	0.20440196
718.235	0.20460275
718.425	0.20475884
718.615	0.20499128
718.805	0.2052243
718.995	0.20537028
719.185	0.20559396
719.375	0.20577671
719.565	0.20600613
719.755	0.20623794
719.945	0.20644707
720.135	0.20661645
720.325	0.20684696
720.515	0.20704076
720.704	0.20721891
720.894	0.20732498
721.084	0.20742435
721.274	0.20759545
721.464	0.20774742
721.654	0.20788772
721.843	0.20795759
722.033	0.20810197
722.223	0.20819398
722.413	0.20836972
722.602	0.20849111
722.792	0.20863364
722.982	0.2087466
723.171	0.20893074
723.361	0.20907231
723.55	0.20929113
723.74	0.20934906
723.93	0.20940842
724.119	0.2094637
724.309	0.20958314
724.498	0.20971325
724.688	0.2098303
724.877	0.20989887
725.067	0.21009599
725.256	0.21024835
725.446	0.21041621
725.635	0.21055378
725.825	0.21064814
726.014	0.21071924
726.203	0.21086454
726.393	0.21092133
726.582	0.21106625
726.771	0.21120019
726.961	0.21125537
727.15	0.21130969
727.339	0.21139697
727.529	0.21147931
727.718	0.2115724
727.907	0.21164759
728.096	0.21172099
728.286	0.21186156
728.475	0.21209083
728.664	0.21223134
728.853	0.21233608
729.042	0.2124081
729.231	0.2124565
729.42	0.21254386
729.609	0.21263853
729.799	0.21262499
729.988	0.21275667
730.177	0.21286096
730.366	0.21306625
730.555	0.21317076
730.744	0.21326629
730.933	0.21335764
731.122	0.2134683
731.31	0.21350632
731.499	0.2135656
731.688	0.21365241
731.877	0.21376734
732.066	0.21385581
732.255	0.21392345
732.444	0.21399965
732.632	0.21408349
732.821	0.21423167
733.01	0.21433401
733.199	0.214408
733.388	0.21451312
733.576	0.21467462
733.765	0.2148463
733.954	0.21502237
734.142	0.21511486
734.331	0.21528614
734.52	0.21541467
734.708	0.21552774
734.897	0.21553762
735.086	0.21558397
735.274	0.2155506
735.463	0.21562458
735.651	0.21567069
735.84	0.2158101
736.028	0.21587713
736.217	0.21599395
736.405	0.2160533
736.594	0.21619846
736.782	0.21625765
736.971	0.21626568
737.159	0.21633771
737.347	0.21648569
737.536	0.21655325
737.724	0.21666248
737.912	0.21671586
738.101	0.21679175
738.289	0.21689241
738.477	0.21691297
738.666	0.21691375
738.854	0.21699832
739.042	0.21707536
739.23	0.21716093
739.418	0.21722026
739.607	0.21732506
739.795	0.21745056
739.983	0.21767429
740.171	0.21778228
740.359	0.21784013
740.547	0.21790235
740.735	0.21805768
740.923	0.21814151
741.112	0.21822346
741.3	0.2181992
741.488	0.21824694
741.676	0.21835602
741.864	0.21847215
742.052	0.21857494
742.239	0.21859721
742.427	0.21865418
742.615	0.21868695
742.803	0.21880854
742.991	0.21889888
743.179	0.21899046
743.367	0.21906897
743.555	0.21922716
743.742	0.21928209
743.93	0.21941027
744.118	0.2194713
744.306	0.21958842
744.494	0.21966978
744.681	0.21965977
744.869	0.21970274
745.057	0.21986074
745.244	0.22000243
745.432	0.22016439
745.62	0.22022391
745.807	0.2203185
745.995	0.22040952
746.182	0.22048923
746.37	0.22051531
746.558	0.22054379
746.745	0.22055809
746.933	0.22059868
747.12	0.22063233
747.308	0.22071937
747.495	0.22072415
747.683	0.2208115
747.87	0.22086762
748.057	0.22095598
748.245	0.22105926
748.432	0.22118437
748.62	0.22134976
748.807	0.2214567
748.994	0.22149695
749.182	0.22151321
749.369	0.22148813
749.556	0.22158607
749.743	0.22163109
749.931	0.22163128
750.118	0.22180625
750.305	0.22188447
750.492	0.22197598
750.68	0.22211238
750.867	0.22212756
751.054	0.22215408
751.241	0.22219126
751.428	0.22218661
751.615	0.22225666
751.802	0.22240208
751.989	0.22246949
752.176	0.22262699
752.363	0.22277043
752.55	0.22286423
752.737	0.22292967
752.924	0.22299478
753.111	0.22298125
753.298	0.22306661
753.485	0.2230281
753.672	0.22300165
753.859	0.22306104
754.046	0.2230704
754.233	0.22308753
754.42	0.22313988
754.606	0.22306655
754.793	0.22307598
754.98	0.2231567
755.167	0.2231617
755.353	0.22326328
755.54	0.22334363
755.727	0.22338032
755.914	0.22346031
756.1	0.22349451
756.287	0.2234769
756.474	0.22355463
756.66	0.22356636
756.847	0.22360426
757.033	0.22367026
757.22	0.22379832
757.407	0.22397569
757.593	0.22414802
757.78	0.22418954
757.966	0.22425885
758.153	0.22431586
758.339	0.22430172
758.526	0.22430373
758.712	0.22422551
758.898	0.22418525
759.085	0.22416923
759.271	0.22417146
759.458	0.22422875
759.644	0.22431977
759.83	0.2243787
760.017	0.22449049
760.203	0.22458931
760.389	0.22468227
760.576	0.22471032
760.762	0.22463538
760.948	0.22452945
761.134	0.22447891
761.32	0.22442078
761.507	0.22435131
761.693	0.22440205
761.879	0.22439288
762.065	0.22450568
762.251	0.22465197
762.437	0.22473364
762.623	0.22477624
762.809	0.22478672
762.995	0.22471849
763.181	0.2247415
763.367	0.2246838
763.553	0.22466208
763.739	0.22467104
763.925	0.22470633
764.111	0.2247389
764.297	0.22482823
764.483	0.22487664
764.669	0.22485852
764.855	0.22488111
765.041	0.22488848
765.227	0.22487277
765.412	0.22490626
765.598	0.22486986
765.784	0.224878
765.97	0.2249956
766.156	0.22499265
766.341	0.22496957
766.527	0.22495927
766.713	0.22493692
766.898	0.22492202
767.084	0.22489396
767.27	0.22477004
767.455	0.22476979
767.641	0.22468288
767.827	0.2246836
768.012	0.2246792
768.198	0.22471618
768.383	0.22466055
768.569	0.22473267
768.754	0.22464617
768.94	0.224635
769.125	0.22457909
769.311	0.22449326
769.496	0.22443522
769.682	0.22448117
769.867	0.22444273
770.052	0.22453209
770.238	0.22462836
770.423	0.22465893
770.608	0.22467974
770.794	0.22466631
770.979	0.22461228
771.164	0.2246501
771.35	0.22459896
771.535	0.22458451
771.72	0.22457425
771.905	0.22466036
772.09	0.22462247
772.276	0.22461125
772.461	0.22446919
772.646	0.22440463
772.831	0.2243134
773.016	0.22420174
773.201	0.22405883
773.386	0.22406114
773.571	0.22405672
773.756	0.22414822
773.941	0.22416546
774.126	0.22424938
774.311	0.22425993
774.496	0.22431433
774.681	0.22430518
774.866	0.22425946
775.051	0.22416847
775.236	0.22411884
775.421	0.22395934
775.606	0.2239135
775.791	0.22377891
775.976	0.22368844
776.16	0.22362192
776.345	0.22360909
776.53	0.22366097
776.715	0.2237296
776.899	0.22374145
777.084	0.22374588
777.269	0.22370226
777.454	0.22366776
777.638	0.22359619
777.823	0.22347074
778.008	0.22334125
778.192	0.22324794
778.377	0.22314144
778.561	0.2231502
778.746	0.22314789
778.931	0.22311363
779.115	0.22310833
779.3	0.22309502
779.484	0.22301998
779.669	0.22299319
779.853	0.22284693
780.037	0.22275063
780.222	0.22260868
780.406	0.2224594
780.591	0.2223034
780.775	0.22222159
780.959	0.22220649
781.144	0.22217196
781.328	0.22206693
781.512	0.22201639
781.697	0.22192218
781.881	0.22184902
782.065	0.22183157
782.249	0.22173513
782.434	0.22170344
782.618	0.22164807
782.802	0.22162132
782.986	0.2216284
783.17	0.22159638
783.354	0.2214261
783.539	0.221264
783.723	0.2211333
783.907	0.22104137
784.091	0.22090726
784.275	0.22076976
784.459	0.22072425
784.643	0.22077125
784.827	0.22074327
785.011	0.22071794
785.195	0.22066336
785.379	0.22059053
785.563	0.22047525
785.747	0.22022582
785.93	0.22004606
786.114	0.21985702
786.298	0.21959937
786.482	0.21938088
786.666	0.21922798
786.85	0.21915539
787.033	0.21920738
787.217	0.2191819
787.401	0.21922706
787.585	0.21925677
787.768	0.21934017
787.952	0.21931512
788.136	0.21931275
788.319	0.21917983
788.503	0.21903072
788.687	0.21887696
788.87	0.21866546
789.054	0.21845277
789.237	0.2183645
789.421	0.21816276
789.605	0.21796436
789.788	0.21785048
789.972	0.21777111
790.155	0.21766821
790.338	0.21751806
790.522	0.21736413
790.705	0.21731413
790.889	0.2172774
791.072	0.21718036
791.256	0.21708995
791.439	0.21710417
791.622	0.21710069
791.806	0.21711943
791.989	0.21698985
792.172	0.21693378
792.355	0.21689693
792.539	0.21675986
792.722	0.21657015
792.905	0.21640686
793.088	0.2161721
793.271	0.21601266
793.455	0.21586786
793.638	0.21565964
793.821	0.21546299
794.004	0.21529444
794.187	0.21514976
794.37	0.21505348
794.553	0.21501105
794.736	0.21484401
794.919	0.21466748
795.102	0.21456593
795.285	0.21440679
795.468	0.21428267
795.651	0.21414205
795.834	0.21400142
796.017	0.21395254
796.2	0.21392248
796.383	0.21382872
796.566	0.21388544
796.749	0.21376101
796.931	0.21360011
797.114	0.21337652
797.297	0.21317901
797.48	0.21297576
797.663	0.21283912
797.845	0.21253622
798.028	0.21242115
798.211	0.21233789
798.393	0.21226002
798.576	0.21221034
798.759	0.21207002
798.941	0.21193436
799.124	0.2119064
799.307	0.21184404
799.489	0.21178351
799.672	0.21165263
799.854	0.21141364
800.037	0.21128691
800.219	0.21112978
800.402	0.21098459
800.584	0.21074256
800.767	0.21053694
800.949	0.21042416
801.132	0.21039404
801.314	0.2102369
801.496	0.21008637
801.679	0.20988916
801.861	0.20975917
802.043	0.20961342
802.226	0.2093997
802.408	0.20922886
802.59	0.20923578
802.772	0.2091916
802.955	0.20910441
803.137	0.20895437
803.319	0.2088092
803.501	0.20867385
803.684	0.20844714
803.866	0.20817925
804.048	0.20800417
804.23	0.20788533
804.412	0.20775732
804.594	0.20756255
804.776	0.20744332
804.958	0.20732369
805.14	0.20722367
805.322	0.20694719
805.504	0.20665565
805.686	0.20644309
805.868	0.20621121
806.05	0.20599888
806.232	0.20576725
806.414	0.20556182
806.596	0.20545313
806.778	0.20540635
806.96	0.2053678
807.141	0.20527375
807.323	0.20511846
807.505	0.20505786
807.687	0.2048555
807.869	0.20468414
808.05	0.20446291
808.232	0.2041482
808.414	0.20402889
808.595	0.20384873
808.777	0.2035253
808.959	0.20340703
809.14	0.20323575
809.322	0.20312039
809.504	0.20300491
809.685	0.20285053
809.867	0.20266497
810.048	0.2026014
810.23	0.20243904
810.411	0.20233918
810.593	0.20212414
810.774	0.20198725
810.956	0.20179957
811.137	0.2017072
811.319	0.20160767
811.5	0.20150131
811.681	0.20136801
811.863	0.2012333
812.044	0.20104225
812.225	0.20090769
812.407	0.20075084
812.588	0.20050771
812.769	0.20018464
812.951	0.19987658
813.132	0.19965263
813.313	0.19943669
813.494	0.19908705
813.675	0.19887274
813.857	0.19869337
814.038	0.1986051
814.219	0.1984941
814.4	0.19833999
814.581	0.19827048
814.762	0.19821272
814.943	0.19801434
815.124	0.19777568
815.305	0.19753105
815.486	0.19719998
815.667	0.19695499
815.848	0.19665027
816.029	0.19629329
816.21	0.19604774
816.391	0.19587585
816.572	0.19562862
816.753	0.19547391
816.934	0.19530156
817.115	0.1951888
817.295	0.19512814
817.476	0.19486386
817.657	0.19461355
817.838	0.19447936
818.019	0.19423043
818.199	0.19396341
818.38	0.19364047
818.561	0.19340238
818.741	0.19324993
818.922	0.19302245
819.103	0.19278985
819.283	0.19268417
819.464	0.19246678
819.645	0.19223328
819.825	0.19193938
820.006	0.19172297
820.186	0.19156395
820.367	0.19136043
820.547	0.19108332
820.728	0.19082314
820.908	0.19069711
821.089	0.19059235
821.269	0.19047495
821.45	0.19026437
821.63	0.1900988
821.81	0.19001321
821.991	0.18999543
822.171	0.18985677
822.351	0.18967004
822.532	0.18947258
822.712	0.18932449
822.892	0.18916435
823.072	0.1889642
823.253	0.18881229
823.433	0.18856116
823.613	0.18835127
823.793	0.1881276
823.973	0.1879196
824.154	0.18753544
824.334	0.18720379
824.514	0.18691062
824.694	0.18671761
824.874	0.18648753
825.054	0.18628242
825.234	0.18606591
825.414	0.1859624
825.594	0.18577104
825.774	0.1855325
825.954	0.18527963
826.134	0.18499697
826.314	0.18468859
826.494	0.1844462
826.674	0.18416323
826.854	0.18392547
827.033	0.18363782
827.213	0.18348259
827.393	0.18331484
827.573	0.1832347
827.753	0.18309641
827.932	0.18306675
828.112	0.18301182
828.292	0.18294416
828.472	0.18274633
828.651	0.18253291
828.831	0.18224564
829.011	0.181983
829.19	0.18163429
829.37	0.18140445
829.549	0.18122508
829.729	0.18093579
829.909	0.18076446
830.088	0.18051071
830.268	0.18025754
830.447	0.18009234
830.627	0.17982138
830.806	0.17949418
830.986	0.17923504
831.165	0.17897792
831.344	0.17881927
831.524	0.17861956
831.703	0.17831736
831.883	0.17797684
832.062	0.17771267
832.241	0.17755116
832.421	0.17723297
832.6	0.1768756
832.779	0.17656205
832.958	0.17635606
833.138	0.17616751
833.317	0.17591833
833.496	0.17564517
833.675	0.17557163
833.854	0.17548122
834.034	0.1753206
834.213	0.17516152
834.392	0.1750399
834.571	0.17482641
834.75	0.17459638
834.929	0.17429096
835.108	0.17401579
835.287	0.17387365
835.466	0.17355943
835.645	0.17334484
835.824	0.17312331
836.003	0.17297813
836.182	0.17277253
836.361	0.17253605
836.54	0.1722135
836.719	0.17200238
836.897	0.17172504
837.076	0.17160136
837.255	0.17141186
837.434	0.17130911
837.613	0.171156
837.791	0.17096071
837.97	0.17072129
838.149	0.17043911
838.328	0.17008435
838.506	0.16979551
838.685	0.16950129
838.864	0.16928198
839.042	0.16901352
839.221	0.16877509
839.4	0.16857617
839.578	0.16836767
839.757	0.16803313
839.935	0.16771928
840.114	0.16748537
840.292	0.16737736
840.471	0.16728389
840.649	0.16712995
840.828	0.16690715
841.006	0.16676482
841.185	0.16655702
841.363	0.16623817
841.541	0.16584311
841.72	0.16557151
841.898	0.16527638
842.076	0.16503931
842.255	0.16478185
842.433	0.16455386
842.611	0.16430924
842.789	0.16409295
842.968	0.16373585
843.146	0.16343901
843.324	0.16311857
843.502	0.16279066
843.68	0.16256843
843.859	0.16240201
844.037	0.16227425
844.215	0.16219766
844.393	0.16202067
844.571	0.16184786
844.749	0.16172516
844.927	0.16149801
845.105	0.16119329
845.283	0.16095761
845.461	0.16065452
845.639	0.16039494
845.817	0.16018807
845.995	0.15998475
846.173	0.15969797
846.351	0.15946522
846.529	0.15910983
846.706	0.15880025
846.884	0.15865937
847.062	0.15843272
847.24	0.15814432
847.418	0.15786669
847.595	0.15765618
847.773	0.1575083
847.951	0.15725657
848.129	0.15686202
848.306	0.15664901
848.484	0.15636535
848.662	0.156245
848.839	0.15616798
849.017	0.15604351
849.194	0.15589108
849.372	0.15579836
849.549	0.15550131
849.727	0.15530767
849.905	0.15504879
850.082	0.15461626
850.26	0.15429798
850.437	0.15405776
850.614	0.15373624
850.792	0.15353369
850.969	0.1533058
851.147	0.15301006
851.324	0.15280728
851.501	0.15265085
851.679	0.1523838
851.856	0.15216008
852.033	0.15195874
852.211	0.15175612
852.388	0.15155798
852.565	0.15129309
852.742	0.15090981
852.92	0.15072805
853.097	0.15047614
853.274	0.15020707
853.451	0.14991319
853.628	0.14969388
853.805	0.14957622
853.982	0.14940265
854.159	0.14912955
854.336	0.14902267
854.514	0.14887772
854.691	0.14866391
854.868	0.14851715
855.045	0.14824858
855.221	0.14803595
855.398	0.14784066
855.575	0.14753879
855.752	0.14720227
855.929	0.14700182
856.106	0.14667793
856.283	0.14655753
856.46	0.14634742
856.637	0.14613867
856.813	0.14594231
856.99	0.14577842
857.167	0.14553361
857.344	0.14539719
857.52	0.14513223
857.697	0.1448474
857.874	0.14461046
858.05	0.14437014
858.227	0.14425676
858.404	0.1440851
858.58	0.14377619
858.757	0.14351231
858.933	0.14333448
859.11	0.14313167
859.287	0.14288196
859.463	0.14257519
859.64	0.14234909
859.816	0.14218108
859.993	0.14205261
860.169	0.14186856
860.345	0.14161899
860.522	0.14149808
860.698	0.14125377
860.875	0.14108139
861.051	0.14081394
861.227	0.14056597
861.404	0.14040951
861.58	0.14031842
861.756	0.14011968
861.932	0.1400081
862.109	0.1398082
862.285	0.13970742
862.461	0.1394365
862.637	0.13913474
862.813	0.13877893
862.99	0.13844656
863.166	0.13801638
863.342	0.13772507
863.518	0.13741262
863.694	0.13721561
863.87	0.13705144
864.046	0.13690442
864.222	0.13673926
864.398	0.13673112
864.574	0.1364597
864.75	0.13620775
864.926	0.13597602
865.102	0.13571625
865.278	0.13534511
865.454	0.13504778
865.63	0.13471971
865.805	0.13445105
865.981	0.13423291
866.157	0.13401796
866.333	0.133697
866.509	0.13355478
866.684	0.13328744
866.86	0.1330996
867.036	0.13297427
867.212	0.13272117
867.387	0.13228873
867.563	0.1319939
867.739	0.13181034
867.914	0.13164332
868.09	0.13139647
868.265	0.13120741
868.441	0.13098058
868.617	0.1308715
868.792	0.13076797
868.968	0.13058031
869.143	0.13047527
869.319	0.1303502
869.494	0.13012947
869.67	0.13001476
869.845	0.12987417
870.02	0.12965
870.196	0.12945421
870.371	0.12912334
870.546	0.12885623
870.722	0.12864892
870.897	0.12845388
871.072	0.12823698
871.248	0.1280101
871.423	0.12769732
871.598	0.12752893
871.773	0.12730757
871.949	0.12702148
872.124	0.12679424
872.299	0.12658398
872.474	0.12650429
872.649	0.12641295
872.824	0.12618948
872.999	0.12589807
873.174	0.12566771
873.349	0.12547499
873.524	0.12524846
873.699	0.12495414
873.874	0.12464498
874.049	0.12447057
874.224	0.12431618
874.399	0.12418074
874.574	0.12400426
874.749	0.12385425
874.924	0.12370237
875.099	0.12349663
875.274	0.12326322
875.449	0.1230651
875.623	0.12275591
875.798	0.12231286
875.973	0.12187986
876.148	0.12139494
876.322	0.12109734
876.497	0.12079851
876.672	0.12053438
876.846	0.120352
877.021	0.1203149
877.196	0.12022306
877.37	0.12021674
877.545	0.12010515
877.72	0.11990421
877.894	0.11978013
878.069	0.11961286
878.243	0.11929616
878.418	0.11921534
878.592	0.11888934
878.767	0.11867062
878.941	0.11847697
879.116	0.11817642
879.29	0.11796092
879.464	0.11769434
879.639	0.11733949
879.813	0.1172502
879.987	0.11699885
880.162	0.11684985
880.336	0.11671034
880.51	0.11656691
880.685	0.11651908
880.859	0.11638604
881.033	0.11621193
881.207	0.11590006
881.381	0.11557711
881.556	0.11526603
881.73	0.11501304
881.904	0.11475535
882.078	0.11460122
882.252	0.11435245
882.426	0.11432147
882.6	0.11428038
882.774	0.11428532
882.948	0.11419838
883.122	0.1141127
883.296	0.11397296
883.47	0.11389918
883.644	0.11370608
883.818	0.11339138
883.992	0.11315897
884.166	0.11288445
884.34	0.11256262
884.514	0.11219497
884.687	0.11180132
884.861	0.11155537
885.035	0.111516
885.209	0.11123826
885.382	0.11104991
885.556	0.11089039
885.73	0.11089327
885.904	0.11078749
886.077	0.11063874
886.251	0.11039413
886.425	0.11021018
886.598	0.1099688
886.772	0.10976021
886.945	0.10934007
887.119	0.10910971
887.292	0.10892235
887.466	0.10879998
887.64	0.10863474
887.813	0.10857412
887.986	0.10849744
888.16	0.10850789
888.333	0.10849104
888.507	0.10838334
888.68	0.10823418
888.854	0.10813012
889.027	0.10778467
889.2	0.10762188
889.374	0.10730383
889.547	0.10694239
889.72	0.10667365
889.893	0.10642748
890.067	0.106143
890.24	0.10609442
890.413	0.10594496
890.586	0.10584444
890.759	0.10577907
890.933	0.10574096
891.106	0.1055746
891.279	0.10552943
891.452	0.10542592
891.625	0.10511006
891.798	0.1049623
891.971	0.10476538
892.144	0.1044371
892.317	0.10430141
892.49	0.10401862
892.663	0.10377318
892.836	0.10377903
893.009	0.10354478
893.182	0.10346725
893.355	0.10344148
893.527	0.10323215
893.7	0.10307553
893.873	0.10293455
894.046	0.10265821
894.219	0.10259582
894.391	0.10232911
894.564	0.10211887
894.737	0.10192857
894.91	0.1017812
895.082	0.1016109
895.255	0.10140239
895.428	0.10112259
895.6	0.10089987
895.773	0.10066887
895.945	0.10048166
896.118	0.10037643
896.291	0.10024387
896.463	0.10009374
896.636	0.10000481
896.808	0.09985975
896.981	0.09978145
897.153	0.0997037
897.326	0.09952107
897.498	0.0992899
897.67	0.09913932
897.843	0.09892964
898.015	0.09895157
898.187	0.09875318
898.36	0.09835869
898.532	0.09804301
898.704	0.09790733
898.877	0.0977321
899.049	0.09764038
899.221	0.09736364
899.393	0.09715287
899.566	0.09719548
899.738	0.09718038
899.91	0.09698134
900.082	0.09686123
900.254	0.09675782
900.426	0.09660637
900.598	0.09649372
900.77	0.09626883
900.942	0.09606659
901.114	0.09589104
901.286	0.09569574
901.458	0.09549985
901.63	0.09539495
901.802	0.09528252
901.974	0.09515655
902.146	0.09502895
902.318	0.09495779
902.49	0.09492154
902.662	0.09475867
902.834	0.09469552
903.005	0.09471194
903.177	0.09474859
903.349	0.09461609
903.521	0.09454281
903.693	0.09437419
903.864	0.09420522
904.036	0.09391697
904.208	0.09338159
904.379	0.09304721
904.551	0.09291169
904.723	0.09265648
904.894	0.0926379
905.066	0.09263711
905.237	0.09275766
905.409	0.09299339
905.58	0.09297062
905.752	0.09286048
905.923	0.09272769
906.095	0.0924209
906.266	0.09214216
906.438	0.09181709
906.609	0.09163347
906.78	0.09148662
906.952	0.09134911
907.123	0.09130587
907.295	0.09121009
907.466	0.09114695
907.637	0.09092967
907.808	0.09063262
907.98	0.09050583
908.151	0.09039905
908.322	0.0902055
908.493	0.09007466
908.665	0.09003901
908.836	0.09003119
909.007	0.08996026
909.178	0.08980306
909.349	0.08959284
909.52	0.08955149
909.691	0.08939729
909.862	0.08914755
910.033	0.08890251
910.204	0.08871598
910.375	0.08846374
910.546	0.08837416
910.717	0.08815689
910.888	0.08807882
911.059	0.08796256
911.23	0.08791283
911.401	0.08783662
911.572	0.08777685
911.742	0.08771259
911.913	0.08766642
912.084	0.08748037
912.255	0.08734094
912.426	0.08712868
912.596	0.08690147
912.767	0.08669445
912.938	0.08645227
913.108	0.08621137
913.279	0.08611222
913.45	0.08598669
913.62	0.08596076
913.791	0.0859797
913.962	0.08612254
914.132	0.08611979
914.303	0.08602957
914.473	0.08601983
914.644	0.08597774
914.814	0.08585911
914.985	0.08575772
915.155	0.08534271
915.326	0.08485492
915.496	0.08449384
915.666	0.08406464
915.837	0.08379451
916.007	0.0834453
916.177	0.08314215
916.348	0.08320533
916.518	0.08338685
916.688	0.08358264
916.858	0.08350611
917.029	0.08336972
917.199	0.08340838
917.369	0.08332997
917.539	0.0832246
917.709	0.08293625
917.88	0.08276515
918.05	0.08264755
918.22	0.08250861
918.39	0.08224319
918.56	0.08217962
918.73	0.08192434
918.9	0.08182149
919.07	0.08165155
919.24	0.08167272
919.41	0.08158321
919.58	0.08147612
919.75	0.08128366
919.92	0.08106704
920.09	0.08101744
920.26	0.0807492
920.429	0.08041868
920.599	0.0802965
920.769	0.08024535
920.939	0.08004985
921.109	0.07993372
921.278	0.07963144
921.448	0.07951178
921.618	0.07938275
921.787	0.07923605
921.957	0.07913377
922.127	0.07905761
922.296	0.07901474
922.466	0.07897902
922.636	0.07890057
922.805	0.07883888
922.975	0.07867851
923.144	0.07855867
923.314	0.0783776
923.483	0.07830559
923.653	0.07837691
923.822	0.07817166
923.992	0.0780848
924.161	0.07785015
924.331	0.07759785
924.5	0.0775865
924.669	0.07737234
924.839	0.07705025
925.008	0.07704943
925.177	0.07686866
925.347	0.07689675
925.516	0.07683885
925.685	0.07669891
925.854	0.07647623
926.023	0.07648523
926.193	0.07642644
926.362	0.07624372
926.531	0.07611346
926.7	0.07595614
926.869	0.07598649
927.038	0.07599113
927.207	0.07601043
927.376	0.07583789
927.545	0.07579133
927.715	0.07582405
927.884	0.07580523
928.052	0.07563398
928.221	0.07550333
928.39	0.07521242
928.559	0.07529971
928.728	0.07553752
928.897	0.07545173
929.066	0.07552005
929.235	0.07547687
929.404	0.07543554
929.572	0.07557574
929.741	0.07546618
929.91	0.0752465
930.079	0.07516986
930.247	0.07501892
930.416	0.07485154
930.585	0.07480699
930.753	0.07460433
930.922	0.07440678
931.091	0.07421422
931.259	0.07414268
931.428	0.07428466
931.596	0.07441129
931.765	0.07451717
931.934	0.0746208
932.102	0.07454352
932.27	0.0745877
932.439	0.07459025
932.607	0.07418689
932.776	0.07399705
932.944	0.07378737
933.113	0.07337291
933.281	0.07316415
933.449	0.0728715
933.618	0.07250789
933.786	0.07237832
933.954	0.07200563
934.123	0.07183975
934.291	0.07193488
934.459	0.07189553
934.627	0.07196852
934.795	0.0720651
934.964	0.07203086
935.132	0.07226693
935.3	0.07221333
935.468	0.07215875
935.636	0.07221432
935.804	0.07226873
935.972	0.07191061
936.14	0.07196996
936.308	0.07174145
936.476	0.07184513
936.644	0.07158515
936.812	0.07161262
936.98	0.07136608
937.148	0.07163517
937.316	0.07136572
937.484	0.0715773
937.652	0.07138861
937.82	0.07142059
937.987	0.07131791
938.155	0.07182989
938.323	0.07164151
938.491	0.0713751
938.658	0.07132096
938.826	0.07149787
938.994	0.07190676
939.162	0.07196768
939.329	0.07156791
939.497	0.07180252
939.665	0.07260322
939.832	0.07278233
940	0.07293422
940.167	0.07266542
940.335	0.07267509
940.502	0.07254699
940.67	0.07275094
940.837	0.07248891
941.005	0.07204419
941.172	0.07186471
941.34	0.07173667
941.507	0.07261399
941.674	0.07233073
941.842	0.07209656
942.009	0.07273308
942.177	0.07267251
942.344	0.07301688
942.511	0.07426117
942.678	0.0733908
942.846	0.07380043
943.013	0.07370724
943.18	0.07329314
943.347	0.07327202
943.514	0.07297903
943.682	0.07182861
943.849	0.0710506
944.016	0.07106684
944.183	0.07160906
944.35	0.07107839
944.517	0.07248401
944.684	0.07213009
944.851	0.0714597
945.018	0.07250802
945.185	0.0724788
945.352	0.07244543
945.519	0.07265608
945.686	0.07136983
945.853	0.07259955
946.02	0.07253514
946.187	0.07203688
946.353	0.07191603
946.52	0.07175589
946.687	0.07149025
946.854	0.07228034
947.021	0.07164164
947.187	0.07206186
947.354	0.07195588
947.521	0.07282895
947.687	0.07156703
947.854	0.07187338
948.021	0.07129022
948.187	0.06989713
948.354	0.06966377
948.52	0.06929791
948.687	0.06851077
948.854	0.06951131
949.02	0.06855463
949.187	0.06786536
949.353	0.06871671
949.52	0.06835409
949.686	0.0685126
949.852	0.06843484
950.019	0.0680336
950.185	0.06807488
950.352	0.06824305
950.518	0.06814352
950.684	0.06852108
950.851	0.06828522
951.017	0.06829392
951.183	0.06795038
951.349	0.06785378
951.516	0.06723791
951.682	0.06681619
951.848	0.06614512
952.014	0.0656361
952.18	0.06524342
952.346	0.06519113
952.512	0.06605088
952.679	0.06600653
952.845	0.06606189
953.011	0.06585047
953.177	0.06600949
953.343	0.06560493
953.509	0.0657339
953.675	0.06518938
953.841	0.0656629
954.007	0.06526842
954.172	0.06565359
954.338	0.06484936
954.504	0.06507696
954.67	0.06448101
954.836	0.06438872
955.002	0.06366395
955.167	0.06415806
955.333	0.06335905
955.499	0.06356649
955.665	0.06350368
955.83	0.06313496
955.996	0.06274014
956.162	0.06296625
956.327	0.06245775
956.493	0.06207807
956.659	0.06254953
956.824	0.06231642
956.99	0.06260748
957.155	0.06261493
957.321	0.06231348
957.486	0.06237754
957.652	0.06305415
957.817	0.06270865
957.983	0.06255765
958.148	0.06235144
958.314	0.06254714
958.479	0.06199051
958.644	0.06190466
958.81	0.06182885
958.975	0.06143243
959.14	0.06124245
959.306	0.06117901
959.471	0.06077642
959.636	0.06090119
959.801	0.06098387
959.967	0.0605384
960.132	0.06082995
960.297	0.0604543
960.462	0.06056819
960.627	0.06031045
960.792	0.0603904
960.957	0.05970849
961.123	0.05999203
961.288	0.0594408
961.453	0.0599593
961.618	0.05994435
961.783	0.0600912
961.948	0.06016534
962.113	0.06034958
962.277	0.06004112
962.442	0.06014239
962.607	0.05955996
962.772	0.05928947
962.937	0.05891813
963.102	0.05893449
963.267	0.05860435
963.431	0.05846781
963.596	0.05850358
963.761	0.05856454
963.926	0.05863952
964.09	0.05900973
964.255	0.05898419
964.42	0.05898949
964.584	0.05906887
964.749	0.05925844
964.914	0.05920625
965.078	0.05900537
965.243	0.05859192
965.407	0.05846238
965.572	0.05842793
965.736	0.05858724
965.901	0.05819656
966.065	0.0583271
966.23	0.05854249
966.394	0.05865207
966.559	0.05834482
966.723	0.05828535
966.887	0.05793534
967.052	0.05807443
967.216	0.05806247
967.38	0.05788691
967.545	0.05795454
967.709	0.05786411
967.873	0.05820606
968.037	0.05843391
968.202	0.05838224
968.366	0.05829171
968.53	0.05811472
968.694	0.05790176
968.858	0.05837014
969.022	0.05810628
969.187	0.05805799
969.351	0.0580221
969.515	0.05780282
969.679	0.0574867
969.843	0.05732512
970.007	0.05675319
970.171	0.05663349
970.335	0.05616744
970.499	0.0563718
970.662	0.05610476
970.826	0.0561187
970.99	0.05600636
971.154	0.05625077
971.318	0.05651753
971.482	0.05647532
971.645	0.05596906
971.809	0.05611795
971.973	0.05603691
972.137	0.05624044
972.3	0.05599648
972.464	0.055734
972.628	0.05612214
972.791	0.05652457
972.955	0.05687904
973.119	0.05729818
973.282	0.05717011
973.446	0.05732395
973.609	0.05728483
973.773	0.05699872
973.936	0.05697403
974.1	0.0566073
974.263	0.05639431
974.427	0.05632618
974.59	0.05650456
974.754	0.05642779
974.917	0.05625597
975.08	0.05567732
975.244	0.05532253
975.407	0.0552856
975.57	0.05515063
975.734	0.05442056
975.897	0.05413267
976.06	0.05371009
976.223	0.05345808
976.387	0.05350099
976.55	0.05317521
976.713	0.05282481
976.876	0.0530493
977.039	0.05298398
977.202	0.05354773
977.365	0.05358247
977.528	0.05391468
977.692	0.05399918
977.855	0.05418524
978.018	0.05403121
978.181	0.05397535
978.344	0.05361749
978.506	0.05419521
978.669	0.05383926
978.832	0.05389339
978.995	0.05380302
979.158	0.05396322
979.321	0.05406505
979.484	0.05411993
979.646	0.05382261
979.809	0.05416593
979.972	0.05375149
980.135	0.05417798
980.297	0.05373468
980.46	0.05348789
980.623	0.05377395
980.786	0.05339012
980.948	0.05360584
981.111	0.05355726
981.273	0.05312547
981.436	0.05314088
981.599	0.05336215
981.761	0.05261635
981.924	0.05315723
982.086	0.05243865
982.249	0.0523609
982.411	0.05231939
982.573	0.05255136
982.736	0.05275138
982.898	0.05307288
983.061	0.05227934
983.223	0.05237638
983.385	0.05256653
983.548	0.05292906
983.71	0.05246646
983.872	0.05182677
984.034	0.05207252
984.197	0.05248442
984.359	0.05242571
984.521	0.05271716
984.683	0.05239723
984.845	0.05284056
985.008	0.05279238
985.17	0.05305949
985.332	0.05334395
985.494	0.05314086
985.656	0.05298821
985.818	0.05277322
985.98	0.05249956
986.142	0.05326582
986.304	0.05247573
986.466	0.05176457
986.628	0.05191333
986.79	0.05165765
986.952	0.0514872
987.113	0.05169159
987.275	0.05094862
987.437	0.05127357
987.599	0.05159214
987.761	0.05211827
987.922	0.05204664
988.084	0.05285764
988.246	0.05285119
988.408	0.0533631
988.569	0.05353613
988.731	0.05333397
988.893	0.05247492
989.054	0.052697
989.216	0.05212919
989.377	0.05169935
989.539	0.05127759
989.701	0.05052758
989.862	0.05042694
990.024	0.05018399
990.185	0.05062211
990.347	0.05060588
990.508	0.05020652
990.669	0.049983
990.831	0.05034201
990.992	0.05106219
991.154	0.05138354
991.315	0.05141356
991.476	0.05171875
991.638	0.05251253
991.799	0.05271623
991.96	0.05223067
992.121	0.05147409
992.283	0.0514527
992.444	0.05093284
992.605	0.05028018
992.766	0.04995099
992.927	0.05012829
993.088	0.05024794
993.249	0.05036149
993.41	0.05028084
993.572	0.0498995
993.733	0.05107892
993.894	0.05160255
994.055	0.0514287
994.216	0.05236274
994.376	0.05197933
994.537	0.05232772
994.698	0.0524088
994.859	0.05141277
995.02	0.05151586
995.181	0.05101573
995.342	0.05095928
995.503	0.05226257
995.663	0.05174802
995.824	0.05165099
995.985	0.05200816
996.146	0.05126332
996.306	0.05118876
996.467	0.0509802
996.628	0.05095371
996.788	0.05127273
996.949	0.05187509
997.11	0.05163491
997.27	0.0515859
997.431	0.05203356
997.591	0.05138931
997.752	0.05020619
997.912	0.05106288
998.073	0.05029861
998.233	0.0508826
998.394	0.05091006
998.554	0.0517233
998.714	0.05198692
998.875	0.05269395
999.035	0.05198575
999.196	0.05247622
999.356	0.05192479
999.516	0.0525773
999.676	0.05198966
999.837	0.05156236
999.997	0.05089274
1000.157	0.05145074
1000.317	0.05057442
1000.477	0.04968522
1000.638	0.04915973
1000.798	0.04920254
1000.958	0.04981153
1001.118	0.05028542
1001.278	0.0498468
1001.438	0.05058087
1001.598	0.05120898
1001.758	0.05060027
1001.918	0.05020162
1002.078	0.0501567
1002.238	0.04906427
1002.398	0.04872998
1002.558	0.04805325
1002.718	0.0478598
1002.878	0.04859462
1003.037	0.04821798
1003.197	0.04786338
1003.357	0.04821269
1003.517	0.0491242
1003.677	0.04903701
1003.836	0.0499025
1003.996	0.04976772
1004.156	0.0505083
1004.315	0.05082825
1004.475	0.0515286
1004.635	0.05219548
1004.794	0.0528095
1004.954	0.05214774
1005.114	0.05264426
1005.273	0.05299367
1005.433	0.05159189
1005.592	0.0513517
1005.752	0.04943192
1005.911	0.04879367
1006.071	0.04895655
1006.23	0.04884477
1006.389	0.04900014
1006.549	0.04949975
1006.708	0.04934789
1006.868	0.04988096
1007.027	0.05136026
1007.186	0.05151802
1007.345	0.051823
1007.505	0.0507516
1007.664	0.05174424
1007.823	0.05109837
1007.982	0.05118837
1008.142	0.05177742
1008.301	0.05228599
1008.46	0.0516734
1008.619	0.0518683
1008.778	0.05181798
1008.937	0.05295479
1009.096	0.05266892
1009.255	0.0519977
1009.414	0.05141731
1009.573	0.05148874
1009.732	0.05177779
1009.891	0.05150516
1010.05	0.05168193
1010.209	0.05102825
1010.368	0.05101314
1010.527	0.05068513
1010.686	0.05139964
1010.845	0.05025565
1011.003	0.05030294
1011.162	0.04818932
1011.321	0.04807806
1011.48	0.04812458
1011.638	0.04766567
1011.797	0.04709712
1011.956	0.04661018
1012.115	0.04615771
1012.273	0.04725551
1012.432	0.04856909
1012.59	0.04584605
1012.749	0.0469747
1012.908	0.04571609
1013.066	0.0461536
1013.225	0.04608902
1013.383	0.04663483
1013.542	0.04420665
1013.7	0.04882906
1013.859	0.04959005
1014.017	0.05066164
1014.175	0.05183219
1014.334	0.05459804
1014.492	0.054671
1014.65	0.05772208
1014.809	0.05565741
1014.967	0.05410261
1015.125	0.05619438
1015.284	0.05869634
1015.442	0.05812996
1015.6	0.05688027
1015.758	0.05631889
1015.916	0.05618753
1016.075	0.05624326
1016.233	0.05466436
1016.391	0.05287936
1016.549	0.05057164
1016.707	0.05040207
1016.865	0.0496234
1017.023	0.04904834
1017.181	0.04812063
1017.339	0.04771677
1017.497	0.04814938
1017.655	0.04937057
1017.813	0.05029482
1017.971	0.05044474
1018.129	0.04926573
1018.286	0.0521586
1018.444	0.05286636
1018.602	0.05117542
1018.76	0.05105556
1018.918	0.05439806
1019.075	0.05590743
1019.233	0.05592481
1019.391	0.05341502
1019.549	0.05234774
1019.706	0.0545327
1019.864	0.054928
1020.022	0.05355353
1020.179	0.05322975
1020.337	0.05564409
1020.494	0.0561186
1020.652	0.05533501
1020.809	0.05591833
1020.967	0.05458213
1021.124	0.05316108
1021.282	0.0530359
1021.439	0.05374955
1021.597	0.0562176
1021.754	0.05585069
1021.911	0.05695885
1022.069	0.05619688
1022.226	0.05683881
1022.384	0.05403948
1022.541	0.05322693
1022.698	0.05245216
1022.855	0.05505241
1023.013	0.0538608
1023.17	0.05631773
1023.327	0.05820628
1023.484	0.05985802
1023.641	0.05954992
1023.798	0.06146504
1023.956	0.06112558
1024.113	0.05861124
1024.27	0.05838461
1024.427	0.05423286
1024.584	0.05282333
1024.741	0.0505495
1024.898	0.04799117
1025.055	0.05041028
1025.212	0.05044868
1025.369	0.05033284
1025.525	0.05363709
1025.682	0.05989827
1025.839	0.06230471
1025.996	0.06197838
1026.153	0.05915204
1026.31	0.06251078
1026.466	0.06317865
1026.623	0.06308445
1026.78	0.05883967
1026.937	0.05836403
1027.093	0.06174443
1027.25	0.06396951
1027.407	0.06158115
1027.563	0.0615694
1027.72	0.06074078
1027.876	0.05777433
1028.033	0.0568937
1028.19	0.05580963
1028.346	0.0570316
1028.503	0.05663864
1028.659	0.05281414
1028.816	0.05578731
1028.972	0.0571554
1029.128	0.06176462
1029.285	0.05850041
1029.441	0.05114538
1029.598	0.05285722
1029.754	0.05896734
1029.91	0.05583247
1030.067	0.05530238
1030.223	0.05511178
1030.379	0.05845715
1030.535	0.06610463
1030.691	0.0726331
1030.848	0.07227143
1031.004	0.07509856
1031.16	0.08136801
1031.316	0.08269421
1031.472	0.08434836
1031.628	0.07928635
1031.784	0.0743203
1031.94	0.07628581
1032.096	0.07347369
1032.252	0.073111
1032.408	0.07254854
1032.564	0.06929016
1032.72	0.07732073
1032.876	0.0773974
1033.032	0.07233035
1033.188	0.0745164
1033.344	0.07514035
1033.5	0.07643153
1033.655	0.07963627
1033.811	0.07617328
1033.967	0.07583759
