Data from 0_1_mm_pl_40pc_Absorbance__0__16-30-46-514.txt Node

Date: Fri Feb 24 16:30:46 CET 2023
User: Ange
Spectrometer: FLMT08341
Trigger mode: 0
Integration Time (sec): 1.000000E-2
Scans to average: 400
Electric dark correction enabled: true
Nonlinearity correction enabled: false
Boxcar width: 3
XAxis mode: Wavelengths
Number of Pixels in Spectrum: 3648
>>>>>Begin Spectral Data<<<<<
345.271	0.02294079
345.487	0.01312249
345.704	0.01488188
345.921	0.00650092
346.137	-0.00205096
346.354	-0.03796146
346.571	-0.10512799
346.787	-0.26689427
347.004	0.29326372
347.22	0.20144653
347.437	0.15334692
347.653	0.06088603
347.87	0.14571858
348.086	-0
348.303	-0.56157512
348.519	0.45511565
348.736	0.38571534
348.952	0.37581277
349.169	0.37658899
349.385	0.38959845
349.601	0.38330873
349.818	0.37954259
350.034	0.3769929
350.251	0.37544383
350.467	0.37849117
350.683	0.3695837
350.9	0.36885606
351.116	0.36505597
351.332	0.3601389
351.549	0.37011846
351.765	0.38021488
351.981	0.38451308
352.197	0.39971826
352.414	0.41533416
352.63	0.42371319
352.846	0.43438697
353.062	0.42604198
353.278	0.41776032
353.495	0.42524498
353.711	0.42459615
353.927	0.42273237
354.143	0.4220683
354.359	0.41987266
354.575	0.4178042
354.792	0.42820681
355.008	0.42280654
355.224	0.41836835
355.44	0.41433256
355.656	0.41244783
355.872	0.41698945
356.088	0.43658034
356.304	0.43600519
356.52	0.43579566
356.736	0.44052751
356.952	0.4457255
357.168	0.44779258
357.384	0.44948509
357.6	0.43790785
357.816	0.4427777
358.032	0.45087654
358.248	0.4572612
358.464	0.45580752
358.679	0.4592027
358.895	0.4602296
359.111	0.46442806
359.327	0.45561542
359.543	0.45220462
359.759	0.45293322
359.974	0.45268958
360.19	0.44759798
360.406	0.44782587
360.622	0.44297176
360.838	0.43923892
361.053	0.43982752
361.269	0.44015432
361.485	0.43846653
361.701	0.4420439
361.916	0.43511086
362.132	0.43316836
362.348	0.4355466
362.563	0.43518071
362.779	0.43098826
362.995	0.43163351
363.21	0.43352068
363.426	0.43277569
363.641	0.43322011
363.857	0.43487013
364.073	0.43176384
364.288	0.42610789
364.504	0.42916016
364.719	0.42745943
364.935	0.42704603
365.15	0.42645123
365.366	0.42564534
365.581	0.42723252
365.797	0.4289167
366.012	0.42311869
366.228	0.41723467
366.443	0.42077446
366.658	0.41942257
366.874	0.41477097
367.089	0.41482961
367.305	0.41433007
367.52	0.4128799
367.735	0.41163146
367.951	0.40607721
368.166	0.40580105
368.381	0.40737762
368.597	0.40268018
368.812	0.40305245
369.027	0.40366495
369.243	0.4033057
369.458	0.40882861
369.673	0.4071885
369.888	0.40505686
370.104	0.40289465
370.319	0.40210846
370.534	0.39833952
370.749	0.39673122
370.964	0.39298258
371.179	0.39172296
371.395	0.38901806
371.61	0.39056702
371.825	0.38531794
372.04	0.38491328
372.255	0.38275057
372.47	0.37796758
372.685	0.37318723
372.9	0.37145699
373.115	0.36673648
373.33	0.36632672
373.545	0.36524105
373.76	0.36348902
373.975	0.36039371
374.19	0.35837777
374.405	0.35655111
374.62	0.35731811
374.835	0.35692945
375.05	0.35509009
375.265	0.35389717
375.48	0.35400919
375.695	0.35701587
375.91	0.35405364
376.125	0.34931049
376.339	0.34507651
376.554	0.34215636
376.769	0.33991631
376.984	0.33814371
377.199	0.33533671
377.414	0.33342195
377.628	0.33384277
377.843	0.33377784
378.058	0.3327599
378.273	0.33225174
378.487	0.33094773
378.702	0.32911999
378.917	0.32827059
379.131	0.32461316
379.346	0.32103373
379.561	0.31726976
379.775	0.31460106
379.99	0.31048362
380.205	0.30597144
380.419	0.30275617
380.634	0.30040769
380.848	0.30023857
381.063	0.29995455
381.278	0.30049403
381.492	0.29849139
381.707	0.29905069
381.921	0.29818605
382.136	0.29760465
382.35	0.29481571
382.565	0.29223691
382.779	0.28953837
382.994	0.2889946
383.208	0.28674807
383.422	0.28616241
383.637	0.28466585
383.851	0.28377443
384.066	0.28380963
384.28	0.2823589
384.494	0.28057142
384.709	0.27999329
384.923	0.27825632
385.137	0.27538944
385.352	0.27428236
385.566	0.2727976
385.78	0.27068626
385.995	0.26908934
386.209	0.26689267
386.423	0.26580871
386.637	0.26625333
386.852	0.26287686
387.066	0.26051447
387.28	0.25837435
387.494	0.25751394
387.708	0.2561097
387.923	0.25431492
388.137	0.25307862
388.351	0.2536407
388.565	0.25314624
388.779	0.25319011
388.993	0.25293385
389.207	0.25149917
389.421	0.25002507
389.635	0.24756943
389.85	0.24578942
390.064	0.24396964
390.278	0.24264531
390.492	0.24116519
390.706	0.2404569
390.92	0.23991758
391.134	0.23948553
391.348	0.23899323
391.561	0.23771715
391.775	0.23577345
391.989	0.23388044
392.203	0.2324628
392.417	0.23104988
392.631	0.23071193
392.845	0.22904067
393.059	0.22823479
393.273	0.2266179
393.486	0.22483499
393.7	0.2230004
393.914	0.22238176
394.128	0.22069384
394.342	0.21889745
394.555	0.21744032
394.769	0.21715319
394.983	0.2167374
395.197	0.21650034
395.41	0.21494108
395.624	0.2138532
395.838	0.21302102
396.051	0.21300294
396.265	0.21142918
396.479	0.21057635
396.692	0.20939942
396.906	0.20791926
397.12	0.20665579
397.333	0.20606411
397.547	0.20422468
397.76	0.20408079
397.974	0.20316284
398.187	0.20236974
398.401	0.20211782
398.614	0.20146959
398.828	0.20058807
399.041	0.19972733
399.255	0.1982111
399.468	0.19712316
399.682	0.19589388
399.895	0.19530738
400.109	0.1942219
400.322	0.19299326
400.536	0.1918674
400.749	0.19177957
400.962	0.19135678
401.176	0.19040217
401.389	0.18891076
401.602	0.18752918
401.816	0.18700282
402.029	0.18669389
402.242	0.18535717
402.456	0.1839894
402.669	0.18296616
402.882	0.1817319
403.095	0.18165301
403.309	0.18138069
403.522	0.18057901
403.735	0.17988612
403.948	0.1794666
404.161	0.17982242
404.375	0.17935799
404.588	0.17877143
404.801	0.177664
405.014	0.17699207
405.227	0.1767465
405.44	0.176271
405.653	0.17544663
405.866	0.17460243
406.079	0.17358309
406.293	0.17274237
406.506	0.1718717
406.719	0.1709594
406.932	0.17001678
407.145	0.16899698
407.358	0.16897023
407.571	0.16797607
407.784	0.16759491
407.996	0.16686577
408.209	0.16593021
408.422	0.16508821
408.635	0.16484627
408.848	0.1641435
409.061	0.16369673
409.274	0.16281497
409.487	0.1623692
409.7	0.16188432
409.912	0.16153679
410.125	0.16051564
410.338	0.15980463
410.551	0.15921925
410.764	0.15891102
410.976	0.15820816
411.189	0.15761543
411.402	0.15696526
411.615	0.15685972
411.827	0.15641479
412.04	0.15612988
412.253	0.15537896
412.465	0.15496681
412.678	0.15428126
412.891	0.15413042
413.103	0.15302348
413.316	0.15242765
413.529	0.15214594
413.741	0.15181536
413.954	0.15133817
414.166	0.15108129
414.379	0.1502277
414.591	0.15033821
414.804	0.14976271
415.016	0.14926613
415.229	0.14857438
415.441	0.14823757
415.654	0.1481129
415.866	0.14806398
416.079	0.14748343
416.291	0.14716838
416.504	0.14657932
416.716	0.14641514
416.928	0.14601345
417.141	0.14530232
417.353	0.14479264
417.566	0.14418629
417.778	0.14391271
417.99	0.14330151
418.203	0.14264587
418.415	0.14247303
418.627	0.14211898
418.839	0.14168074
419.052	0.14159493
419.264	0.14126046
419.476	0.14100132
419.688	0.14103003
419.901	0.14030882
420.113	0.13975684
420.325	0.13936869
420.537	0.13881584
420.749	0.13835539
420.961	0.13819195
421.174	0.13762381
421.386	0.13710185
421.598	0.13690107
421.81	0.13656569
422.022	0.13616748
422.234	0.13597796
422.446	0.13566865
422.658	0.13542791
422.87	0.13533519
423.082	0.13513829
423.294	0.13470338
423.506	0.13453076
423.718	0.13409514
423.93	0.13360859
424.142	0.13307299
424.354	0.13275921
424.566	0.13245067
424.778	0.13220728
424.99	0.13183798
425.202	0.13154166
425.414	0.13131185
425.625	0.13128721
425.837	0.13098896
426.049	0.13080602
426.261	0.13056259
426.473	0.13018093
426.684	0.12988875
426.896	0.12981615
427.108	0.12934751
427.32	0.12924445
427.531	0.12881073
427.743	0.12872282
427.955	0.12872419
428.167	0.12860585
428.378	0.12848056
428.59	0.12821514
428.802	0.12790178
429.013	0.12762207
429.225	0.12724854
429.436	0.1269704
429.648	0.12674818
429.86	0.12635922
430.071	0.12632713
430.283	0.12606543
430.494	0.12619537
430.706	0.12615761
430.917	0.1259657
431.129	0.12585741
431.34	0.12564452
431.552	0.12550809
431.763	0.12521414
431.975	0.12490295
432.186	0.12455814
432.398	0.12436355
432.609	0.12400806
432.821	0.12395934
433.032	0.12380584
433.243	0.1236271
433.455	0.12342103
433.666	0.1233637
433.877	0.12324489
434.089	0.12298483
434.3	0.12265703
434.511	0.12234419
434.723	0.12223023
434.934	0.12206169
435.145	0.12168932
435.356	0.1214085
435.568	0.12147404
435.779	0.12141352
435.99	0.12132527
436.201	0.12123886
436.412	0.12087258
436.624	0.1209048
436.835	0.12088391
437.046	0.1206224
437.257	0.12037291
437.468	0.12012323
437.679	0.11986288
437.89	0.11969087
438.101	0.11959287
438.312	0.11932396
438.523	0.1189791
438.734	0.11890721
438.945	0.11881289
439.156	0.11857635
439.367	0.11873204
439.578	0.11869444
439.789	0.1184237
440	0.11837825
440.211	0.11798413
440.422	0.11778116
440.633	0.11776295
440.844	0.11719507
441.055	0.11678534
441.266	0.11674411
441.477	0.11653249
441.687	0.11633833
441.898	0.11615427
442.109	0.11581908
442.32	0.11583862
442.531	0.11561212
442.741	0.11535219
442.952	0.11523225
443.163	0.11528615
443.374	0.11514788
443.584	0.11506725
443.795	0.11495011
444.006	0.11494027
444.216	0.11477971
444.427	0.11470238
444.638	0.11453087
444.848	0.11449417
445.059	0.11450132
445.27	0.11438373
445.48	0.11410028
445.691	0.11411225
445.901	0.11400713
446.112	0.11379395
446.323	0.11355684
446.533	0.11326761
446.744	0.11302775
446.954	0.11298346
447.165	0.11269
447.375	0.11250242
447.586	0.11248135
447.796	0.11228603
448.006	0.11236121
448.217	0.11234068
448.427	0.11214804
448.638	0.11214713
448.848	0.11191948
449.058	0.11185322
449.269	0.11186705
449.479	0.11155953
449.689	0.11136604
449.9	0.1113567
450.11	0.11126027
450.32	0.1113126
450.531	0.11115869
450.741	0.11102085
450.951	0.11112767
451.161	0.11111847
451.372	0.11098811
451.582	0.111117
451.792	0.11101547
452.002	0.11095321
452.212	0.11091347
452.422	0.11083532
452.633	0.11080745
452.843	0.11085259
453.053	0.11049336
453.263	0.11043865
453.473	0.11032427
453.683	0.11039631
453.893	0.11025487
454.103	0.11030483
454.313	0.11023519
454.523	0.1103553
454.733	0.11028663
454.943	0.11031629
455.153	0.11013859
455.363	0.10998398
455.573	0.10986592
455.783	0.1098083
455.993	0.10961969
456.203	0.10979545
456.413	0.10973396
456.623	0.10967628
456.833	0.10980748
457.042	0.10978575
457.252	0.10983499
457.462	0.10982776
457.672	0.10968723
457.882	0.10967708
458.091	0.10965795
458.301	0.10953145
458.511	0.10936817
458.721	0.1091928
458.931	0.10918189
459.14	0.10905729
459.35	0.10904705
459.56	0.10905367
459.769	0.10917796
459.979	0.10933779
460.189	0.10934848
460.398	0.1094333
460.608	0.10948882
460.817	0.10943746
461.027	0.10942986
461.237	0.10937692
461.446	0.10926623
461.656	0.10936601
461.865	0.1091622
462.075	0.1091107
462.284	0.10903684
462.494	0.10898872
462.703	0.10888158
462.913	0.10880903
463.122	0.1087488
463.332	0.10891471
463.541	0.10898906
463.751	0.10901573
463.96	0.10899147
464.169	0.10906207
464.379	0.10911701
464.588	0.10917036
464.797	0.10918325
465.007	0.10904468
465.216	0.10909531
465.425	0.10909556
465.635	0.1091079
465.844	0.10916758
466.053	0.10911046
466.263	0.1091339
466.472	0.10934375
466.681	0.10943435
466.89	0.10937625
467.099	0.10947309
467.309	0.10941893
467.518	0.10949972
467.727	0.10948526
467.936	0.10937244
468.145	0.10936598
468.354	0.10952162
468.563	0.10949873
468.772	0.10950611
468.982	0.10938023
469.191	0.10945831
469.4	0.10945235
469.609	0.10933695
469.818	0.10941702
470.027	0.10937276
470.236	0.10935199
470.445	0.10945079
470.654	0.10937873
470.863	0.10936315
471.072	0.10949315
471.28	0.10948301
471.489	0.10954928
471.698	0.10961369
471.907	0.10959506
472.116	0.10963267
472.325	0.1097157
472.534	0.10978259
472.743	0.10970758
472.951	0.1097414
473.16	0.10985709
473.369	0.10994005
473.578	0.11001502
473.786	0.11011709
473.995	0.11020733
474.204	0.11043647
474.413	0.1105531
474.621	0.11067827
474.83	0.11081047
475.039	0.11082356
475.247	0.11098117
475.456	0.11095009
475.665	0.11101048
475.873	0.11104109
476.082	0.11103933
476.291	0.11100866
476.499	0.11113112
476.708	0.11111131
476.916	0.11132427
477.125	0.1113331
477.333	0.11151027
477.542	0.11166206
477.75	0.11182788
477.959	0.11197321
478.167	0.11210237
478.376	0.11210072
478.584	0.11216285
478.793	0.11222271
479.001	0.11235804
479.209	0.11242844
479.418	0.11240857
479.626	0.11253329
479.834	0.11262952
480.043	0.11288029
480.251	0.11290766
480.459	0.11286337
480.668	0.11289151
480.876	0.11306985
481.084	0.11308875
481.293	0.11312787
481.501	0.1130861
481.709	0.11322947
481.917	0.11333923
482.125	0.11353048
482.334	0.1135989
482.542	0.11366364
482.75	0.11379709
482.958	0.11394423
483.166	0.11408152
483.374	0.11423117
483.583	0.1142875
483.791	0.11440567
483.999	0.11459178
484.207	0.11472369
484.415	0.1148369
484.623	0.11491174
484.831	0.11500872
485.039	0.11519224
485.247	0.11537649
485.455	0.11555908
485.663	0.11576074
485.871	0.11586435
486.079	0.1159776
486.287	0.11613552
486.495	0.11623062
486.702	0.11632471
486.91	0.11636244
487.118	0.11642091
487.326	0.11664289
487.534	0.11679891
487.742	0.11694969
487.95	0.11719196
488.157	0.11740843
488.365	0.11766811
488.573	0.11785766
488.781	0.11796108
488.988	0.1181916
489.196	0.11838163
489.404	0.11848449
489.612	0.11857877
489.819	0.11866736
490.027	0.11884425
490.235	0.11900517
490.442	0.11911317
490.65	0.11926699
490.857	0.11946485
491.065	0.11956379
491.273	0.11972106
491.48	0.11987036
491.688	0.11996718
491.895	0.12003285
492.103	0.12021241
492.31	0.12033082
492.518	0.12054606
492.725	0.12075824
492.933	0.12089421
493.14	0.12118925
493.348	0.12145696
493.555	0.12160888
493.763	0.12170594
493.97	0.12190004
494.177	0.12209013
494.385	0.12230461
494.592	0.12242426
494.8	0.12260534
495.007	0.12283154
495.214	0.12310783
495.422	0.1233283
495.629	0.12347817
495.836	0.12358658
496.043	0.1237732
496.251	0.12398429
496.458	0.12416541
496.665	0.1243764
496.872	0.12457025
497.08	0.12475644
497.287	0.12505051
497.494	0.12526104
497.701	0.12548358
497.908	0.12563168
498.115	0.125819
498.322	0.12598913
498.53	0.12616331
498.737	0.12632211
498.944	0.12653811
499.151	0.12672572
499.358	0.12692066
499.565	0.12707771
499.772	0.12725038
499.979	0.127472
500.186	0.12769053
500.393	0.12791584
500.6	0.12810963
500.807	0.12829809
501.014	0.128519
501.221	0.12874074
501.427	0.12896147
501.634	0.12915197
501.841	0.12927523
502.048	0.12945985
502.255	0.12967956
502.462	0.12991057
502.669	0.1301439
502.875	0.13041867
503.082	0.13065218
503.289	0.13091936
503.496	0.13117542
503.702	0.13147402
503.909	0.13176083
504.116	0.13200245
504.323	0.13219277
504.529	0.13244663
504.736	0.13269398
504.943	0.13286401
505.149	0.13303376
505.356	0.13321243
505.563	0.13342086
505.769	0.1336352
505.976	0.13389511
506.182	0.13414276
506.389	0.13446819
506.595	0.13475403
506.802	0.13503314
507.008	0.13525172
507.215	0.13559947
507.421	0.13586648
507.628	0.13612075
507.834	0.13633474
508.041	0.13653579
508.247	0.13673194
508.454	0.13705159
508.66	0.1372073
508.866	0.13737711
509.073	0.13762405
509.279	0.13788776
509.486	0.13820914
509.692	0.13842208
509.898	0.13871488
510.105	0.13906273
510.311	0.13933611
510.517	0.13961554
510.723	0.13989338
510.93	0.14012379
511.136	0.14044797
511.342	0.14068492
511.548	0.14085419
511.754	0.14114792
511.961	0.14134446
512.167	0.14155781
512.373	0.14186114
512.579	0.1421367
512.785	0.1424087
512.991	0.14272541
513.197	0.14299797
513.404	0.14331153
513.61	0.14362139
513.816	0.14389757
514.022	0.14420507
514.228	0.14449304
514.434	0.14474978
514.64	0.14498208
514.846	0.14525728
515.052	0.14553733
515.258	0.14577018
515.464	0.14601648
515.669	0.14628672
515.875	0.14656274
516.081	0.14688097
516.287	0.1472093
516.493	0.14750668
516.699	0.14778585
516.905	0.14807451
517.111	0.14832416
517.316	0.14859332
517.522	0.14893369
517.728	0.14926411
517.934	0.14953307
518.139	0.14983314
518.345	0.15007911
518.551	0.1503707
518.757	0.15071612
518.962	0.15093211
519.168	0.15111007
519.374	0.15137591
519.579	0.15173271
519.785	0.15210736
519.991	0.15241487
520.196	0.15268775
520.402	0.1530126
520.607	0.1533999
520.813	0.15378215
521.018	0.1540272
521.224	0.15425328
521.429	0.15458838
521.635	0.1548488
521.84	0.15511981
522.046	0.15539914
522.251	0.15561511
522.457	0.15587079
522.662	0.15618533
522.868	0.1564766
523.073	0.1567873
523.279	0.15706815
523.484	0.1572822
523.689	0.15758612
523.895	0.15795545
524.1	0.15830642
524.305	0.15857473
524.511	0.15883551
524.716	0.15918411
524.921	0.15959307
525.126	0.15988374
525.332	0.16018036
525.537	0.16043869
525.742	0.16080897
525.947	0.16117353
526.153	0.1614285
526.358	0.16171043
526.563	0.16202665
526.768	0.16237277
526.973	0.16271285
527.178	0.1629618
527.383	0.16326502
527.588	0.16363842
527.794	0.16398799
527.999	0.16437034
528.204	0.16457966
528.409	0.16484097
528.614	0.16516466
528.819	0.16544008
529.024	0.16566541
529.229	0.16593863
529.434	0.16619714
529.639	0.16652274
529.843	0.16685595
530.048	0.16713445
530.253	0.16746349
530.458	0.16785172
530.663	0.16819629
530.868	0.16856717
531.073	0.16888018
531.278	0.16917151
531.482	0.16954514
531.687	0.16987025
531.892	0.17011177
532.097	0.17030517
532.302	0.17061474
532.506	0.17094103
532.711	0.17126329
532.916	0.17153737
533.12	0.17179395
533.325	0.17207279
533.53	0.17246411
533.734	0.17272651
533.939	0.17299179
534.144	0.1733111
534.348	0.1735807
534.553	0.17394936
534.757	0.17431002
534.962	0.17459145
535.167	0.17486505
535.371	0.17524873
535.576	0.17553498
535.78	0.1759222
535.985	0.1762084
536.189	0.17653135
536.394	0.17683536
536.598	0.1771448
536.803	0.17739892
537.007	0.1777185
537.211	0.17800431
537.416	0.17829709
537.62	0.17857536
537.825	0.17889663
538.029	0.17923271
538.233	0.17956335
538.438	0.17991801
538.642	0.18020564
538.846	0.18052876
539.05	0.18083642
539.255	0.18110024
539.459	0.18139467
539.663	0.18170536
539.867	0.18199763
540.072	0.18227771
540.276	0.18259211
540.48	0.18296525
540.684	0.1833007
540.888	0.18364844
541.092	0.18396014
541.297	0.18423744
541.501	0.1845495
541.705	0.18486968
541.909	0.18509603
542.113	0.18534479
542.317	0.18560284
542.521	0.18587564
542.725	0.18615823
542.929	0.1864682
543.133	0.18678508
543.337	0.18712848
543.541	0.18749243
543.745	0.18778558
543.949	0.18810696
544.153	0.18837759
544.357	0.18870919
544.56	0.1889919
544.764	0.1893191
544.968	0.18958495
545.172	0.18981009
545.376	0.19000838
545.58	0.19031664
545.783	0.1905553
545.987	0.19081491
546.191	0.19103064
546.395	0.19129446
546.598	0.19163035
546.802	0.19199218
547.006	0.1922515
547.21	0.1924938
547.413	0.19271467
547.617	0.19302337
547.821	0.19332381
548.024	0.19361219
548.228	0.19387854
548.431	0.19415436
548.635	0.19437411
548.839	0.19462155
549.042	0.19484158
549.246	0.19503243
549.449	0.19529118
549.653	0.19553183
549.856	0.19579456
550.06	0.19609908
550.263	0.19647171
550.467	0.1967883
550.67	0.19713555
550.874	0.19739663
551.077	0.19769269
551.28	0.19795697
551.484	0.19822256
551.687	0.19838512
551.891	0.19861899
552.094	0.19883927
552.297	0.19909389
552.501	0.19931879
552.704	0.19955772
552.907	0.19977124
553.11	0.20004346
553.314	0.20032719
553.517	0.20054726
553.72	0.20076584
553.923	0.20100269
554.127	0.20127516
554.33	0.2015323
554.533	0.20180537
554.736	0.20194961
554.939	0.20222419
555.142	0.20249072
555.345	0.20271169
555.549	0.20294571
555.752	0.20319449
555.955	0.20340555
556.158	0.20369211
556.361	0.20391589
556.564	0.20413624
556.767	0.20438264
556.97	0.2046077
557.173	0.20482056
557.376	0.20507911
557.579	0.2052667
557.782	0.20548633
557.984	0.2056528
558.187	0.20591829
558.39	0.20612412
558.593	0.20635975
558.796	0.20647695
558.999	0.20666751
559.202	0.20688879
559.404	0.20711573
559.607	0.20726666
559.81	0.20745516
560.013	0.20759384
560.216	0.20782819
560.418	0.20804012
560.621	0.20818624
560.824	0.20838886
561.026	0.20865298
561.229	0.20885446
561.432	0.20911333
561.634	0.20928765
561.837	0.20953142
562.04	0.20970362
562.242	0.20988028
562.445	0.20997638
562.647	0.21012671
562.85	0.21024329
563.053	0.21040024
563.255	0.21050532
563.458	0.21074499
563.66	0.21093476
563.863	0.21116712
564.065	0.21133956
564.268	0.21151795
564.47	0.21173382
564.672	0.21190688
564.875	0.21203373
565.077	0.21216294
565.28	0.21229802
565.482	0.21245551
565.684	0.21268495
565.887	0.21277347
566.089	0.21290061
566.291	0.21309056
566.494	0.21327953
566.696	0.2134612
566.898	0.21352528
567.1	0.21362944
567.303	0.21385184
567.505	0.21405453
567.707	0.21411887
567.909	0.21419797
568.111	0.21426229
568.314	0.21448352
568.516	0.21463001
568.718	0.21472293
568.92	0.21482441
569.122	0.21495128
569.324	0.21511411
569.526	0.21520581
569.728	0.21528989
569.93	0.21535968
570.132	0.21541115
570.334	0.21551329
570.536	0.21561228
570.738	0.21564905
570.94	0.21568559
571.142	0.21582175
571.344	0.21586174
571.546	0.21598326
571.748	0.21606372
571.95	0.21617668
572.152	0.21631535
572.354	0.21650025
572.555	0.2165835
572.757	0.21672276
572.959	0.21680374
573.161	0.21691307
573.363	0.21694346
573.564	0.21710435
573.766	0.21715164
573.968	0.21727839
574.17	0.21734298
574.371	0.21743592
574.573	0.21749334
574.775	0.21754764
574.976	0.21752382
575.178	0.21759973
575.38	0.21754855
575.581	0.21755979
575.783	0.21764186
575.985	0.21770513
576.186	0.21780668
576.388	0.21787297
576.589	0.21790694
576.791	0.21805025
576.992	0.21815177
577.194	0.21815164
577.395	0.21817505
577.597	0.21827105
577.798	0.21828558
578	0.21834467
578.201	0.21839601
578.402	0.21847272
578.604	0.21850686
578.805	0.21857175
579.007	0.21855623
579.208	0.21868134
579.409	0.21872283
579.611	0.21874568
579.812	0.21876189
580.013	0.21883396
580.215	0.21878447
580.416	0.21884215
580.617	0.21878555
580.818	0.21877397
581.019	0.21875625
581.221	0.21877414
581.422	0.21879259
581.623	0.21888042
581.824	0.21880112
582.025	0.21881949
582.226	0.21879508
582.428	0.21885167
582.629	0.21882162
582.83	0.21885806
583.031	0.21882256
583.232	0.21890658
583.433	0.21894836
583.634	0.21896038
583.835	0.21887022
584.036	0.21884549
584.237	0.21878736
584.438	0.21878969
584.639	0.21875
584.84	0.21876625
585.041	0.21880463
585.242	0.21883101
585.442	0.21887996
585.643	0.2189425
585.844	0.21897014
586.045	0.21899795
586.246	0.21892059
586.447	0.2189019
586.647	0.21890578
586.848	0.21884859
587.049	0.21875295
587.25	0.21865537
587.45	0.21859439
587.651	0.21862803
587.852	0.21863215
588.053	0.21872527
588.253	0.21880117
588.454	0.2188374
588.655	0.21888812
588.855	0.21890428
589.056	0.2189412
589.256	0.21893836
589.457	0.21885021
589.658	0.21883464
589.858	0.2187696
590.059	0.21877729
590.259	0.21877674
590.46	0.21869019
590.66	0.21866988
590.861	0.21872164
591.061	0.21870562
591.262	0.21877779
591.462	0.21884713
591.662	0.2188133
591.863	0.21882637
592.063	0.21881973
592.264	0.21877201
592.464	0.21875456
592.664	0.21872492
592.865	0.2187446
593.065	0.21867191
593.265	0.21867133
593.465	0.218576
593.666	0.21855122
593.866	0.21849899
594.066	0.21852032
594.266	0.21838963
594.467	0.21842494
594.667	0.21830711
594.867	0.21841039
595.067	0.21830115
595.267	0.21816794
595.467	0.2180314
595.668	0.21796893
595.868	0.21791613
596.068	0.21791832
596.268	0.21774529
596.468	0.21776125
596.668	0.21779087
596.868	0.21782471
597.068	0.21778897
597.268	0.21782781
597.468	0.21780313
597.668	0.21778719
597.868	0.21779524
598.068	0.21779948
598.268	0.21773565
598.467	0.21777716
598.667	0.21764836
598.867	0.21758747
599.067	0.21763332
599.267	0.21751551
599.467	0.21743724
599.667	0.21735043
599.866	0.21729289
600.066	0.21729375
600.266	0.21725463
600.466	0.21717909
600.665	0.21715936
600.865	0.21716125
601.065	0.2171931
601.264	0.21711626
601.464	0.21705584
601.664	0.21711654
601.863	0.2171482
602.063	0.21719546
602.263	0.21710396
602.462	0.21708676
602.662	0.2171523
602.861	0.21719579
603.061	0.2171446
603.26	0.21713609
603.46	0.2170104
603.659	0.21706414
603.859	0.21698343
604.058	0.21682399
604.258	0.21681938
604.457	0.21688544
604.657	0.21672292
604.856	0.21671508
605.056	0.21675675
605.255	0.21682023
605.454	0.21694455
605.654	0.21682832
605.853	0.21672695
606.052	0.21679123
606.252	0.21682791
606.451	0.21678117
606.65	0.21673119
606.849	0.21660842
607.049	0.21666166
607.248	0.2166205
607.447	0.21658283
607.646	0.21652126
607.845	0.21650026
608.045	0.21639287
608.244	0.2164739
608.443	0.21641623
608.642	0.21647947
608.841	0.21649757
609.04	0.21648305
609.239	0.2164871
609.438	0.21653218
609.637	0.21656367
609.836	0.21666723
610.035	0.21667484
610.234	0.21674797
610.433	0.21682556
610.632	0.21683296
610.831	0.21696299
611.03	0.21687546
611.229	0.21693284
611.428	0.21698211
611.627	0.21695599
611.826	0.21699952
612.025	0.21712509
612.224	0.21706361
612.422	0.21712975
612.621	0.21710486
612.82	0.21708395
613.019	0.21709044
613.218	0.21714353
613.416	0.21702138
613.615	0.21711463
613.814	0.21718787
614.012	0.21723188
614.211	0.21717697
614.41	0.21729124
614.608	0.21731113
614.807	0.21741416
615.006	0.21751782
615.204	0.2175683
615.403	0.21764996
615.602	0.21781345
615.8	0.21791891
615.999	0.21789057
616.197	0.21792182
616.396	0.21800019
616.594	0.2180037
616.793	0.21808278
616.991	0.21809624
617.19	0.21797016
617.388	0.21816325
617.586	0.21824226
617.785	0.21819761
617.983	0.21829039
618.182	0.21826791
618.38	0.21827198
618.578	0.21841085
618.777	0.21841276
618.975	0.21848515
619.173	0.21859382
619.372	0.21861429
619.57	0.21865818
619.768	0.21886376
619.966	0.2189645
620.165	0.21902893
620.363	0.21913672
620.561	0.21908256
620.759	0.21921708
620.957	0.21940901
621.155	0.2194698
621.354	0.21949142
621.552	0.21966651
621.75	0.21973254
621.948	0.21996926
622.146	0.22009839
622.344	0.22013449
622.542	0.22019472
622.74	0.22037777
622.938	0.22037339
623.136	0.22058666
623.334	0.22073843
623.532	0.22069298
623.73	0.22074301
623.928	0.22090798
624.126	0.2210535
624.324	0.22128264
624.522	0.22121921
624.719	0.22129003
624.917	0.22155548
625.115	0.22165101
625.313	0.22177887
625.511	0.2218464
625.708	0.22177217
625.906	0.22192929
626.104	0.2220078
626.302	0.22220418
626.499	0.22239746
626.697	0.2225103
626.895	0.22254474
627.093	0.22277779
627.29	0.22296413
627.488	0.22308572
627.686	0.22309672
627.883	0.22315337
628.081	0.2231156
628.278	0.22343346
628.476	0.22349932
628.673	0.22360007
628.871	0.22373341
629.068	0.22386147
629.266	0.22405476
629.463	0.2241718
629.661	0.2241569
629.858	0.22424023
630.056	0.22430413
630.253	0.2243499
630.451	0.22451269
630.648	0.22460536
630.845	0.22477944
631.043	0.22490645
631.24	0.22511459
631.438	0.22529377
631.635	0.22547211
631.832	0.22549381
632.029	0.22563832
632.227	0.22578575
632.424	0.22595706
632.621	0.22609935
632.818	0.22615457
633.016	0.22638174
633.213	0.22647126
633.41	0.22670051
633.607	0.22686382
633.804	0.22699943
634.001	0.22708617
634.199	0.22734197
634.396	0.2274391
634.593	0.2275824
634.79	0.2276554
634.987	0.22786247
635.184	0.22800463
635.381	0.22823073
635.578	0.22842879
635.775	0.22849762
635.972	0.22869487
636.169	0.22886023
636.366	0.22886895
636.563	0.22896346
636.76	0.22896188
636.957	0.2290385
637.153	0.22912979
637.35	0.22933105
637.547	0.2294511
637.744	0.22964761
637.941	0.229859
638.138	0.23012547
638.334	0.23022326
638.531	0.23047359
638.728	0.23058109
638.925	0.23082017
639.121	0.23099885
639.318	0.23117643
639.515	0.23128835
639.711	0.23155384
639.908	0.23156443
640.105	0.23168362
640.301	0.2316754
640.498	0.23173003
640.695	0.23189312
640.891	0.23201459
641.088	0.23206512
641.284	0.23234204
641.481	0.23247808
641.677	0.23264592
641.874	0.23272628
642.07	0.23283863
642.267	0.23308047
642.463	0.23322893
642.66	0.23336909
642.856	0.23349609
643.053	0.23354659
643.249	0.23384556
643.445	0.23394269
643.642	0.23404628
643.838	0.23421022
644.034	0.23431042
644.231	0.23444725
644.427	0.23469796
644.623	0.23481097
644.82	0.23503515
645.016	0.23517184
645.212	0.23523099
645.408	0.235427
645.604	0.23575257
645.801	0.23598087
645.997	0.23616161
646.193	0.23621309
646.389	0.23641856
646.585	0.23664601
646.781	0.23687978
646.977	0.23694999
647.173	0.23698909
647.37	0.23708117
647.566	0.23724838
647.762	0.23730982
647.958	0.23746434
648.154	0.23750031
648.35	0.23760459
648.546	0.23776939
648.742	0.23801916
648.937	0.23804064
649.133	0.23823427
649.329	0.23841781
649.525	0.23857503
649.721	0.23875993
649.917	0.23903023
650.113	0.23908137
650.309	0.23944447
650.504	0.23953551
650.7	0.23960576
650.896	0.23979226
651.092	0.23987889
651.287	0.23990235
651.483	0.24016621
651.679	0.24020626
651.875	0.24044569
652.07	0.24054736
652.266	0.2406479
652.462	0.24080147
652.657	0.24096876
652.853	0.24101491
653.048	0.24121173
653.244	0.24120875
653.44	0.2414056
653.635	0.24149956
653.831	0.24175223
654.026	0.2419443
654.222	0.24209315
654.417	0.24222986
654.613	0.24244616
654.808	0.24255355
655.004	0.24278872
655.199	0.24284217
655.394	0.24295377
655.59	0.24315144
655.785	0.24319731
655.98	0.24335902
656.176	0.2434405
656.371	0.24357579
656.566	0.2437297
656.762	0.24378147
656.957	0.24385692
657.152	0.24398196
657.348	0.24410338
657.543	0.24432905
657.738	0.24446828
657.933	0.24456889
658.128	0.24474152
658.324	0.24481454
658.519	0.24500146
658.714	0.24510035
658.909	0.24515109
659.104	0.24525758
659.299	0.24540492
659.494	0.2454852
659.689	0.24569794
659.884	0.24578075
660.079	0.24587126
660.274	0.2459792
660.469	0.24606634
660.664	0.24620355
660.859	0.24633859
661.054	0.24642482
661.249	0.24658148
661.444	0.24673702
661.639	0.24688571
661.834	0.24697147
662.029	0.24706918
662.224	0.24720151
662.418	0.24734761
662.613	0.24748922
662.808	0.24760847
663.003	0.24776484
663.198	0.24791897
663.392	0.24798592
663.587	0.248221
663.782	0.24825313
663.977	0.24832213
664.171	0.24840573
664.366	0.2484973
664.561	0.24857509
664.755	0.24873506
664.95	0.24871296
665.144	0.2488538
665.339	0.24901354
665.534	0.24915748
665.728	0.24930207
665.923	0.24948736
666.117	0.24956384
666.312	0.24969071
666.506	0.24988041
666.701	0.24990941
666.895	0.25001588
667.09	0.25012349
667.284	0.25030645
667.479	0.25042605
667.673	0.25051704
667.867	0.25058502
668.062	0.2506566
668.256	0.25072041
668.45	0.25085635
668.645	0.25073044
668.839	0.25075307
669.033	0.25076376
669.228	0.25076696
669.422	0.25092812
669.616	0.25099782
669.81	0.25107662
670.004	0.25124227
670.199	0.25142708
670.393	0.25156538
670.587	0.2517223
670.781	0.25184084
670.975	0.25206268
671.169	0.25209767
671.363	0.25214902
671.558	0.25219908
671.752	0.25234937
671.946	0.25245071
672.14	0.25250356
672.334	0.25244698
672.528	0.25262974
672.722	0.25267119
672.916	0.25276908
673.11	0.25275494
673.304	0.25291681
673.497	0.25292485
673.691	0.25307628
673.885	0.25295638
674.079	0.25307365
674.273	0.2530365
674.467	0.25314557
674.661	0.25308794
674.854	0.25315917
675.048	0.25321262
675.242	0.25340377
675.436	0.25352616
675.629	0.25373207
675.823	0.2537542
676.017	0.25388627
676.211	0.25392035
676.404	0.25395786
676.598	0.2539886
676.792	0.25399808
676.985	0.25406302
677.179	0.25418969
677.372	0.25419469
677.566	0.25443974
677.76	0.25455609
677.953	0.25459101
678.147	0.25469651
678.34	0.25478783
678.534	0.25484814
678.727	0.25495859
678.921	0.25501656
679.114	0.25492639
679.307	0.25500928
679.501	0.25510837
679.694	0.25512405
679.888	0.25516401
680.081	0.25525188
680.274	0.25522418
680.468	0.25542045
680.661	0.2554719
680.854	0.2555994
681.048	0.2556595
681.241	0.25580989
681.434	0.25586993
681.627	0.25599777
681.821	0.256
682.014	0.25616651
682.207	0.25613745
682.4	0.25621098
682.593	0.25627022
682.786	0.25627139
682.98	0.25626574
683.173	0.25646861
683.366	0.25645952
683.559	0.25648163
683.752	0.25655907
683.945	0.25656666
684.138	0.25668753
684.331	0.2567237
684.524	0.25674836
684.717	0.25679106
684.91	0.25698206
685.103	0.25704831
685.296	0.25713275
685.489	0.25718103
685.682	0.25721664
685.874	0.25731569
686.067	0.25743573
686.26	0.25740298
686.453	0.25747334
686.646	0.25754752
686.839	0.25761941
687.031	0.25773459
687.224	0.25763192
687.417	0.25770387
687.61	0.25772488
687.802	0.25774221
687.995	0.25780302
688.188	0.25782811
688.38	0.25791296
688.573	0.25810066
688.766	0.25816506
688.958	0.25820966
689.151	0.25815757
689.343	0.25816305
689.536	0.25815414
689.729	0.25817807
689.921	0.25816045
690.114	0.25804285
690.306	0.25812451
690.499	0.25825341
690.691	0.25833446
690.884	0.25842528
691.076	0.25846184
691.268	0.25846178
691.461	0.2584701
691.653	0.25848034
691.846	0.25855681
692.038	0.25852818
692.23	0.25848626
692.423	0.25852933
692.615	0.2585625
692.807	0.25866223
692.999	0.25870057
693.192	0.25861958
693.384	0.25869356
693.576	0.25873022
693.768	0.25874098
693.961	0.25876004
694.153	0.25879459
694.345	0.25884384
694.537	0.25893624
694.729	0.25896604
694.921	0.25902948
695.113	0.25913585
695.305	0.25918261
695.498	0.25917493
695.69	0.25924996
695.882	0.25921894
696.074	0.25926916
696.266	0.25929542
696.458	0.25922015
696.65	0.25928918
696.842	0.25938556
697.033	0.25940202
697.225	0.25941228
697.417	0.25948948
697.609	0.25954475
697.801	0.25961222
697.993	0.25971387
698.185	0.25973186
698.376	0.25972285
698.568	0.25974686
698.76	0.25972533
698.952	0.25969326
699.144	0.25971428
699.335	0.25961952
699.527	0.2596413
699.719	0.25963704
699.91	0.25978128
700.102	0.25974371
700.294	0.25983633
700.485	0.25991383
700.677	0.25997787
700.869	0.26005138
701.06	0.26017825
701.252	0.26012974
701.443	0.2602841
701.635	0.26032036
701.826	0.26034693
702.018	0.26040463
702.209	0.26042615
702.401	0.2603607
702.592	0.26044801
702.784	0.26039446
702.975	0.26047108
703.166	0.26044896
703.358	0.26042811
703.549	0.2604931
703.741	0.26056748
703.932	0.26059855
704.123	0.26062109
704.315	0.26064747
704.506	0.26082758
704.697	0.26089583
704.888	0.26095313
705.08	0.26102676
705.271	0.26106826
705.462	0.26108676
705.653	0.26106458
705.844	0.26097463
706.035	0.26110674
706.227	0.26106889
706.418	0.26105852
706.609	0.26105973
706.8	0.26117841
706.991	0.26120892
707.182	0.2612039
707.373	0.26111237
707.564	0.26117911
707.755	0.2611857
707.946	0.26132808
708.137	0.26127899
708.328	0.26134596
708.519	0.26147151
708.71	0.26159302
708.901	0.261631
709.092	0.26172212
709.283	0.26171719
709.473	0.26180215
709.664	0.26187358
709.855	0.26187455
710.046	0.26191501
710.237	0.26195124
710.427	0.26200748
710.618	0.26206101
710.809	0.26206206
711	0.2621192
711.19	0.26204839
711.381	0.2621189
711.572	0.26216176
711.762	0.26223342
711.953	0.26224031
712.144	0.26228207
712.334	0.262279
712.525	0.26242417
712.715	0.26237021
712.906	0.26241024
713.097	0.26234442
713.287	0.26235615
713.478	0.26245418
713.668	0.26248464
713.859	0.26253357
714.049	0.26257286
714.239	0.26263702
714.43	0.26273902
714.62	0.26275932
714.811	0.26278547
715.001	0.26284225
715.191	0.26290532
715.382	0.26296144
715.572	0.26305177
715.762	0.26313233
715.953	0.26325983
716.143	0.26334935
716.333	0.26337007
716.523	0.26337508
716.714	0.26348931
716.904	0.2634413
717.094	0.26352903
717.284	0.26351408
717.474	0.26356535
717.664	0.26368883
717.855	0.2637678
718.045	0.2638253
718.235	0.26400813
718.425	0.26407978
718.615	0.2642532
718.805	0.2643617
718.995	0.26445131
719.185	0.26463384
719.375	0.26477703
719.565	0.2648643
719.755	0.26494124
719.945	0.26501987
720.135	0.26512492
720.325	0.26523988
720.515	0.26526706
720.704	0.2653058
720.894	0.26533919
721.084	0.26537379
721.274	0.2654715
721.464	0.26548842
721.654	0.26556962
721.843	0.2656432
722.033	0.26573642
722.223	0.2657729
722.413	0.26591399
722.602	0.26596045
722.792	0.26609199
722.982	0.26617083
723.171	0.26625009
723.361	0.26636828
723.55	0.26656493
723.74	0.26656492
723.93	0.26657819
724.119	0.26655543
724.309	0.26654553
724.498	0.26659889
724.688	0.266626
724.877	0.26662148
725.067	0.26667939
725.256	0.26678664
725.446	0.26688223
725.635	0.26693799
725.825	0.26693867
726.014	0.26689206
726.203	0.26690136
726.393	0.26685838
726.582	0.2667906
726.771	0.26682863
726.961	0.26683439
727.15	0.26683496
727.339	0.26688908
727.529	0.26694899
727.718	0.2670046
727.907	0.26712012
728.096	0.26712939
728.286	0.26718195
728.475	0.26732261
728.664	0.26736269
728.853	0.26739969
729.042	0.26744316
729.231	0.26740166
729.42	0.26740514
729.609	0.26739843
729.799	0.2673741
729.988	0.26737669
730.177	0.26734781
730.366	0.26741088
730.555	0.26748954
730.744	0.26755121
730.933	0.26759352
731.122	0.26759252
731.31	0.2676276
731.499	0.26763635
731.688	0.26766615
731.877	0.26774287
732.066	0.26776543
732.255	0.26781261
732.444	0.26781044
732.632	0.26782149
732.821	0.26791648
733.01	0.26796568
733.199	0.26792187
733.388	0.26789235
733.576	0.26795521
733.765	0.26809116
733.954	0.26821512
734.142	0.26829325
734.331	0.26836892
734.52	0.26845837
734.708	0.26856035
734.897	0.26855268
735.086	0.26854556
735.274	0.26850154
735.463	0.26848229
735.651	0.26853142
735.84	0.26860185
736.028	0.26866017
736.217	0.26875424
736.405	0.26877692
736.594	0.26885
736.782	0.26882149
736.971	0.26879144
737.159	0.26879345
737.347	0.26885609
737.536	0.26880744
737.724	0.2688682
737.912	0.26886374
738.101	0.26890142
738.289	0.26895461
738.477	0.26893711
738.666	0.26890319
738.854	0.26897905
739.042	0.26898101
739.23	0.2690121
739.418	0.26907063
739.607	0.26913235
739.795	0.26919226
739.983	0.26929781
740.171	0.26935869
740.359	0.26941764
740.547	0.26944081
740.735	0.26951688
740.923	0.26961035
741.112	0.26972112
741.3	0.26977174
741.488	0.26980689
741.676	0.26992246
741.864	0.2700604
742.052	0.27019397
742.239	0.27011501
742.427	0.27013303
742.615	0.2700861
742.803	0.27015232
742.991	0.27013138
743.179	0.27020528
743.367	0.27018301
743.555	0.27032423
743.742	0.27033573
743.93	0.27045342
744.118	0.27044445
744.306	0.27056204
744.494	0.27052638
744.681	0.27057487
744.869	0.27064173
745.057	0.27075188
745.244	0.27086105
745.432	0.27102181
745.62	0.27103658
745.807	0.2711386
745.995	0.27114758
746.182	0.27111186
746.37	0.27115571
746.558	0.27113509
746.745	0.27109806
746.933	0.27114766
747.12	0.27115431
747.308	0.27119965
747.495	0.27119559
747.683	0.27119428
747.87	0.2711897
748.057	0.27131077
748.245	0.27138306
748.432	0.27143738
748.62	0.27157038
748.807	0.27167921
748.994	0.27177593
749.182	0.27183417
749.369	0.27176306
749.556	0.27184994
749.743	0.27191186
749.931	0.27191206
750.118	0.27207322
750.305	0.27211108
750.492	0.27216099
750.68	0.27229003
750.867	0.27232001
751.054	0.27239564
751.241	0.27242897
751.428	0.27240069
751.615	0.27244478
751.802	0.27258801
751.989	0.27265756
752.176	0.27271911
752.363	0.27282087
752.55	0.27292184
752.737	0.27302021
752.924	0.27307567
753.111	0.27310059
753.298	0.27317688
753.485	0.27320194
753.672	0.27316513
753.859	0.27320302
754.046	0.27318382
754.233	0.27313567
754.42	0.27316688
754.606	0.27308174
754.793	0.27308537
754.98	0.27316372
755.167	0.27315754
755.353	0.27319247
755.54	0.27330326
755.727	0.27332804
755.914	0.27341912
756.1	0.27339659
756.287	0.27332094
756.474	0.2733399
756.66	0.27345159
756.847	0.27351764
757.033	0.27354279
757.22	0.27362865
757.407	0.27385521
757.593	0.27409374
757.78	0.27421657
757.966	0.27423449
758.153	0.27429974
758.339	0.27437682
758.526	0.27442345
758.712	0.27435441
758.898	0.27435435
759.085	0.27433344
759.271	0.27440059
759.458	0.27445051
759.644	0.27451798
759.83	0.2745935
760.017	0.27471742
760.203	0.2748149
760.389	0.27498182
760.576	0.27499034
760.762	0.27498429
760.948	0.27497281
761.134	0.27493999
761.32	0.27490933
761.507	0.27485812
761.693	0.27485667
761.879	0.27491287
762.065	0.2750155
762.251	0.27510259
762.437	0.27519624
762.623	0.27528166
762.809	0.27526421
762.995	0.27527078
763.181	0.27533033
763.367	0.27532157
763.553	0.27530408
763.739	0.27537326
763.925	0.27539829
764.111	0.27552117
764.297	0.27565115
764.483	0.27566796
764.669	0.27570044
764.855	0.27580161
765.041	0.27571773
765.227	0.27571202
765.412	0.2757666
765.598	0.27571183
765.784	0.27577585
765.97	0.27592545
766.156	0.27594582
766.341	0.27611464
766.527	0.27619578
766.713	0.27620702
766.898	0.27623681
767.084	0.27621083
767.27	0.27607338
767.455	0.27605791
767.641	0.27601063
767.827	0.27600815
768.012	0.27604574
768.198	0.27612775
768.383	0.2761775
768.569	0.27627166
768.754	0.27631291
768.94	0.27631623
769.125	0.27632953
769.311	0.27631221
769.496	0.2762811
769.682	0.27629844
769.867	0.27631766
770.052	0.27639839
770.238	0.27647682
770.423	0.27650714
770.608	0.27653067
770.794	0.27658715
770.979	0.276636
771.164	0.27670024
771.35	0.27668309
771.535	0.27674118
771.72	0.27674078
771.905	0.27679598
772.09	0.27677128
772.276	0.27677554
772.461	0.2767026
772.646	0.27669736
772.831	0.2767006
773.016	0.27667701
773.201	0.27666165
773.386	0.27676723
773.571	0.27678711
773.756	0.27688102
773.941	0.2769591
774.126	0.27700703
774.311	0.27707555
774.496	0.27713469
774.681	0.27706674
774.866	0.27701607
775.051	0.27697813
775.236	0.27693268
775.421	0.27675833
775.606	0.27672032
775.791	0.27660469
775.976	0.27661506
776.16	0.27662747
776.345	0.27668067
776.53	0.27677229
776.715	0.27691676
776.899	0.276997
777.084	0.27711086
777.269	0.27712725
777.454	0.27718509
777.638	0.27713376
777.823	0.2770736
778.008	0.27700685
778.192	0.27695304
778.377	0.27691242
778.561	0.27693999
778.746	0.2769173
778.931	0.27695032
779.115	0.27702322
779.3	0.27707681
779.484	0.27710803
779.669	0.27711775
779.853	0.27698085
780.037	0.27696675
780.222	0.27690763
780.406	0.27676227
780.591	0.27669106
780.775	0.27662927
780.959	0.27660305
781.144	0.27672305
781.328	0.27672068
781.512	0.27669123
781.697	0.27666124
781.881	0.27663897
782.065	0.27666349
782.249	0.2766637
782.434	0.27657518
782.618	0.27653161
782.802	0.2765424
782.986	0.27665001
783.17	0.27663621
783.354	0.27658911
783.539	0.27648442
783.723	0.27643486
783.907	0.27642075
784.091	0.27634185
784.275	0.27626545
784.459	0.27626927
784.643	0.27628944
784.827	0.27633668
785.011	0.27642843
785.195	0.27645375
785.379	0.27648437
785.563	0.27638576
785.747	0.27623985
785.93	0.27625008
786.114	0.27612039
786.298	0.27594688
786.482	0.27578222
786.666	0.2757144
786.85	0.27569173
787.033	0.27579812
787.217	0.27575925
787.401	0.27589824
787.585	0.27594133
787.768	0.27604136
787.952	0.27605167
788.136	0.27610958
788.319	0.27602027
788.503	0.27590542
788.687	0.27574551
788.87	0.27567806
789.054	0.27558173
789.237	0.27556369
789.421	0.27545564
789.605	0.27538078
789.788	0.27540249
789.972	0.27542192
790.155	0.27540494
790.338	0.27527651
790.522	0.2751483
790.705	0.27512322
790.889	0.27508583
791.072	0.27500702
791.256	0.27494674
791.439	0.27487668
791.622	0.27497407
791.806	0.27508751
791.989	0.27506031
792.172	0.27508773
792.355	0.2751072
792.539	0.27512724
792.722	0.27507873
792.905	0.27496595
793.088	0.27482437
793.271	0.27476986
793.455	0.27467583
793.638	0.27455678
793.821	0.27434968
794.004	0.27423619
794.187	0.27425324
794.37	0.27420466
794.553	0.27424351
794.736	0.27421821
794.919	0.27413325
795.102	0.27415343
795.285	0.27417781
795.468	0.27410987
795.651	0.27406143
795.834	0.27398014
796.017	0.27397209
796.2	0.27395529
796.383	0.27393092
796.566	0.2739132
796.749	0.27379382
796.931	0.27365317
797.114	0.27348575
797.297	0.27334745
797.48	0.27325402
797.663	0.27315395
797.845	0.27304125
798.028	0.27304024
798.211	0.27304348
798.393	0.27304753
798.576	0.27303948
798.759	0.27297441
798.941	0.27296217
799.124	0.27297275
799.307	0.27294737
799.489	0.27297015
799.672	0.27287187
799.854	0.27277558
800.037	0.27269287
800.219	0.27259723
800.402	0.27249605
800.584	0.27228811
800.767	0.27216755
800.949	0.2721388
801.132	0.27215361
801.314	0.27216237
801.496	0.27209333
801.679	0.2719019
801.861	0.27193733
802.043	0.27180126
802.226	0.27170151
802.408	0.27159378
802.59	0.27155374
802.772	0.27155309
802.955	0.2716247
803.137	0.2715239
803.319	0.27151831
803.501	0.27141508
803.684	0.27131782
803.866	0.27117245
804.048	0.27114182
804.23	0.27103173
804.412	0.27097286
804.594	0.27085877
804.776	0.27080772
804.958	0.27073081
805.14	0.27065792
805.322	0.27043132
805.504	0.27033416
805.686	0.27022217
805.868	0.27014955
806.05	0.2700824
806.232	0.26992766
806.414	0.26984939
806.596	0.2698103
806.778	0.26975693
806.96	0.2697052
807.141	0.26958738
807.323	0.2694802
807.505	0.26951301
807.687	0.26943573
807.869	0.2693118
808.05	0.26923399
808.232	0.26907537
808.414	0.26903932
808.595	0.26892637
808.777	0.26867503
808.959	0.26859657
809.14	0.26851622
809.322	0.26844466
809.504	0.26844459
809.685	0.26843735
809.867	0.26839625
810.048	0.26842114
810.23	0.26836945
810.411	0.26833892
810.593	0.26824092
810.774	0.26819653
810.956	0.26810066
811.137	0.26800822
811.319	0.26800394
811.5	0.26792695
811.681	0.26791801
811.863	0.26788351
812.044	0.26777178
812.225	0.26770957
812.407	0.26767826
812.588	0.26751086
812.769	0.26734141
812.951	0.26712574
813.132	0.26693932
813.313	0.26683325
813.494	0.26652811
813.675	0.26638899
813.857	0.26634009
814.038	0.26630964
814.219	0.26622098
814.4	0.26613057
814.581	0.26599621
814.762	0.26599894
814.943	0.26585601
815.124	0.26561687
815.305	0.26540789
815.486	0.26519881
815.667	0.26495943
815.848	0.26472982
816.029	0.26452031
816.21	0.2643458
816.391	0.26429722
816.572	0.26417409
816.753	0.26418067
816.934	0.264095
817.115	0.26407893
817.295	0.26407373
817.476	0.26395736
817.657	0.26380809
817.838	0.26370917
818.019	0.26350232
818.199	0.26338076
818.38	0.26318779
818.561	0.26301169
818.741	0.26289589
818.922	0.2628129
819.103	0.26267825
819.283	0.26259361
819.464	0.26251879
819.645	0.26235408
819.825	0.26223185
820.006	0.26213853
820.186	0.2620099
820.367	0.26189004
820.547	0.26170793
820.728	0.26148303
820.908	0.2614264
821.089	0.26130926
821.269	0.26124249
821.45	0.26112865
821.63	0.26097921
821.81	0.26098784
821.991	0.26105698
822.171	0.2609904
822.351	0.2608298
822.532	0.26066156
822.712	0.26054047
822.892	0.26046852
823.072	0.26027266
823.253	0.26009542
823.433	0.25990545
823.613	0.25982279
823.793	0.25967943
823.973	0.25950811
824.154	0.25931804
824.334	0.25915218
824.514	0.25894672
824.694	0.25882548
824.874	0.25870165
825.054	0.25856932
825.234	0.25840672
825.414	0.25830186
825.594	0.25815962
825.774	0.2580541
825.954	0.25788998
826.134	0.25766996
826.314	0.25747321
826.494	0.25733127
826.674	0.25708544
826.854	0.25687703
827.033	0.2566263
827.213	0.25653164
827.393	0.25642897
827.573	0.2563816
827.753	0.25628152
827.932	0.25639276
828.112	0.25642034
828.292	0.25650357
828.472	0.25635005
828.651	0.25621273
828.831	0.25603903
829.011	0.25588512
829.19	0.25551663
829.37	0.25536022
829.549	0.25517404
829.729	0.25496514
829.909	0.25487647
830.088	0.25464754
830.268	0.25441606
830.447	0.25435571
830.627	0.25419923
830.806	0.25398092
830.986	0.25386419
831.165	0.25369381
831.344	0.25361488
831.524	0.25357727
831.703	0.25333875
831.883	0.25308665
832.062	0.25290576
832.241	0.2527223
832.421	0.25244255
832.6	0.25216915
832.779	0.25189513
832.958	0.25175033
833.138	0.25154683
833.317	0.25135828
833.496	0.25124148
833.675	0.2511706
833.854	0.25120165
834.034	0.25107381
834.213	0.25100785
834.392	0.25098144
834.571	0.25081363
834.75	0.2506557
834.929	0.25046121
835.108	0.25024091
835.287	0.25018775
835.466	0.2499965
835.645	0.24983886
835.824	0.24972827
836.003	0.24958896
836.182	0.24947414
836.361	0.24934896
836.54	0.24907855
836.719	0.2488964
836.897	0.2486572
837.076	0.24854451
837.255	0.24846044
837.434	0.24840646
837.613	0.24826883
837.791	0.24818719
837.97	0.24813858
838.149	0.24802851
838.328	0.24779729
838.506	0.24759773
838.685	0.24738045
838.864	0.24726515
839.042	0.24709836
839.221	0.24689888
839.4	0.24672967
839.578	0.24662787
839.757	0.24633396
839.935	0.24612194
840.114	0.24592283
840.292	0.24586039
840.471	0.24584135
840.649	0.24584714
840.828	0.24559004
841.006	0.24549953
841.185	0.2453336
841.363	0.24511048
841.541	0.24479896
841.72	0.24462065
841.898	0.24430738
842.076	0.2441731
842.255	0.24400899
842.433	0.24378218
842.611	0.24347517
842.789	0.24331294
842.968	0.24293395
843.146	0.2426713
843.324	0.24248198
843.502	0.24234707
843.68	0.24230913
843.859	0.24235847
844.037	0.24225744
844.215	0.24222769
844.393	0.24208384
844.571	0.24193586
844.749	0.24174396
844.927	0.24152799
845.105	0.24128188
845.283	0.24111213
845.461	0.24089318
845.639	0.24078603
845.817	0.24065897
845.995	0.24053056
846.173	0.24029712
846.351	0.24004475
846.529	0.23978466
846.706	0.23951882
846.884	0.23935135
847.062	0.23911779
847.24	0.23890599
847.418	0.23868073
847.595	0.23855084
847.773	0.23837897
847.951	0.23825532
848.129	0.23799954
848.306	0.23787777
848.484	0.23766452
848.662	0.23763285
848.839	0.23761716
849.017	0.23752168
849.194	0.23731864
849.372	0.23726094
849.549	0.23697954
849.727	0.23674818
849.905	0.23645415
850.082	0.23612141
850.26	0.23588826
850.437	0.23568532
850.614	0.23547762
850.792	0.23532603
850.969	0.2352397
851.147	0.23504989
851.324	0.23479865
851.501	0.23466732
851.679	0.23449314
851.856	0.23426311
852.033	0.23419874
852.211	0.23406924
852.388	0.23390443
852.565	0.23373261
852.742	0.23355229
852.92	0.23345674
853.097	0.23322708
853.274	0.23292494
853.451	0.23258122
853.628	0.23246307
853.805	0.23243446
853.982	0.23225909
854.159	0.23203063
854.336	0.2319732
854.514	0.23186878
854.691	0.23174692
854.868	0.23154864
855.045	0.23127673
855.221	0.23099476
855.398	0.23071211
855.575	0.23040497
855.752	0.23018115
855.929	0.23008759
856.106	0.22996278
856.283	0.22990135
856.46	0.22979669
856.637	0.22973815
856.813	0.22962472
856.99	0.22953885
857.167	0.22933894
857.344	0.22914753
857.52	0.22888883
857.697	0.22857431
857.874	0.22832902
858.05	0.22812687
858.227	0.22794923
858.404	0.22770485
858.58	0.22749794
858.757	0.22728437
858.933	0.22722144
859.11	0.2271771
859.287	0.22686426
859.463	0.22659681
859.64	0.22651001
859.816	0.22634481
859.993	0.22627082
860.169	0.22615178
860.345	0.2258742
860.522	0.22579726
860.698	0.2256604
860.875	0.2254276
861.051	0.22522907
861.227	0.22501705
861.404	0.22488655
861.58	0.22471508
861.756	0.2245411
861.932	0.22439137
862.109	0.22421657
862.285	0.22413835
862.461	0.22399073
862.637	0.22365498
862.813	0.22348125
862.99	0.22320185
863.166	0.22294233
863.342	0.22281358
863.518	0.22255621
863.694	0.22226559
863.87	0.22213867
864.046	0.22187963
864.222	0.22188788
864.398	0.22181364
864.574	0.22154477
864.75	0.22141308
864.926	0.22125258
865.102	0.22114613
865.278	0.22097054
865.454	0.22072329
865.63	0.22035131
865.805	0.22013821
865.981	0.21988938
866.157	0.21970387
866.333	0.21936639
866.509	0.21920839
866.684	0.21897635
866.86	0.21890861
867.036	0.21882648
867.212	0.21854978
867.387	0.21825524
867.563	0.21815333
867.739	0.21803534
867.914	0.21792009
868.09	0.2177354
868.265	0.21753134
868.441	0.21737389
868.617	0.21727054
868.792	0.21711915
868.968	0.21695224
869.143	0.21686698
869.319	0.21684166
869.494	0.21667219
869.67	0.21662212
869.845	0.21649594
870.02	0.21619599
870.196	0.21602193
870.371	0.21561598
870.546	0.21538427
870.722	0.2152081
870.897	0.21496242
871.072	0.21470673
871.248	0.21458748
871.423	0.21432992
871.598	0.21434875
871.773	0.21394772
871.949	0.21375158
872.124	0.21360554
872.299	0.2135524
872.474	0.21342717
872.649	0.213322
872.824	0.21306978
872.999	0.21295213
873.174	0.21278706
873.349	0.21260002
873.524	0.21230396
873.699	0.21212497
873.874	0.21186948
874.049	0.21173662
874.224	0.21162201
874.399	0.21140064
874.574	0.21135505
874.749	0.21126618
874.924	0.21112979
875.099	0.21096764
875.274	0.21072412
875.449	0.21058423
875.623	0.21030483
875.798	0.20993597
875.973	0.20960695
876.148	0.20914074
876.322	0.20890801
876.497	0.20865459
876.672	0.2084276
876.846	0.20831461
877.021	0.20813081
877.196	0.20802111
877.37	0.20813813
877.545	0.20814272
877.72	0.20803858
877.894	0.20800142
878.069	0.20790358
878.243	0.20765222
878.418	0.20749737
878.592	0.20712132
878.767	0.20673268
878.941	0.20651935
879.116	0.2061227
879.29	0.20577685
879.464	0.20554792
879.639	0.20526733
879.813	0.20529323
879.987	0.20509372
880.162	0.20498638
880.336	0.20491172
880.51	0.20481365
880.685	0.20479305
880.859	0.20482219
881.033	0.20457537
881.207	0.20434528
881.381	0.20402399
881.556	0.20374014
881.73	0.20356428
881.904	0.20340182
882.078	0.20311708
882.252	0.20285651
882.426	0.20294221
882.6	0.20286928
882.774	0.20280716
882.948	0.20258121
883.122	0.2024096
883.296	0.20228933
883.47	0.20224269
883.644	0.20194848
883.818	0.20171982
883.992	0.20150795
884.166	0.20125526
884.34	0.20094284
884.514	0.2006945
884.687	0.20025202
884.861	0.19991675
885.035	0.19981781
885.209	0.19967773
885.382	0.19968442
885.556	0.19956753
885.73	0.19949199
885.904	0.1995601
886.077	0.1995229
886.251	0.19932518
886.425	0.19903603
886.598	0.1988174
886.772	0.19861513
886.945	0.19811324
887.119	0.1977534
887.292	0.19756333
887.466	0.19751298
887.64	0.19740154
887.813	0.19736371
887.986	0.19733125
888.16	0.19752697
888.333	0.19755467
888.507	0.19750626
888.68	0.19729876
888.854	0.19720677
889.027	0.19683341
889.2	0.19653839
889.374	0.19631745
889.547	0.19606618
889.72	0.19587206
889.893	0.19566766
890.067	0.19542217
890.24	0.19534864
890.413	0.19537459
890.586	0.19517535
890.759	0.19510547
890.933	0.19503027
891.106	0.19479017
891.279	0.19473215
891.452	0.19464289
891.625	0.19420172
891.798	0.19404932
891.971	0.19376538
892.144	0.19341015
892.317	0.19329834
892.49	0.19314113
892.663	0.19292069
892.836	0.19304621
893.009	0.19283038
893.182	0.19272452
893.355	0.19265617
893.527	0.19258955
893.7	0.19249837
893.873	0.19246379
894.046	0.19213054
894.219	0.19218893
894.391	0.19203261
894.564	0.19189762
894.737	0.19147324
894.91	0.19117893
895.082	0.19086967
895.255	0.19068638
895.428	0.19034715
895.6	0.19013783
895.773	0.18990199
895.945	0.18991722
896.118	0.18983965
896.291	0.18984238
896.463	0.18987699
896.636	0.18966038
896.808	0.18958143
896.981	0.18956104
897.153	0.1894115
897.326	0.18920033
897.498	0.18890526
897.67	0.18863856
897.843	0.18853519
898.015	0.1884571
898.187	0.18822114
898.36	0.18790361
898.532	0.18768987
898.704	0.18759358
898.877	0.18736336
899.049	0.1873259
899.221	0.18713221
899.393	0.18698005
899.566	0.18696856
899.738	0.18687241
899.91	0.18669103
900.082	0.18657616
900.254	0.18631215
900.426	0.18604956
900.598	0.18587147
900.77	0.18563357
900.942	0.18548795
901.114	0.18526669
901.286	0.18516923
901.458	0.18501535
901.63	0.1850294
901.802	0.18493428
901.974	0.1848675
902.146	0.18475086
902.318	0.18467645
902.49	0.18454902
902.662	0.18448361
902.834	0.18439184
903.005	0.18445718
903.177	0.1844447
903.349	0.18441144
903.521	0.18430001
903.693	0.18419601
903.864	0.18394644
904.036	0.18373437
904.208	0.18321327
904.379	0.18283907
904.551	0.18258546
904.723	0.18241538
904.894	0.18223208
905.066	0.18235025
905.237	0.18234612
905.409	0.18235707
905.58	0.18246945
905.752	0.18238031
905.923	0.18218979
906.095	0.18202385
906.266	0.18158797
906.438	0.18129038
906.609	0.18118587
906.78	0.18079617
906.952	0.18055156
907.123	0.18044059
907.295	0.18035663
907.466	0.18030386
907.637	0.18005905
907.808	0.17976182
907.98	0.17974196
908.151	0.17977071
908.322	0.17973008
908.493	0.1795148
908.665	0.17943335
908.836	0.17931346
909.007	0.17918005
909.178	0.17906292
909.349	0.17871304
909.52	0.1785723
909.691	0.1783292
909.862	0.17807127
910.033	0.17798522
910.204	0.1778794
910.375	0.17772227
910.546	0.17765069
910.717	0.1773885
910.888	0.17741534
911.059	0.17734623
911.23	0.17711116
911.401	0.17699482
911.572	0.17681746
911.742	0.17676671
911.913	0.17671546
912.084	0.1764445
912.255	0.17628
912.426	0.17614989
912.596	0.17598828
912.767	0.17584182
912.938	0.17565454
913.108	0.17548931
913.279	0.17535953
913.45	0.17530374
913.62	0.17528184
913.791	0.17534695
913.962	0.1753858
914.132	0.17524931
914.303	0.17514741
914.473	0.17516089
914.644	0.17489558
914.814	0.1746078
914.985	0.17434286
915.155	0.17397767
915.326	0.17356641
915.496	0.17320523
915.666	0.17279274
915.837	0.17270137
916.007	0.17250573
916.177	0.17219169
916.348	0.17216523
916.518	0.17235924
916.688	0.17241617
916.858	0.17228412
917.029	0.17207815
917.199	0.17209947
917.369	0.17201502
917.539	0.17197468
917.709	0.17162163
917.88	0.17133378
918.05	0.17126114
918.22	0.17119815
918.39	0.17092583
918.56	0.17079747
918.73	0.17048658
918.9	0.17033095
919.07	0.17027082
919.24	0.17020944
919.41	0.17014485
919.58	0.17011422
919.75	0.17003163
919.92	0.16977258
920.09	0.1697789
920.26	0.169674
920.429	0.16954634
920.599	0.169267
920.769	0.16899486
920.939	0.16865514
921.109	0.16842646
921.278	0.16798679
921.448	0.16768484
921.618	0.1675758
921.787	0.16736909
921.957	0.16748521
922.127	0.16741698
922.296	0.16746102
922.466	0.1674444
922.636	0.16738167
922.805	0.16721785
922.975	0.16714831
923.144	0.1669275
923.314	0.16684307
923.483	0.16666282
923.653	0.16675444
923.822	0.16658233
923.992	0.16631497
924.161	0.16618675
924.331	0.16584553
924.5	0.16576886
924.669	0.16559339
924.839	0.16534435
925.008	0.16528348
925.177	0.16519041
925.347	0.16524094
925.516	0.16521488
925.685	0.16509192
925.854	0.16515205
926.023	0.16497672
926.193	0.16498058
926.362	0.16485783
926.531	0.16458728
926.7	0.16445937
926.869	0.16453573
927.038	0.16448727
927.207	0.1647269
927.376	0.16460225
927.545	0.16464217
927.715	0.1647646
927.884	0.1647858
928.052	0.1648751
928.221	0.16464529
928.39	0.16422294
928.559	0.16417076
928.728	0.16428504
928.897	0.16416387
929.066	0.16423418
929.235	0.16388869
929.404	0.16380914
929.572	0.16401349
929.741	0.16390756
929.91	0.16364121
930.079	0.1634244
930.247	0.16310479
930.416	0.16312645
930.585	0.16279162
930.753	0.16245838
930.922	0.16218434
931.091	0.1619789
931.259	0.16188487
931.428	0.16193045
931.596	0.16180074
931.765	0.16206465
931.934	0.16212009
932.102	0.16199855
932.27	0.16193401
932.439	0.16175486
932.607	0.16149303
932.776	0.16129696
932.944	0.16103197
933.113	0.16063589
933.281	0.16035052
933.449	0.15981511
933.618	0.15944346
933.786	0.15910432
933.954	0.15871041
934.123	0.15867579
934.291	0.15877916
934.459	0.15892702
934.627	0.15931229
934.795	0.15957146
934.964	0.15972404
935.132	0.15966677
935.3	0.15941504
935.468	0.15919252
935.636	0.15910408
935.804	0.15878826
935.972	0.15845262
936.14	0.15830705
936.308	0.15812086
936.476	0.15826674
936.644	0.15810375
936.812	0.15815962
936.98	0.15802938
937.148	0.15795829
937.316	0.15752852
937.484	0.157772
937.652	0.15731438
937.82	0.15751915
937.987	0.1572224
938.155	0.15740534
938.323	0.1572812
938.491	0.15705452
938.658	0.15725388
938.826	0.15740577
938.994	0.1574209
939.162	0.15734801
939.329	0.15744848
939.497	0.15774457
939.665	0.15820567
939.832	0.15861089
940	0.15913721
940.167	0.15841179
940.335	0.15841297
940.502	0.15832165
940.67	0.15777114
940.837	0.15837703
941.005	0.15775515
941.172	0.15709564
941.34	0.15699312
941.507	0.15831298
941.674	0.15851977
941.842	0.15921917
942.009	0.15981472
942.177	0.15882181
942.344	0.15977138
942.511	0.16111811
942.678	0.16114412
942.846	0.16107196
943.013	0.16081653
943.18	0.15981844
943.347	0.16078308
943.514	0.16022666
943.682	0.15995072
943.849	0.15765031
944.016	0.15700061
944.183	0.15675965
944.35	0.15693953
944.517	0.15712037
944.684	0.15621709
944.851	0.15418074
945.018	0.15501188
945.185	0.15523233
945.352	0.15505066
945.519	0.1554401
945.686	0.15494158
945.853	0.15582734
946.02	0.15669729
946.187	0.15641405
946.353	0.15690813
946.52	0.15756023
946.687	0.15600895
946.854	0.15612808
947.021	0.15511975
947.187	0.15519449
947.354	0.15364772
947.521	0.15343885
947.687	0.1517177
947.854	0.15178449
948.021	0.151541
948.187	0.15108124
948.354	0.15017207
948.52	0.1507379
948.687	0.15092777
948.854	0.15281038
949.02	0.15240418
949.187	0.15184785
949.353	0.15240216
949.52	0.15213902
949.686	0.15255741
949.852	0.15191585
950.019	0.15093753
950.185	0.15190049
950.352	0.15223614
950.518	0.15197778
950.684	0.15306847
950.851	0.15285287
951.017	0.15237964
951.183	0.15261874
951.349	0.15168072
951.516	0.15078882
951.682	0.15053609
951.848	0.14949676
952.014	0.14872028
952.18	0.14828767
952.346	0.14844244
952.512	0.14852515
952.679	0.14901571
952.845	0.14841087
953.011	0.14854401
953.177	0.14953937
953.343	0.1492332
953.509	0.14892603
953.675	0.14895867
953.841	0.14889265
954.007	0.14946636
954.172	0.14967706
954.338	0.14853908
954.504	0.14815917
954.67	0.14702176
954.836	0.14684388
955.002	0.14661649
955.167	0.14678308
955.333	0.14545262
955.499	0.14580117
955.665	0.14626503
955.83	0.14681218
955.996	0.14684672
956.162	0.14634534
956.327	0.14557271
956.493	0.14589881
956.659	0.1460994
956.824	0.14585856
956.99	0.14556867
957.155	0.14510443
957.321	0.14501301
957.486	0.14501176
957.652	0.14542439
957.817	0.14502244
957.983	0.14494962
958.148	0.14473717
958.314	0.14461283
958.479	0.14407498
958.644	0.14418731
958.81	0.14412804
958.975	0.14400434
959.14	0.14384775
959.306	0.14338021
959.471	0.14302188
959.636	0.14267963
959.801	0.1430838
959.967	0.14267347
960.132	0.14304141
960.297	0.142705
960.462	0.14279134
960.627	0.14270672
960.792	0.1429066
960.957	0.14231186
961.123	0.14260724
961.288	0.14179405
961.453	0.14236371
961.618	0.14254347
961.783	0.1428244
961.948	0.14287705
962.113	0.1428743
962.277	0.14189406
962.442	0.14196348
962.607	0.14126518
962.772	0.14085045
962.937	0.14037888
963.102	0.1405503
963.267	0.14000171
963.431	0.1403368
963.596	0.14000925
963.761	0.13990329
963.926	0.13984535
964.09	0.14026312
964.255	0.14008829
964.42	0.14001499
964.584	0.14013463
964.749	0.14042101
964.914	0.14029129
965.078	0.14016418
965.243	0.13964075
965.407	0.13948942
965.572	0.13959457
965.736	0.13939865
965.901	0.13900617
966.065	0.13927397
966.23	0.13957406
966.394	0.13984143
966.559	0.13966506
966.723	0.13924928
966.887	0.13905719
967.052	0.13902515
967.216	0.1384905
967.38	0.13746612
967.545	0.13739075
967.709	0.13750199
967.873	0.13814293
968.037	0.1382448
968.202	0.13808132
968.366	0.13846021
968.53	0.1393229
968.694	0.13934037
968.858	0.13899993
969.022	0.13829439
969.187	0.13780961
969.351	0.13776329
969.515	0.13775986
969.679	0.1371199
969.843	0.13630624
970.007	0.1358113
970.171	0.13626209
970.335	0.13639678
970.499	0.13670308
970.662	0.13623471
970.826	0.13626137
970.99	0.13628532
971.154	0.13699219
971.318	0.13689629
971.482	0.1366995
971.645	0.13625409
971.809	0.13640648
971.973	0.13646012
972.137	0.13642562
972.3	0.13590711
972.464	0.13582555
972.628	0.13614782
972.791	0.13686321
972.955	0.1372417
973.119	0.13743659
973.282	0.13712661
973.446	0.13699857
973.609	0.13663631
973.773	0.13640029
973.936	0.13554794
974.1	0.13528952
974.263	0.13485354
974.427	0.13518596
974.59	0.13514199
974.754	0.13484676
974.917	0.13463506
975.08	0.13445949
975.244	0.13355537
975.407	0.13389689
975.57	0.13388902
975.734	0.13347051
975.897	0.13351893
976.06	0.13312198
976.223	0.13303974
976.387	0.13342481
976.55	0.1326718
976.713	0.13210342
976.876	0.13242156
977.039	0.13163662
977.202	0.13230992
977.365	0.13225481
977.528	0.13225814
977.692	0.13275714
977.855	0.13267845
978.018	0.13236687
978.181	0.13275113
978.344	0.13223851
978.506	0.13245809
978.669	0.13211454
978.832	0.13177558
978.995	0.13166464
979.158	0.13202382
979.321	0.13209105
979.484	0.13155261
979.646	0.13122171
979.809	0.13165362
979.972	0.13135619
980.135	0.13190591
980.297	0.1311009
980.46	0.13089335
980.623	0.13146222
980.786	0.1313219
980.948	0.13096374
981.111	0.13069243
981.273	0.12998538
981.436	0.13061815
981.599	0.13078116
981.761	0.13012812
981.924	0.13016283
982.086	0.12983201
982.249	0.13006223
982.411	0.13008407
982.573	0.12943954
982.736	0.12946184
982.898	0.12946762
983.061	0.12889828
983.223	0.12898056
983.385	0.12870876
983.548	0.12905367
983.71	0.12924024
983.872	0.12851084
984.034	0.12793418
984.197	0.12804538
984.359	0.12802534
984.521	0.12845404
984.683	0.12860776
984.845	0.12895944
985.008	0.12906839
985.17	0.1302955
985.332	0.13040758
985.494	0.12980011
985.656	0.12974986
985.818	0.12930779
985.98	0.12904731
986.142	0.12886238
986.304	0.12782595
986.466	0.12692475
986.628	0.12703662
986.79	0.12681744
986.952	0.12633258
987.113	0.12609121
987.275	0.12614701
987.437	0.12649201
987.599	0.12764744
987.761	0.12821117
987.922	0.12757859
988.084	0.12831293
988.246	0.12823251
988.408	0.12840382
988.569	0.12805685
988.731	0.12807408
988.893	0.12807015
989.054	0.1289959
989.216	0.12872572
989.377	0.12799494
989.539	0.12774192
989.701	0.12736414
989.862	0.12654392
990.024	0.12564161
990.185	0.12487755
990.347	0.124133
990.508	0.12437404
990.669	0.12440266
990.831	0.12592049
990.992	0.12678625
991.154	0.12650705
991.315	0.12719929
991.476	0.12815568
991.638	0.1284708
991.799	0.12869749
991.96	0.12730148
992.121	0.12699632
992.283	0.12688618
992.444	0.12621507
992.605	0.12512705
992.766	0.1255221
992.927	0.12504704
993.088	0.12504151
993.249	0.12447654
993.41	0.1244007
993.572	0.12441007
993.733	0.12527756
993.894	0.12405067
994.055	0.12310751
994.216	0.12303454
994.376	0.12256186
994.537	0.1233555
994.698	0.12400593
994.859	0.12358151
995.02	0.1239424
995.181	0.12373828
995.342	0.12421798
995.503	0.12482212
995.663	0.12426801
995.824	0.12254821
995.985	0.12348965
996.146	0.12381587
996.306	0.12462147
996.467	0.12482311
996.628	0.12604081
996.788	0.12555661
996.949	0.1271668
997.11	0.12560657
997.27	0.12453551
997.431	0.12415059
997.591	0.12238783
997.752	0.11995724
997.912	0.1212058
998.073	0.12043502
998.233	0.12216547
998.394	0.12278001
998.554	0.12440133
998.714	0.12579448
998.875	0.12628927
999.035	0.12554802
999.196	0.12555471
999.356	0.12460902
999.516	0.12541527
999.676	0.12516842
999.837	0.12435769
999.997	0.12404204
1000.157	0.12398341
1000.317	0.12269275
1000.477	0.12137726
1000.638	0.12063616
1000.798	0.12051521
1000.958	0.12054569
1001.118	0.1211691
1001.278	0.12121107
1001.438	0.12186371
1001.598	0.12214209
1001.758	0.12110836
1001.918	0.12062724
1002.078	0.12015534
1002.238	0.12033344
1002.398	0.12106078
1002.558	0.12056211
1002.718	0.12038916
1002.878	0.12142395
1003.037	0.11911077
1003.197	0.12058567
1003.357	0.11962765
1003.517	0.11968957
1003.677	0.11945009
1003.836	0.11940872
1003.996	0.11974937
1004.156	0.12123928
1004.315	0.12211765
1004.475	0.12299548
1004.635	0.12260048
1004.794	0.12461708
1004.954	0.12522035
1005.114	0.12474736
1005.273	0.12523371
1005.433	0.12254392
1005.592	0.12275779
1005.752	0.12175322
1005.911	0.12045602
1006.071	0.12116123
1006.23	0.1203585
1006.389	0.12007959
1006.549	0.12038259
1006.708	0.11993612
1006.868	0.11957273
1007.027	0.12099593
1007.186	0.12089392
1007.345	0.12229404
1007.505	0.1229484
1007.664	0.12469267
1007.823	0.12386081
1007.982	0.12557071
1008.142	0.1243182
1008.301	0.12419229
1008.46	0.12302121
1008.619	0.12130281
1008.778	0.12017602
1008.937	0.12081462
1009.096	0.12022958
1009.255	0.1205775
1009.414	0.11851704
1009.573	0.11803484
1009.732	0.11954347
1009.891	0.11918693
1010.05	0.12000701
1010.209	0.11871286
1010.368	0.11839564
1010.527	0.11933852
1010.686	0.12206452
1010.845	0.12038461
1011.003	0.12118381
1011.162	0.11888303
1011.321	0.11626677
1011.48	0.1175873
1011.638	0.11731467
1011.797	0.11591595
1011.956	0.11570222
1012.115	0.11578868
1012.273	0.11621485
1012.432	0.1190634
1012.59	0.11507032
1012.749	0.11488459
1012.908	0.11383516
1013.066	0.11576682
1013.225	0.11557112
1013.383	0.11609301
1013.542	0.11541202
1013.7	0.11886273
1013.859	0.11915085
1014.017	0.12025825
1014.175	0.11805432
1014.334	0.11816724
1014.492	0.11925388
1014.65	0.12156489
1014.809	0.12108395
1014.967	0.12327291
1015.125	0.12430851
1015.284	0.12772395
1015.442	0.12769926
1015.6	0.12710798
1015.758	0.12434202
1015.916	0.12288022
1016.075	0.12095392
1016.233	0.11781613
1016.391	0.11798294
1016.549	0.11915617
1016.707	0.11778533
1016.865	0.12042023
1017.023	0.12095399
1017.181	0.1197937
1017.339	0.12218722
1017.497	0.12091415
1017.655	0.11873636
1017.813	0.11792712
1017.971	0.11648824
1018.129	0.11670287
1018.286	0.12042738
1018.444	0.11750323
1018.602	0.11615509
1018.76	0.1139894
1018.918	0.11739437
1019.075	0.11699415
1019.233	0.11456863
1019.391	0.11190623
1019.549	0.11338862
1019.706	0.11551303
1019.864	0.11879295
1020.022	0.11836187
1020.179	0.12011238
1020.337	0.12159418
1020.494	0.11952096
1020.652	0.11694172
1020.809	0.11753693
1020.967	0.11614172
1021.124	0.11569109
1021.282	0.11671828
1021.439	0.11820279
1021.597	0.12406509
1021.754	0.12588027
1021.911	0.12747994
1022.069	0.12527789
1022.226	0.12365615
1022.384	0.11800055
1022.541	0.1155393
1022.698	0.11250949
1022.855	0.11459125
1023.013	0.11284195
1023.17	0.11223053
1023.327	0.11436278
1023.484	0.11767358
1023.641	0.11721845
1023.798	0.12108476
1023.956	0.12206106
1024.113	0.1187968
1024.27	0.1223997
1024.427	0.12219535
1024.584	0.12374156
1024.741	0.12378971
1024.898	0.1204156
1025.055	0.11522408
1025.212	0.11442384
1025.369	0.10956082
1025.525	0.11041829
1025.682	0.11077984
1025.839	0.11358734
1025.996	0.11242182
1026.153	0.11970563
1026.31	0.12432508
1026.466	0.1305439
1026.623	0.12909365
1026.78	0.13094599
1026.937	0.12922261
1027.093	0.12939113
1027.25	0.12907933
1027.407	0.12452457
1027.563	0.12638665
1027.72	0.12511793
1027.876	0.1230361
1028.033	0.12679645
1028.19	0.12967113
1028.346	0.12292464
1028.503	0.12194705
1028.659	0.12009958
1028.816	0.12561709
1028.972	0.13003076
1029.128	0.13235991
1029.285	0.13112146
1029.441	0.13375179
1029.598	0.12953524
1029.754	0.13388357
1029.91	0.12954048
1030.067	0.12016371
1030.223	0.11938884
1030.379	0.11837111
1030.535	0.12285995
1030.691	0.13119362
1030.848	0.12746812
1031.004	0.13176938
1031.16	0.14311647
1031.316	0.14216728
1031.472	0.14345959
1031.628	0.13644375
1031.784	0.13776302
1031.94	0.14174194
1032.096	0.13309656
1032.252	0.12920592
1032.408	0.1307096
1032.564	0.132657
1032.72	0.13873248
1032.876	0.13417856
1033.032	0.12457804
1033.188	0.1280404
1033.344	0.12827482
1033.5	0.12947628
1033.655	0.1262311
1033.811	0.12275709
1033.967	0.12735555
