Data from 0_1_mm_pl_60pc_Absorbance__0__16-33-48-066.txt Node

Date: Fri Feb 24 16:33:48 CET 2023
User: Ange
Spectrometer: FLMT08341
Trigger mode: 0
Integration Time (sec): 1.000000E-2
Scans to average: 400
Electric dark correction enabled: true
Nonlinearity correction enabled: false
Boxcar width: 3
XAxis mode: Wavelengths
Number of Pixels in Spectrum: 3648
>>>>>Begin Spectral Data<<<<<
345.271	-0.01359854
345.487	-0.01106208
345.704	-0.00210905
345.921	-0.00609478
346.137	-0.01285122
346.354	-0.0428046
346.571	-0.03967329
346.787	-0.0075255
347.004	-0.02255417
347.22	-0.03631527
347.437	-0.16471889
347.653	-0.36930057
347.87	-0
348.086	1.26741859
348.303	0.27888063
348.519	0.36740215
348.736	0.3671719
348.952	0.36778581
349.169	0.38374796
349.385	0.40660037
349.601	0.4113477
349.818	0.4130727
350.034	0.41010639
350.251	0.41242359
350.467	0.42069949
350.683	0.40910584
350.9	0.40751175
351.116	0.40215557
351.332	0.39933693
351.549	0.41030765
351.765	0.42016358
351.981	0.42447411
352.197	0.44503492
352.414	0.46064733
352.63	0.47459295
352.846	0.48186858
353.062	0.4722911
353.278	0.46188901
353.495	0.47343615
353.711	0.4722658
353.927	0.47392102
354.143	0.47520131
354.359	0.47097022
354.575	0.47670234
354.792	0.49096833
355.008	0.4807489
355.224	0.47365221
355.44	0.46955824
355.656	0.46821425
355.872	0.47860467
356.088	0.50028842
356.304	0.50201649
356.52	0.50504336
356.736	0.51328507
356.952	0.51869049
357.168	0.52018672
357.384	0.52268221
357.6	0.50626294
357.816	0.51220085
358.032	0.52045553
358.248	0.53134878
358.464	0.5317574
358.679	0.53610978
358.895	0.53822162
359.111	0.54419149
359.327	0.53482008
359.543	0.53438168
359.759	0.53780482
359.974	0.53759433
360.19	0.53531499
360.406	0.53900383
360.622	0.53565974
360.838	0.534029
361.053	0.53775639
361.269	0.538317
361.485	0.5392659
361.701	0.54332915
361.916	0.53366343
362.132	0.5335496
362.348	0.53507586
362.563	0.53475912
362.779	0.52853885
362.995	0.53027734
363.21	0.53438889
363.426	0.53529814
363.641	0.53703998
363.857	0.54017819
364.073	0.53698772
364.288	0.53138844
364.504	0.5391056
364.719	0.53449079
364.935	0.5346739
365.15	0.53439216
365.366	0.53545507
365.581	0.54121413
365.797	0.54399433
366.012	0.53395937
366.228	0.53020999
366.443	0.53485274
366.658	0.53419594
366.874	0.52618073
367.089	0.5275667
367.305	0.52720393
367.52	0.52807061
367.735	0.52766437
367.951	0.5219723
368.166	0.52152285
368.381	0.53091361
368.597	0.52375484
368.812	0.52559879
369.027	0.52654659
369.243	0.52877725
369.458	0.53727948
369.673	0.53855894
369.888	0.53565232
370.104	0.53293457
370.319	0.5334223
370.534	0.52905976
370.749	0.52604003
370.964	0.52306259
371.179	0.51950732
371.395	0.51349528
371.61	0.51427469
371.825	0.5088814
372.04	0.50981315
372.255	0.50638776
372.47	0.50124112
372.685	0.49525561
372.9	0.49482705
373.115	0.4907161
373.33	0.48951746
373.545	0.48678458
373.76	0.48563654
373.975	0.48226873
374.19	0.47915292
374.405	0.47687134
374.62	0.47829541
374.835	0.47985626
375.05	0.47806249
375.265	0.47658326
375.48	0.47625684
375.695	0.48162559
375.91	0.47778998
376.125	0.47097017
376.339	0.46436666
376.554	0.4623824
376.769	0.4603535
376.984	0.45714581
377.199	0.45549947
377.414	0.45276419
377.628	0.45556063
377.843	0.45744873
378.058	0.45583884
378.273	0.45585402
378.487	0.45447105
378.702	0.45208788
378.917	0.45156228
379.131	0.44716501
379.346	0.44135809
379.561	0.43774447
379.775	0.43434086
379.99	0.43071586
380.205	0.4253244
380.419	0.42032462
380.634	0.41562727
380.848	0.41547884
381.063	0.41415082
381.278	0.41421956
381.492	0.4113502
381.707	0.41236284
381.921	0.41078075
382.136	0.41236896
382.35	0.40813317
382.565	0.40512089
382.779	0.40287478
382.994	0.40174449
383.208	0.39741087
383.422	0.39841079
383.637	0.39561929
383.851	0.39649857
384.066	0.39629204
384.28	0.394966
384.494	0.39274627
384.709	0.3921863
384.923	0.3896575
385.137	0.38595082
385.352	0.38301506
385.566	0.38077287
385.78	0.37743625
385.995	0.37497561
386.209	0.37270534
386.423	0.37188573
386.637	0.3709552
386.852	0.36757747
387.066	0.36533498
387.28	0.36198466
387.494	0.36203914
387.708	0.36021512
387.923	0.35890109
388.137	0.35906208
388.351	0.35885121
388.565	0.35760513
388.779	0.35747737
388.993	0.35748895
389.207	0.35628016
389.421	0.35358785
389.635	0.35013621
389.85	0.34773493
390.064	0.34641071
390.278	0.34488281
390.492	0.34207752
390.706	0.34015142
390.92	0.33858765
391.134	0.33807105
391.348	0.33840374
391.561	0.3360314
391.775	0.33350659
391.989	0.32995469
392.203	0.32922927
392.417	0.3275241
392.631	0.3268778
392.845	0.32391381
393.059	0.32322443
393.273	0.32169588
393.486	0.31997034
393.7	0.31669997
393.914	0.31587008
394.128	0.31355679
394.342	0.31192842
394.555	0.3090136
394.769	0.30723921
394.983	0.30669983
395.197	0.30606171
395.41	0.30409908
395.624	0.30308295
395.838	0.30134221
396.051	0.30171337
396.265	0.30016252
396.479	0.29921796
396.692	0.29827315
396.906	0.29654923
397.12	0.29415004
397.333	0.29389569
397.547	0.29180668
397.76	0.29121345
397.974	0.28984374
398.187	0.28872656
398.401	0.28781735
398.614	0.28685879
398.828	0.28526009
399.041	0.28365894
399.255	0.28201865
399.468	0.28032963
399.682	0.27842543
399.895	0.27741588
400.109	0.27569046
400.322	0.27372154
400.536	0.27203123
400.749	0.2711367
400.962	0.27002821
401.176	0.26842865
401.389	0.26689246
401.602	0.264754
401.816	0.26433036
402.029	0.26385744
402.242	0.26248088
402.456	0.26131345
402.669	0.2599633
402.882	0.25799191
403.095	0.25867664
403.309	0.25747678
403.522	0.25650483
403.735	0.25522703
403.948	0.25403657
404.161	0.25410521
404.375	0.25349162
404.588	0.25162413
404.801	0.25001606
405.014	0.24864391
405.227	0.24810837
405.44	0.24778326
405.653	0.2465619
405.866	0.2449979
406.079	0.24376106
406.293	0.2428773
406.506	0.24125966
406.719	0.23992085
406.932	0.23814829
407.145	0.23660014
407.358	0.23636783
407.571	0.23523022
407.784	0.23412263
407.996	0.23344755
408.209	0.23203742
408.422	0.23102897
408.635	0.23055036
408.848	0.22950462
409.061	0.22801254
409.274	0.22717658
409.487	0.22643679
409.7	0.2258966
409.912	0.22514391
410.125	0.22426709
410.338	0.22350262
410.551	0.22321845
410.764	0.22222053
410.976	0.22153155
411.189	0.22059182
411.402	0.21962857
411.615	0.21841433
411.827	0.21724192
412.04	0.21639316
412.253	0.21533338
412.465	0.21415537
412.678	0.21324658
412.891	0.21271635
413.103	0.21153142
413.316	0.21048257
413.529	0.21007492
413.741	0.2096333
413.954	0.20910171
414.166	0.20841473
414.379	0.2071761
414.591	0.20675077
414.804	0.20607789
415.016	0.20495781
415.229	0.20412347
415.441	0.20277266
415.654	0.20202212
415.866	0.20154657
416.079	0.20115075
416.291	0.20041177
416.504	0.20002889
416.716	0.19952235
416.928	0.19935126
417.141	0.19873461
417.353	0.19818719
417.566	0.19709409
417.778	0.19666936
417.99	0.19540463
418.203	0.19448158
418.415	0.19371136
418.627	0.19300257
418.839	0.19242192
419.052	0.19208224
419.264	0.19137822
419.476	0.19098642
419.688	0.19023373
419.901	0.18974071
420.113	0.18926506
420.325	0.1884058
420.537	0.18752584
420.749	0.18726716
420.961	0.1868777
421.174	0.18625266
421.386	0.18552895
421.598	0.18474326
421.81	0.1841795
422.022	0.18371487
422.234	0.18288773
422.446	0.1821698
422.658	0.18184133
422.87	0.18114371
423.082	0.18077815
423.294	0.1802738
423.506	0.17985489
423.718	0.17915775
423.93	0.17857085
424.142	0.17784526
424.354	0.17717979
424.566	0.17654545
424.778	0.176046
424.99	0.17529502
425.202	0.17461982
425.414	0.17408662
425.625	0.17377354
425.837	0.17322192
426.049	0.1726333
426.261	0.1720696
426.473	0.17159968
426.684	0.17134189
426.896	0.17113477
427.108	0.17044909
427.32	0.1702547
427.531	0.16959971
427.743	0.16930181
427.955	0.16912564
428.167	0.16865678
428.378	0.16802754
428.59	0.1676091
428.802	0.16710196
429.013	0.16681891
429.225	0.16600483
429.436	0.16527614
429.648	0.16489304
429.86	0.16453727
430.071	0.16416202
430.283	0.16369857
430.494	0.16322157
430.706	0.16303981
430.917	0.16271954
431.129	0.16234346
431.34	0.1619131
431.552	0.16158285
431.763	0.16134858
431.975	0.16113439
432.186	0.16073372
432.398	0.16024502
432.609	0.15946271
432.821	0.15909702
433.032	0.15861133
433.243	0.15810196
433.455	0.15761537
433.666	0.15732517
433.877	0.1572587
434.089	0.1569077
434.3	0.1565355
434.511	0.15610881
434.723	0.15586715
434.934	0.15546846
435.145	0.15491303
435.356	0.15432642
435.568	0.15414509
435.779	0.15379065
435.99	0.15352432
436.201	0.15313926
436.412	0.15280276
436.624	0.15282637
436.835	0.1526549
437.046	0.15246205
437.257	0.1520589
437.468	0.15180797
437.679	0.15150103
437.89	0.15130091
438.101	0.15084485
438.312	0.15050656
438.523	0.1502406
438.734	0.15022395
438.945	0.15010468
439.156	0.14968579
439.367	0.14945205
439.578	0.14924077
439.789	0.14886631
440	0.1484119
440.211	0.14782125
440.422	0.14740229
440.633	0.1472168
440.844	0.14670041
441.055	0.14626551
441.266	0.14591436
441.477	0.14573619
441.687	0.1453797
441.898	0.14488279
442.109	0.14441607
442.32	0.14414976
442.531	0.14372937
442.741	0.1434327
442.952	0.14288715
443.163	0.14260118
443.374	0.14237708
443.584	0.14201601
443.795	0.1416824
444.006	0.14144722
444.216	0.1410341
444.427	0.1406485
444.638	0.1403115
444.848	0.13991931
445.059	0.13964176
445.27	0.13935151
445.48	0.13906139
445.691	0.13880608
445.901	0.13874226
446.112	0.13843754
446.323	0.13820467
446.533	0.13806779
446.744	0.13787209
446.954	0.13766044
447.165	0.13748605
447.375	0.1372756
447.586	0.13725267
447.796	0.13700268
448.006	0.13656818
448.217	0.13630955
448.427	0.13609687
448.638	0.13581732
448.848	0.13550513
449.058	0.13509218
449.269	0.13490035
449.479	0.13468669
449.689	0.13446972
449.9	0.13411302
450.11	0.13407857
450.32	0.13400815
450.531	0.13390441
450.741	0.13362287
450.951	0.13354545
451.161	0.13328458
451.372	0.13321466
451.582	0.13304553
451.792	0.13270793
452.002	0.13243588
452.212	0.13231999
452.422	0.13207349
452.633	0.1318161
452.843	0.13161017
453.053	0.13119255
453.263	0.13096634
453.473	0.13073455
453.683	0.13051648
453.893	0.13040819
454.103	0.13040587
454.313	0.1301064
454.523	0.12990474
454.733	0.12988352
454.943	0.12966839
455.153	0.12962342
455.363	0.12937048
455.573	0.12912991
455.783	0.12908492
455.993	0.12897656
456.203	0.12880427
456.413	0.12883926
456.623	0.12858396
456.833	0.1285565
457.042	0.12839731
457.252	0.12820684
457.462	0.1280092
457.672	0.12783397
457.882	0.1275277
458.091	0.12741816
458.301	0.1271539
458.511	0.12705052
458.721	0.12691427
458.931	0.12683673
459.14	0.12676819
459.35	0.12684505
459.56	0.12680302
459.769	0.1267892
459.979	0.12660475
460.189	0.12642564
460.398	0.1263437
460.608	0.12619213
460.817	0.12593991
461.027	0.12577616
461.237	0.125621
461.446	0.12554614
461.656	0.12561426
461.865	0.12545616
462.075	0.12529835
462.284	0.12528756
462.494	0.1251478
462.703	0.12503754
462.913	0.12481674
463.122	0.12454252
463.332	0.1244713
463.541	0.12452315
463.751	0.12434789
463.96	0.12420856
464.169	0.12410175
464.379	0.12424314
464.588	0.12427102
464.797	0.12413997
465.007	0.12400443
465.216	0.12390031
465.425	0.12390978
465.635	0.12398787
465.844	0.12375786
466.053	0.12354304
466.263	0.12353192
466.472	0.12338332
466.681	0.12332314
466.89	0.12308902
467.099	0.1228407
467.309	0.12273652
467.518	0.12281314
467.727	0.12268929
467.936	0.12266884
468.145	0.12265155
468.354	0.12274273
468.563	0.12268545
468.772	0.12270761
468.982	0.12274464
469.191	0.12265034
469.4	0.12254878
469.609	0.12246433
469.818	0.12240011
470.027	0.12236729
470.236	0.12223512
470.445	0.12203357
470.654	0.12198931
470.863	0.12194275
471.072	0.12196386
471.28	0.12190817
471.489	0.12190452
471.698	0.12185132
471.907	0.12188994
472.116	0.12178926
472.325	0.12171186
472.534	0.12159239
472.743	0.12148278
472.951	0.12146971
473.16	0.12147611
473.369	0.12131474
473.578	0.12131752
473.786	0.12132271
473.995	0.12128511
474.204	0.12132734
474.413	0.12127289
474.621	0.12129525
474.83	0.12140431
475.039	0.12145441
475.247	0.12152048
475.456	0.12155891
475.665	0.12159257
475.873	0.12163871
476.082	0.1216451
476.291	0.12163119
476.499	0.12170607
476.708	0.12168755
476.916	0.12176346
477.125	0.12173695
477.333	0.12171412
477.542	0.12179761
477.75	0.12180739
477.959	0.12177655
478.167	0.12179685
478.376	0.12174095
478.584	0.12181058
478.793	0.1218871
479.001	0.1218732
479.209	0.12189943
479.418	0.121897
479.626	0.12193498
479.834	0.12201893
480.043	0.12204941
480.251	0.12205154
480.459	0.12206824
480.668	0.12207453
480.876	0.12212526
481.084	0.12213883
481.293	0.12216154
481.501	0.12217958
481.709	0.1223206
481.917	0.12235573
482.125	0.12248766
482.334	0.12256607
482.542	0.12263904
482.75	0.12271886
482.958	0.12279096
483.166	0.1227731
483.374	0.12288559
483.583	0.12289534
483.791	0.12299357
483.999	0.12302781
484.207	0.12312177
484.415	0.12325051
484.623	0.12331536
484.831	0.12339333
485.039	0.12342673
485.247	0.12347679
485.455	0.12357034
485.663	0.12360044
485.871	0.12367188
486.079	0.12370601
486.287	0.12376066
486.495	0.12380718
486.702	0.12386264
486.91	0.12396528
487.118	0.12406104
487.326	0.12408669
487.534	0.12420654
487.742	0.12428885
487.95	0.12445088
488.157	0.12459863
488.365	0.12472836
488.573	0.1248621
488.781	0.12503525
488.988	0.12522978
489.196	0.12536898
489.404	0.12548286
489.612	0.12563181
489.819	0.12576946
490.027	0.12583433
490.235	0.12588606
490.442	0.12592123
490.65	0.1259835
490.857	0.12607621
491.065	0.12614078
491.273	0.12622297
491.48	0.12636667
491.688	0.12647099
491.895	0.12666986
492.103	0.12684051
492.31	0.12700333
492.518	0.12711757
492.725	0.12728393
492.933	0.12739579
493.14	0.12753488
493.348	0.12762452
493.555	0.1277675
493.763	0.12791343
493.97	0.12807466
494.177	0.12817317
494.385	0.12835081
494.592	0.12848022
494.8	0.12856248
495.007	0.12866535
495.214	0.12876008
495.422	0.12893862
495.629	0.1290761
495.836	0.12917072
496.043	0.12940803
496.251	0.12966179
496.458	0.12984372
496.665	0.13009922
496.872	0.13025849
497.08	0.1304313
497.287	0.13066876
497.494	0.13079454
497.701	0.13093708
497.908	0.1311461
498.115	0.13125733
498.322	0.13134825
498.53	0.13149207
498.737	0.13160836
498.944	0.13179035
499.151	0.13195325
499.358	0.13210228
499.565	0.13227198
499.772	0.13246215
499.979	0.13269513
500.186	0.13291387
500.393	0.13311705
500.6	0.13326951
500.807	0.13348665
501.014	0.13362233
501.221	0.13382783
501.427	0.13398789
501.634	0.13412831
501.841	0.13427157
502.048	0.13449439
502.255	0.13467924
502.462	0.13495564
502.669	0.13519104
502.875	0.13536587
503.082	0.13561897
503.289	0.135828
503.496	0.13594976
503.702	0.13610928
503.909	0.13622819
504.116	0.13641822
504.323	0.1366546
504.529	0.13681712
504.736	0.13704858
504.943	0.1372855
505.149	0.13750394
505.356	0.13778511
505.563	0.13792898
505.769	0.13811359
505.976	0.13827799
506.182	0.13843382
506.389	0.13865151
506.595	0.13888068
506.802	0.13905113
507.008	0.13931926
507.215	0.13953397
507.421	0.13979122
507.628	0.14002852
507.834	0.1402577
508.041	0.14043599
508.247	0.14067183
508.454	0.14093876
508.66	0.14116279
508.866	0.14144435
509.073	0.1416898
509.279	0.14194234
509.486	0.14218659
509.692	0.14241671
509.898	0.14262893
510.105	0.1428838
510.311	0.14311387
510.517	0.14335074
510.723	0.14359145
510.93	0.14384171
511.136	0.14412102
511.342	0.14433368
511.548	0.14458672
511.754	0.14477794
511.961	0.14503974
512.167	0.14526701
512.373	0.14548413
512.579	0.14574783
512.785	0.14604102
512.991	0.1462784
513.197	0.1466159
513.404	0.14684667
513.61	0.14711058
513.816	0.14742529
514.022	0.14765346
514.228	0.14789642
514.434	0.14815358
514.64	0.14836202
514.846	0.14864937
515.052	0.14890994
515.258	0.14916166
515.464	0.1493856
515.669	0.14962327
515.875	0.14992495
516.081	0.15018279
516.287	0.15044972
516.493	0.15074991
516.699	0.15097719
516.905	0.15125963
517.111	0.151479
517.316	0.15172943
517.522	0.15200271
517.728	0.1522719
517.934	0.15248111
518.139	0.1527807
518.345	0.1530411
518.551	0.15342902
518.757	0.15369108
518.962	0.15399977
519.168	0.15422907
519.374	0.15449016
519.579	0.15479663
519.785	0.15506731
519.991	0.15524931
520.196	0.15551306
520.402	0.15577135
520.607	0.15606867
520.813	0.15639891
521.018	0.15664126
521.224	0.15698166
521.429	0.15730888
521.635	0.15756593
521.84	0.15781794
522.046	0.15814041
522.251	0.158411
522.457	0.15866423
522.662	0.15891562
522.868	0.15921298
523.073	0.15948758
523.279	0.15975452
523.484	0.15997396
523.689	0.16027189
523.895	0.16057624
524.1	0.16089596
524.305	0.16116287
524.511	0.16150359
524.716	0.16180247
524.921	0.1621259
525.126	0.16241085
525.332	0.16274887
525.537	0.16305134
525.742	0.16332273
525.947	0.16361655
526.153	0.16391645
526.358	0.1642229
526.563	0.16449975
526.768	0.16473728
526.973	0.16501841
527.178	0.16535893
527.383	0.16564428
527.588	0.16599107
527.794	0.16627111
527.999	0.16659693
528.204	0.1669263
528.409	0.16720075
528.614	0.16746462
528.819	0.1677537
529.024	0.16798186
529.229	0.16823993
529.434	0.16850794
529.639	0.16877449
529.843	0.16903713
530.048	0.16932784
530.253	0.1696109
530.458	0.16993931
530.663	0.17027569
530.868	0.17057927
531.073	0.17089627
531.278	0.17117886
531.482	0.17148739
531.687	0.17177826
531.892	0.17208106
532.097	0.17236142
532.302	0.17264718
532.506	0.17295649
532.711	0.173297
532.916	0.17352618
533.12	0.17382958
533.325	0.1740676
533.53	0.17438141
533.734	0.1746937
533.939	0.17496772
534.144	0.17524308
534.348	0.17557921
534.553	0.17590499
534.757	0.17628374
534.962	0.1766011
535.167	0.17691052
535.371	0.17724058
535.576	0.17755651
535.78	0.17787658
535.985	0.17814284
536.189	0.17841589
536.394	0.17870288
536.598	0.17895064
536.803	0.17918744
537.007	0.17949585
537.211	0.17986559
537.416	0.18016134
537.62	0.18047732
537.825	0.18073658
538.029	0.18113337
538.233	0.18141663
538.438	0.18169906
538.642	0.18189641
538.846	0.18221416
539.05	0.18247475
539.255	0.1827894
539.459	0.18300829
539.663	0.18333143
539.867	0.1836035
540.072	0.18392834
540.276	0.18422457
540.48	0.18453483
540.684	0.18482566
540.888	0.18513395
541.092	0.18542462
541.297	0.18573232
541.501	0.18598543
541.705	0.18620102
541.909	0.18644611
542.113	0.18667521
542.317	0.18696057
542.521	0.18730436
542.725	0.18757675
542.929	0.18792147
543.133	0.18825942
543.337	0.18857156
543.541	0.18890029
543.745	0.18916561
543.949	0.1893932
544.153	0.18962043
544.357	0.18983971
544.56	0.19013375
544.764	0.19038218
544.968	0.19060761
545.172	0.19083274
545.376	0.19105733
545.58	0.19132563
545.783	0.19164357
545.987	0.19191211
546.191	0.19214669
546.395	0.19246648
546.598	0.19278439
546.802	0.19308925
547.006	0.19335126
547.21	0.19355916
547.413	0.19381513
547.617	0.19411362
547.821	0.19438297
548.024	0.19465674
548.228	0.19486727
548.431	0.19517109
548.635	0.19542792
548.839	0.1956472
549.042	0.19589189
549.246	0.19612108
549.449	0.19633617
549.653	0.19660043
549.856	0.19680768
550.06	0.19702453
550.263	0.19730305
550.467	0.19753935
550.67	0.19781933
550.874	0.19802
551.077	0.19827718
551.28	0.19857712
551.484	0.19887495
551.687	0.19906637
551.891	0.19932769
552.094	0.19943287
552.297	0.19972
552.501	0.19996272
552.704	0.20014975
552.907	0.20035621
553.11	0.20057777
553.314	0.20084909
553.517	0.20114242
553.72	0.2013522
553.923	0.20158217
554.127	0.20181518
554.33	0.20196485
554.533	0.20227042
554.736	0.20239916
554.939	0.20260787
555.142	0.20285593
555.345	0.20304181
555.549	0.20321612
555.752	0.20349876
555.955	0.20366213
556.158	0.2039218
556.361	0.20416765
556.564	0.20435565
556.767	0.20460148
556.97	0.20486566
557.173	0.20509636
557.376	0.20529685
557.579	0.20545076
557.782	0.20564555
557.984	0.20582149
558.187	0.20600926
558.39	0.20615993
558.593	0.20632564
558.796	0.2064663
558.999	0.2067056
559.202	0.20689226
559.404	0.2070902
559.607	0.20723083
559.81	0.20738902
560.013	0.2075527
560.216	0.20780033
560.418	0.20791676
560.621	0.2080539
560.824	0.20819099
561.026	0.20840764
561.229	0.20853121
561.432	0.20866676
561.634	0.20875526
561.837	0.20894481
562.04	0.20911738
562.242	0.20933563
562.445	0.20947092
562.647	0.20972837
562.85	0.20985317
563.053	0.20999121
563.255	0.21009042
563.458	0.21026513
563.66	0.21036386
563.863	0.21055245
564.065	0.21067697
564.268	0.2109045
564.47	0.21110437
564.672	0.21128575
564.875	0.21142669
565.077	0.21154425
565.28	0.21162621
565.482	0.21176047
565.684	0.21183277
565.887	0.21188697
566.089	0.21201891
566.291	0.21210736
566.494	0.212255
566.696	0.2123924
566.898	0.2124623
567.1	0.21254944
567.303	0.21271037
567.505	0.21278952
567.707	0.21285644
567.909	0.21290873
568.111	0.21295965
568.314	0.21308055
568.516	0.21321724
568.718	0.213349
568.92	0.21347048
569.122	0.21354603
569.324	0.21366465
569.526	0.21375298
569.728	0.21384713
569.93	0.21392483
570.132	0.21393424
570.334	0.21403991
570.536	0.21416844
570.738	0.21421093
570.94	0.2143025
571.142	0.21441971
571.344	0.21445168
571.546	0.21448085
571.748	0.21451965
571.95	0.21455147
572.152	0.21460824
572.354	0.21468506
572.555	0.2146795
572.757	0.21480007
572.959	0.2149016
573.161	0.21496477
573.363	0.21496511
573.564	0.21513836
573.766	0.21513413
573.968	0.21521726
574.17	0.21523401
574.371	0.21527298
574.573	0.21528375
574.775	0.215358
574.976	0.21531247
575.178	0.21538536
575.38	0.21535188
575.581	0.21532739
575.783	0.21535117
575.985	0.21540646
576.186	0.21540692
576.388	0.2154291
576.589	0.21542759
576.791	0.21551321
576.992	0.21556568
577.194	0.21558386
577.395	0.2155671
577.597	0.21571314
577.798	0.21575737
578	0.21575415
578.201	0.21576429
578.402	0.21573792
578.604	0.21566425
578.805	0.21567342
579.007	0.21557538
579.208	0.21554796
579.409	0.21555572
579.611	0.2155482
579.812	0.21561257
580.013	0.21573383
580.215	0.21568095
580.416	0.21573944
580.617	0.21573004
580.818	0.21572622
581.019	0.21569052
581.221	0.21566473
581.422	0.21559134
581.623	0.21561778
581.824	0.21547893
582.025	0.2154637
582.226	0.21542845
582.428	0.21545908
582.629	0.21540485
582.83	0.21540451
583.031	0.21534732
583.232	0.21542894
583.433	0.21540995
583.634	0.21540743
583.835	0.2153418
584.036	0.21533303
584.237	0.21527102
584.438	0.2152626
584.639	0.21516066
584.84	0.21516165
585.041	0.21509977
585.242	0.21504269
585.442	0.21496957
585.643	0.21501372
585.844	0.21496033
586.045	0.21493291
586.246	0.21478852
586.447	0.21474096
586.647	0.21471227
586.848	0.21462103
587.049	0.21446993
587.25	0.21438129
587.45	0.21431068
587.651	0.21435858
587.852	0.21432609
588.053	0.21436845
588.253	0.21437265
588.454	0.21431608
588.655	0.21428033
588.855	0.21426523
589.056	0.21416275
589.256	0.21413636
589.457	0.21400562
589.658	0.21398608
589.858	0.21397857
590.059	0.213952
590.259	0.21390371
590.46	0.21386461
590.66	0.21376439
590.861	0.213757
591.061	0.21370392
591.262	0.21369375
591.462	0.21371048
591.662	0.21363701
591.863	0.21356048
592.063	0.21349004
592.264	0.2134319
592.464	0.21334647
592.664	0.21325293
592.865	0.21324529
593.065	0.21314001
593.265	0.21310539
593.465	0.21307008
593.666	0.21295746
593.866	0.21290574
594.066	0.21289424
594.266	0.21267908
594.467	0.21261439
594.667	0.21248188
594.867	0.21243978
595.067	0.21238965
595.267	0.21222764
595.467	0.21209988
595.668	0.21201197
595.868	0.21197382
596.068	0.21195447
596.268	0.21178687
596.468	0.21170216
596.668	0.21166487
596.868	0.21159236
597.068	0.21155212
597.268	0.21145735
597.468	0.21131546
597.668	0.21127172
597.868	0.21119475
598.068	0.21113655
598.268	0.21108395
598.467	0.21109991
598.667	0.21097944
598.867	0.21094219
599.067	0.21093665
599.267	0.21083032
599.467	0.21076784
599.667	0.21064769
599.866	0.21052279
600.066	0.21046991
600.266	0.21034292
600.466	0.21023648
600.665	0.21016458
600.865	0.21010377
601.065	0.21005902
601.264	0.20993166
601.464	0.2098719
601.664	0.20992677
601.863	0.20984273
602.063	0.20980584
602.263	0.20959752
602.462	0.20954212
602.662	0.20952725
602.861	0.20953189
603.061	0.20940316
603.26	0.20937435
603.46	0.20928777
603.659	0.20938743
603.859	0.20924685
604.058	0.20907722
604.258	0.2090552
604.457	0.20906659
604.657	0.20887036
604.856	0.20873959
605.056	0.208695
605.255	0.20867828
605.454	0.20874535
605.654	0.20856301
605.853	0.20846805
606.052	0.20850547
606.252	0.20853816
606.451	0.20848682
606.65	0.20843066
606.849	0.20830011
607.049	0.20824524
607.248	0.20817797
607.447	0.20807191
607.646	0.20797676
607.845	0.20788916
608.045	0.20779342
608.244	0.20785428
608.443	0.20783224
608.642	0.20786266
608.841	0.20779108
609.04	0.2077498
609.239	0.20771126
609.438	0.20760875
609.637	0.20758325
609.836	0.20758312
610.035	0.20749629
610.234	0.20758216
610.433	0.20760239
610.632	0.20754106
610.831	0.20772905
611.03	0.20762362
611.229	0.20771273
611.428	0.20773921
611.627	0.20771677
611.826	0.20773237
612.025	0.20789893
612.224	0.20777568
612.422	0.20777061
612.621	0.20770933
612.82	0.20766711
613.019	0.2076623
613.218	0.20768345
613.416	0.20749225
613.615	0.20756289
613.814	0.20757266
614.012	0.20748954
614.211	0.20740791
614.41	0.20741881
614.608	0.20736273
614.807	0.20741135
615.006	0.20742615
615.204	0.2074776
615.403	0.20754787
615.602	0.20764718
615.8	0.20773286
615.999	0.20769476
616.197	0.20770876
616.396	0.2077552
616.594	0.20772449
616.793	0.20780248
616.991	0.20779063
617.19	0.20763564
617.388	0.20780729
617.586	0.2078527
617.785	0.20778672
617.983	0.20781408
618.182	0.20774179
618.38	0.207758
618.578	0.2078509
618.777	0.2078543
618.975	0.20792791
619.173	0.20800018
619.372	0.20805511
619.57	0.20805538
619.768	0.20813489
619.966	0.20825034
620.165	0.20823385
620.363	0.20826815
620.561	0.20821104
620.759	0.20827426
620.957	0.20841594
621.155	0.20847823
621.354	0.2084088
621.552	0.20852181
621.75	0.20848731
621.948	0.20864514
622.146	0.20869852
622.344	0.2086983
622.542	0.20875259
622.74	0.20891291
622.938	0.20887787
623.136	0.20906892
623.334	0.20918794
623.532	0.20913204
623.73	0.20918822
623.928	0.20929202
624.126	0.20935856
624.324	0.20953743
624.522	0.20949041
624.719	0.2094751
624.917	0.20967101
625.115	0.20972621
625.313	0.20977734
625.511	0.2098712
625.708	0.2097722
625.906	0.20983372
626.104	0.20989091
626.302	0.21000507
626.499	0.21011106
626.697	0.21016023
626.895	0.21009525
627.093	0.2102699
627.29	0.21046353
627.488	0.21057057
627.686	0.21063316
627.883	0.21067404
628.081	0.21066229
628.278	0.21098914
628.476	0.21102329
628.673	0.21107756
628.871	0.21117503
629.068	0.21124717
629.266	0.21143481
629.463	0.21151339
629.661	0.21149221
629.858	0.2115759
630.056	0.21164377
630.253	0.21171578
630.451	0.21180993
630.648	0.21186985
630.845	0.21203178
631.043	0.21210189
631.24	0.2123077
631.438	0.21245715
631.635	0.21259189
631.832	0.21259341
632.029	0.21271626
632.227	0.21283659
632.424	0.2129743
632.621	0.21303881
632.818	0.21303504
633.016	0.21314601
633.213	0.2132719
633.41	0.21340877
633.607	0.21348557
633.804	0.21355189
634.001	0.21357774
634.199	0.21381565
634.396	0.2139498
634.593	0.21404534
634.79	0.21412455
634.987	0.2143241
635.184	0.21445158
635.381	0.21466076
635.578	0.21475017
635.775	0.21477097
635.972	0.21495068
636.169	0.21506221
636.366	0.21506173
636.563	0.21517797
636.76	0.21517618
636.957	0.21531433
637.153	0.21537546
637.35	0.21551701
637.547	0.21556623
637.744	0.21572793
637.941	0.21586363
638.138	0.21607591
638.334	0.21608819
638.531	0.21632044
638.728	0.21640772
638.925	0.21668908
639.121	0.21678822
639.318	0.21685958
639.515	0.21694126
639.711	0.21709951
639.908	0.21706832
640.105	0.21720958
640.301	0.21725636
640.498	0.21737011
640.695	0.21759421
640.891	0.21770517
641.088	0.2177692
641.284	0.21797414
641.481	0.21804948
641.677	0.21815046
641.874	0.21823489
642.07	0.21833739
642.267	0.21853225
642.463	0.21869838
642.66	0.21888428
642.856	0.2189689
643.053	0.21897286
643.249	0.21916098
643.445	0.2191878
643.642	0.21923843
643.838	0.21940811
644.034	0.21949315
644.231	0.21962199
644.427	0.21984578
644.623	0.2199343
644.82	0.22011992
645.016	0.22027089
645.212	0.22027049
645.408	0.2203924
645.604	0.22065723
645.801	0.22079064
645.997	0.22095494
646.193	0.22102509
646.389	0.22119958
646.585	0.22142722
646.781	0.22160336
646.977	0.22162248
647.173	0.22171283
647.37	0.22177889
647.566	0.2219486
647.762	0.22200144
647.958	0.22212654
648.154	0.22214188
648.35	0.22231448
648.546	0.22241794
648.742	0.22261126
648.937	0.22257613
649.133	0.22272804
649.329	0.22291402
649.525	0.22306852
649.721	0.2231712
649.917	0.2234209
650.113	0.22345261
650.309	0.22379195
650.504	0.22387458
650.7	0.2238708
650.896	0.2241029
651.092	0.22420149
651.287	0.22426811
651.483	0.2245253
651.679	0.22454983
651.875	0.22473585
652.07	0.2248543
652.266	0.22487289
652.462	0.22498072
652.657	0.22509672
652.853	0.22516138
653.048	0.22532961
653.244	0.22532307
653.44	0.22545094
653.635	0.22552414
653.831	0.22569499
654.026	0.22582717
654.222	0.22590568
654.417	0.22605772
654.613	0.22625157
654.808	0.22638254
655.004	0.22658732
655.199	0.22663621
655.394	0.22670688
655.59	0.22691505
655.785	0.22688661
655.98	0.22698256
656.176	0.22703037
656.371	0.22722071
656.566	0.22736331
656.762	0.22733375
656.957	0.22735907
657.152	0.22749233
657.348	0.22760302
657.543	0.22774916
657.738	0.22778957
657.933	0.22781967
658.128	0.22801234
658.324	0.22811225
658.519	0.22823488
658.714	0.22838031
658.909	0.2284715
659.104	0.22860925
659.299	0.22880518
659.494	0.22888555
659.689	0.22901742
659.884	0.22913622
660.079	0.22915659
660.274	0.22926131
660.469	0.22933098
660.664	0.22940683
660.859	0.22952745
661.054	0.22961699
661.249	0.22971873
661.444	0.22984047
661.639	0.22988068
661.834	0.22986932
662.029	0.2299609
662.224	0.23004347
662.418	0.23015434
662.613	0.23019878
662.808	0.23026097
663.003	0.23040601
663.198	0.23052332
663.392	0.23052447
663.587	0.23072815
663.782	0.23069314
663.977	0.23076643
664.171	0.23089197
664.366	0.230996
664.561	0.2311126
664.755	0.23134527
664.95	0.23132654
665.144	0.23142719
665.339	0.23157358
665.534	0.23162487
665.728	0.23168932
665.923	0.23178469
666.117	0.23180123
666.312	0.23189886
666.506	0.23211506
666.701	0.23213959
666.895	0.23222471
667.09	0.23232114
667.284	0.23242261
667.479	0.23244622
667.673	0.23251052
667.867	0.23257668
668.062	0.23261829
668.256	0.23268192
668.45	0.23281378
668.645	0.23281493
668.839	0.23293755
669.033	0.23296287
669.228	0.23298546
669.422	0.23313754
669.616	0.23321296
669.81	0.23325993
670.004	0.23331858
670.199	0.23340818
670.393	0.23351018
670.587	0.23355198
670.781	0.23360475
670.975	0.23372652
671.169	0.23372447
671.363	0.23376865
671.558	0.23379422
671.752	0.23390427
671.946	0.23402932
672.14	0.23405539
672.334	0.23398995
672.528	0.2341293
672.722	0.2341064
672.916	0.23416949
673.11	0.23409929
673.304	0.23416685
673.497	0.23416938
673.691	0.23432056
673.885	0.23423538
674.079	0.23438242
674.273	0.23429204
674.467	0.234422
674.661	0.23440215
674.854	0.23448801
675.048	0.23450904
675.242	0.23462088
675.436	0.23465527
675.629	0.23483282
675.823	0.23479849
676.017	0.23488647
676.211	0.23487005
676.404	0.23491779
676.598	0.23498812
676.792	0.23504526
676.985	0.23511221
677.179	0.23522358
677.372	0.23520496
677.566	0.23539039
677.76	0.23547924
677.953	0.23549622
678.147	0.23557189
678.34	0.23563988
678.534	0.2356458
678.727	0.23573014
678.921	0.23575618
679.114	0.23568133
679.307	0.23572653
679.501	0.23574202
679.694	0.23570371
679.888	0.23572768
680.081	0.2357537
680.274	0.23569232
680.468	0.23580729
680.661	0.23582179
680.854	0.23599531
681.048	0.23610518
681.241	0.23615882
681.434	0.23621247
681.627	0.23633997
681.821	0.23636087
682.014	0.23647356
682.207	0.23633822
682.4	0.236294
682.593	0.23639431
682.786	0.236353
682.98	0.2363074
683.173	0.23637357
683.366	0.23636176
683.559	0.23640724
683.752	0.23651499
683.945	0.23647115
684.138	0.23658207
684.331	0.23660465
684.524	0.23668916
684.717	0.23666441
684.91	0.23676778
685.103	0.23673964
685.296	0.23683295
685.489	0.23684395
685.682	0.23686539
685.874	0.23687259
686.067	0.23689664
686.26	0.23689295
686.453	0.23689128
686.646	0.23686459
686.839	0.23686626
687.031	0.23690472
687.224	0.23679734
687.417	0.23687248
687.61	0.23684016
687.802	0.23685666
687.995	0.23690908
688.188	0.23695452
688.38	0.23696581
688.573	0.23703631
688.766	0.23706183
688.958	0.23704545
689.151	0.23701738
689.343	0.2370012
689.536	0.23696715
689.729	0.23698366
689.921	0.2370386
690.114	0.23695814
690.306	0.23701374
690.499	0.23708737
690.691	0.23713903
690.884	0.23717427
691.076	0.23722585
691.268	0.23716478
691.461	0.23712791
691.653	0.23712195
691.846	0.23713672
692.038	0.23708729
692.23	0.23704187
692.423	0.2370112
692.615	0.23702316
692.807	0.23709567
692.999	0.23715512
693.192	0.23710464
693.384	0.23712042
693.576	0.2370832
693.768	0.23708683
693.961	0.23705246
694.153	0.23708798
694.345	0.23702266
694.537	0.23703329
694.729	0.23704053
694.921	0.23702805
695.113	0.23708092
695.305	0.23711848
695.498	0.23704473
695.69	0.2371082
695.882	0.23710505
696.074	0.237126
696.266	0.23717559
696.458	0.23708262
696.65	0.23703378
696.842	0.23707593
697.033	0.23702642
697.225	0.2369606
697.417	0.23699104
697.609	0.23695173
697.801	0.2370093
697.993	0.23707196
698.185	0.2370679
698.376	0.2370937
698.568	0.2371572
698.76	0.23711422
698.952	0.23713397
699.144	0.23704788
699.335	0.23700013
699.527	0.23695418
699.719	0.23693879
699.91	0.23699324
700.102	0.23696793
700.294	0.23697682
700.485	0.23701884
700.677	0.23705921
700.869	0.23715694
701.06	0.23719788
701.252	0.23710416
701.443	0.23711856
701.635	0.23712575
701.826	0.23718272
702.018	0.23722437
702.209	0.23720551
702.401	0.23714834
702.592	0.23725388
702.784	0.237241
702.975	0.23724713
703.166	0.23722628
703.358	0.23713586
703.549	0.2371135
703.741	0.23713341
703.932	0.23703432
704.123	0.23698576
704.315	0.23700669
704.506	0.23705613
704.697	0.2370934
704.888	0.23715444
705.08	0.23713234
705.271	0.23721694
705.462	0.23720391
705.653	0.23718435
705.844	0.2371308
706.035	0.23718034
706.227	0.23713341
706.418	0.23715894
706.609	0.23716469
706.8	0.23725522
706.991	0.23722803
707.182	0.23727375
707.373	0.23720411
707.564	0.23723259
707.755	0.23719964
707.946	0.23716517
708.137	0.23707238
708.328	0.23708821
708.519	0.23699755
708.71	0.23702294
708.901	0.23696854
709.092	0.23700993
709.283	0.23703881
709.473	0.23709491
709.664	0.23713332
709.855	0.23709424
710.046	0.23710808
710.237	0.23711031
710.427	0.23712823
710.618	0.23713709
710.809	0.23711978
711	0.23714503
711.19	0.23715822
711.381	0.23720671
711.572	0.2372115
711.762	0.2372329
711.953	0.23722957
712.144	0.23725646
712.334	0.23721828
712.525	0.2373522
712.715	0.23733018
712.906	0.23735504
713.097	0.23728072
713.287	0.23729644
713.478	0.23729965
713.668	0.23736589
713.859	0.23732082
714.049	0.23729014
714.239	0.23733968
714.43	0.23743303
714.62	0.23741104
714.811	0.23745382
715.001	0.23749306
715.191	0.23749775
715.382	0.23751882
715.572	0.23753082
715.762	0.23751451
715.953	0.23760745
716.143	0.23765624
716.333	0.23759532
716.523	0.23763224
716.714	0.23769751
716.904	0.23761507
717.094	0.23768973
717.284	0.23766713
717.474	0.23764818
717.664	0.23772005
717.855	0.23775914
718.045	0.23775564
718.235	0.23786613
718.425	0.23785143
718.615	0.2378536
718.805	0.2379582
718.995	0.23800587
719.185	0.23805807
719.375	0.23816436
719.565	0.23828124
719.755	0.23838122
719.945	0.23846022
720.135	0.23848396
720.325	0.23855388
720.515	0.23860921
720.704	0.23861046
720.894	0.23865696
721.084	0.23865123
721.274	0.23875892
721.464	0.23877649
721.654	0.23874904
721.843	0.23873729
722.033	0.23880505
722.223	0.23875697
722.413	0.23883403
722.602	0.23880321
722.792	0.23886586
722.982	0.23892863
723.171	0.23901305
723.361	0.23902188
723.55	0.23913341
723.74	0.23914626
723.93	0.23916653
724.119	0.23917873
724.309	0.23926965
724.498	0.23923383
724.688	0.23929688
724.877	0.23931173
725.067	0.23931547
725.256	0.23935603
725.446	0.23938692
725.635	0.23932445
725.825	0.23938415
726.014	0.23932649
726.203	0.23931275
726.393	0.23925278
726.582	0.23920999
726.771	0.23919401
726.961	0.23918069
727.15	0.23918688
727.339	0.23919588
727.529	0.23920313
727.718	0.23924677
727.907	0.23928535
728.096	0.23928337
728.286	0.23928605
728.475	0.23933212
728.664	0.23940096
728.853	0.23934825
729.042	0.2393184
729.231	0.23929283
729.42	0.23932386
729.609	0.23935614
729.799	0.23929238
729.988	0.23923032
730.177	0.23925084
730.366	0.23927557
730.555	0.23928995
730.744	0.23926689
730.933	0.23928949
731.122	0.23925265
731.31	0.23927688
731.499	0.23922596
731.688	0.23927383
731.877	0.23927628
732.066	0.23925949
732.255	0.23917451
732.444	0.23923761
732.632	0.2392473
732.821	0.23929518
733.01	0.23934034
733.199	0.23933044
733.388	0.23932874
733.576	0.23937881
733.765	0.23930773
733.954	0.23934042
734.142	0.23937971
734.331	0.239376
734.52	0.23941771
734.708	0.23943745
734.897	0.2394345
735.086	0.23951852
735.274	0.23945263
735.463	0.23942404
735.651	0.23939284
735.84	0.23941526
736.028	0.23946068
736.217	0.23955097
736.405	0.23959388
736.594	0.23968859
736.782	0.23973758
736.971	0.2397521
737.159	0.23972175
737.347	0.23974248
737.536	0.23971015
737.724	0.23970574
737.912	0.2397211
738.101	0.23977382
738.289	0.23986167
738.477	0.23993297
738.666	0.23995201
738.854	0.23999256
739.042	0.24004368
739.23	0.24005498
739.418	0.24005946
739.607	0.24003358
739.795	0.24005045
739.983	0.24012366
740.171	0.2401775
740.359	0.24020604
740.547	0.24021123
740.735	0.24019754
740.923	0.24023546
741.112	0.24029586
741.3	0.24029914
741.488	0.2403317
741.676	0.24042577
741.864	0.24046737
742.052	0.24060352
742.239	0.24055854
742.427	0.2405533
742.615	0.24050924
742.803	0.24047737
742.991	0.24039455
743.179	0.24046605
743.367	0.24041632
743.555	0.24054633
743.742	0.24061104
743.93	0.24072353
744.118	0.24076122
744.306	0.24083293
744.494	0.24081393
744.681	0.24083631
744.869	0.24083356
745.057	0.24085086
745.244	0.2409211
745.432	0.24097585
745.62	0.24102861
745.807	0.2411048
745.995	0.24118924
746.182	0.24124067
746.37	0.2412745
746.558	0.24125484
746.745	0.24122182
746.933	0.2411735
747.12	0.24117245
747.308	0.24122105
747.495	0.24126845
747.683	0.24125536
747.87	0.24127371
748.057	0.24140994
748.245	0.24151883
748.432	0.24158042
748.62	0.24156236
748.807	0.24158937
748.994	0.24166435
749.182	0.24168826
749.369	0.24167761
749.556	0.24170314
749.743	0.24175364
749.931	0.24179228
750.118	0.24185987
750.305	0.241882
750.492	0.24195433
750.68	0.2420255
750.867	0.24205824
751.054	0.24206544
751.241	0.24212073
751.428	0.24216168
751.615	0.24219046
751.802	0.24225544
751.989	0.24227073
752.176	0.24234707
752.363	0.24236473
752.55	0.24241631
752.737	0.2424143
752.924	0.24245915
753.111	0.24250819
753.298	0.24259728
753.485	0.24263514
753.672	0.24274882
753.859	0.24280635
754.046	0.24285884
754.233	0.24292075
754.42	0.24295808
754.606	0.24292898
754.793	0.24295951
754.98	0.24298406
755.167	0.24296346
755.353	0.24302612
755.54	0.24309266
755.727	0.24308264
755.914	0.24318073
756.1	0.24318837
756.287	0.24318076
756.474	0.24324181
756.66	0.24322657
756.847	0.2433
757.033	0.24336559
757.22	0.24337416
757.407	0.24350672
757.593	0.24364551
757.78	0.24367821
757.966	0.24379645
758.153	0.24378572
758.339	0.24380922
758.526	0.24384145
758.712	0.24373178
758.898	0.24370797
759.085	0.24375269
759.271	0.24374307
759.458	0.24377645
759.644	0.24387015
759.83	0.24396941
760.017	0.24410598
760.203	0.24417852
760.389	0.24421821
760.576	0.24428024
760.762	0.24435059
760.948	0.24437661
761.134	0.24443815
761.32	0.24446151
761.507	0.24446293
761.693	0.24450401
761.879	0.24454592
762.065	0.24456238
762.251	0.24462138
762.437	0.24463757
762.623	0.24467444
762.809	0.24471884
762.995	0.24479911
763.181	0.24481381
763.367	0.24476832
763.553	0.24474071
763.739	0.24473873
763.925	0.24475143
764.111	0.24478605
764.297	0.24483136
764.483	0.24481612
764.669	0.24492057
764.855	0.24499901
765.041	0.24506072
765.227	0.24511163
765.412	0.24513032
765.598	0.24513825
765.784	0.24520316
765.97	0.24527209
766.156	0.24531594
766.341	0.24533739
766.527	0.2452912
766.713	0.24531929
766.898	0.2453259
767.084	0.24536672
767.27	0.24533241
767.455	0.24530093
767.641	0.2452923
767.827	0.24540934
768.012	0.24546835
768.198	0.24561663
768.383	0.24566835
768.569	0.24580489
768.754	0.24589679
768.94	0.24591839
769.125	0.245894
769.311	0.24594033
769.496	0.24583936
769.682	0.24584972
769.867	0.24583998
770.052	0.24593195
770.238	0.2460437
770.423	0.24617895
770.608	0.24624805
770.794	0.24632588
770.979	0.24628968
771.164	0.2463129
771.35	0.24624189
771.535	0.2462322
771.72	0.24618197
771.905	0.2462321
772.09	0.24623846
772.276	0.24638368
772.461	0.24638285
772.646	0.24646103
772.831	0.24653831
773.016	0.24667336
773.201	0.24664127
773.386	0.24673088
773.571	0.24670755
773.756	0.24677055
773.941	0.24675726
774.126	0.24687325
774.311	0.24683903
774.496	0.24689959
774.681	0.24691369
774.866	0.24696227
775.051	0.24691691
775.236	0.24697804
775.421	0.24687933
775.606	0.24690829
775.791	0.24690251
775.976	0.24694612
776.16	0.24701478
776.345	0.24711449
776.53	0.24719294
776.715	0.24724331
776.899	0.24725123
777.084	0.2472884
777.269	0.24727491
777.454	0.24720082
777.638	0.24718184
777.823	0.24710667
778.008	0.24707431
778.192	0.24713529
778.377	0.24710057
778.561	0.24716424
778.746	0.24728696
778.931	0.2473573
779.115	0.24742348
779.3	0.24748413
779.484	0.24743381
779.669	0.24741199
779.853	0.24731924
780.037	0.24732045
780.222	0.24727987
780.406	0.24722427
780.591	0.24718659
780.775	0.24728391
780.959	0.24736339
781.144	0.24743898
781.328	0.24743773
781.512	0.24744563
781.697	0.24750962
781.881	0.24750366
782.065	0.24746474
782.249	0.2473903
782.434	0.24735134
782.618	0.24728712
782.802	0.24725415
782.986	0.24725116
783.17	0.24723049
783.354	0.24722063
783.539	0.24727859
783.723	0.24721774
783.907	0.24727331
784.091	0.24735901
784.275	0.24742103
784.459	0.24746038
784.643	0.24750062
784.827	0.24750995
785.011	0.24762268
785.195	0.24765618
785.379	0.2476849
785.563	0.24762298
785.747	0.24760578
785.93	0.24766784
786.114	0.24767646
786.298	0.24764768
786.482	0.24756283
786.666	0.24752609
786.85	0.24747527
787.033	0.24755478
787.217	0.24752609
787.401	0.24756083
787.585	0.24758636
787.768	0.24768203
787.952	0.24764966
788.136	0.24764756
788.319	0.24757738
788.503	0.24745108
788.687	0.24743699
788.87	0.24741141
789.054	0.24737776
789.237	0.24736753
789.421	0.24739618
789.605	0.24741222
789.788	0.24743803
789.972	0.24740134
790.155	0.24731823
790.338	0.24713396
790.522	0.24704938
790.705	0.2469991
790.889	0.24684815
791.072	0.24687998
791.256	0.24682299
791.439	0.24685576
791.622	0.24698485
791.806	0.24714357
791.989	0.24714494
792.172	0.24729027
792.355	0.24728282
792.539	0.24734337
792.722	0.24734717
792.905	0.24731271
793.088	0.24713947
793.271	0.24715296
793.455	0.24714208
793.638	0.24713185
793.821	0.24709026
794.004	0.24703727
794.187	0.24711411
794.37	0.24721528
794.553	0.24723823
794.736	0.24716224
794.919	0.24707074
795.102	0.24702971
795.285	0.24698517
795.468	0.24679265
795.651	0.24670846
795.834	0.24670974
796.017	0.24670903
796.2	0.24671692
796.383	0.24675862
796.566	0.24689187
796.749	0.24697239
796.931	0.24687857
797.114	0.24673959
797.297	0.24672006
797.48	0.24666876
797.663	0.24652415
797.845	0.24638058
798.028	0.2463337
798.211	0.24641679
798.393	0.24645971
798.576	0.24649624
798.759	0.2464908
798.941	0.24657392
799.124	0.24659818
799.307	0.24660234
799.489	0.24659833
799.672	0.24653108
799.854	0.24639839
800.037	0.24633457
800.219	0.24623609
800.402	0.24623541
800.584	0.24621673
800.767	0.24615744
800.949	0.24620267
801.132	0.24628102
801.314	0.24627625
801.496	0.24631927
801.679	0.24625247
801.861	0.24620271
802.043	0.24609649
802.226	0.24600345
802.408	0.24593286
802.59	0.2458927
802.772	0.24587987
802.955	0.24593419
803.137	0.24587067
803.319	0.245966
803.501	0.24595477
803.684	0.24590806
803.866	0.24583833
804.048	0.24576476
804.23	0.2456288
804.412	0.24560889
804.594	0.24552513
804.776	0.24551539
804.958	0.24553734
805.14	0.24555105
805.322	0.24549203
805.504	0.24544513
805.686	0.24538843
805.868	0.24532818
806.05	0.24525474
806.232	0.24512402
806.414	0.24512878
806.596	0.24508908
806.778	0.24503806
806.96	0.24509415
807.141	0.2450297
807.323	0.24499487
807.505	0.24497002
807.687	0.24494476
807.869	0.24493283
808.05	0.24491766
808.232	0.24478768
808.414	0.24484204
808.595	0.24476194
808.777	0.24471196
808.959	0.24458494
809.14	0.24452805
809.322	0.24453812
809.504	0.24449566
809.685	0.24441769
809.867	0.24433667
810.048	0.24430986
810.23	0.24427757
810.411	0.24419285
810.593	0.24406021
810.774	0.24404016
810.956	0.24393048
811.137	0.24386188
811.319	0.24383481
811.5	0.24380487
811.681	0.24376291
811.863	0.24374037
812.044	0.24365352
812.225	0.24365176
812.407	0.24370443
812.588	0.24363399
812.769	0.24358875
812.951	0.24352758
813.132	0.24347302
813.313	0.24343708
813.494	0.24330822
813.675	0.24318879
813.857	0.24310745
814.038	0.24313467
814.219	0.24312974
814.4	0.24302857
814.581	0.24297376
814.762	0.24294329
814.943	0.24294852
815.124	0.24290101
815.305	0.24272583
815.486	0.24261516
815.667	0.24259629
815.848	0.24247174
816.029	0.2423891
816.21	0.24224585
816.391	0.24219668
816.572	0.24215709
816.753	0.24211189
816.934	0.24203539
817.115	0.2420559
817.295	0.24204655
817.476	0.24192763
817.657	0.24183713
817.838	0.24176298
818.019	0.24167195
818.199	0.24150337
818.38	0.24135203
818.561	0.2413264
818.741	0.24136145
818.922	0.24131626
819.103	0.24126274
819.283	0.24125586
819.464	0.24132022
819.645	0.24126275
819.825	0.24113317
820.006	0.24098858
820.186	0.2409449
820.367	0.24085879
820.547	0.24073114
820.728	0.24058441
820.908	0.24054447
821.089	0.24047454
821.269	0.24042189
821.45	0.24026477
821.63	0.24012937
821.81	0.23997131
821.991	0.23992531
822.171	0.239758
822.351	0.23961049
822.532	0.23954889
822.712	0.2394912
822.892	0.2394091
823.072	0.23937435
823.253	0.23926195
823.433	0.23925193
823.613	0.23920651
823.793	0.23914179
823.973	0.23907801
824.154	0.23899321
824.334	0.23896901
824.514	0.2388673
824.694	0.23880017
824.874	0.23871735
825.054	0.23858126
825.234	0.23844564
825.414	0.23831852
825.594	0.23817971
825.774	0.2381147
825.954	0.23802041
826.134	0.23788133
826.314	0.23775108
826.494	0.23767001
826.674	0.23760179
826.854	0.23751798
827.033	0.23734636
827.213	0.23720661
827.393	0.23707642
827.573	0.2370276
827.753	0.23692671
827.932	0.23688711
828.112	0.23688044
828.292	0.2369067
828.472	0.23685023
828.651	0.23682984
828.831	0.236743
829.011	0.23667177
829.19	0.23650119
829.37	0.23625276
829.549	0.23605613
829.729	0.23584009
829.909	0.23566421
830.088	0.23554234
830.268	0.23536
830.447	0.23530516
830.627	0.23531956
830.806	0.23517709
830.986	0.23506012
831.165	0.23508827
831.344	0.23505627
831.524	0.23509401
831.703	0.23497454
831.883	0.23478515
832.062	0.23477196
832.241	0.23476206
832.421	0.23450389
832.6	0.23427108
832.779	0.23401097
832.958	0.23385662
833.138	0.23377311
833.317	0.23370425
833.496	0.23362522
833.675	0.2335741
833.854	0.23364681
834.034	0.23368437
834.213	0.23373946
834.392	0.23376449
834.571	0.23358819
834.75	0.23344462
834.929	0.23335219
835.108	0.23311334
835.287	0.23298803
835.466	0.23280482
835.645	0.23264744
835.824	0.23263214
836.003	0.23259063
836.182	0.2325638
836.361	0.23252147
836.54	0.23233827
836.719	0.23218857
836.897	0.23193413
837.076	0.23175407
837.255	0.23159623
837.434	0.23145431
837.613	0.23135673
837.791	0.23127105
837.97	0.23118991
838.149	0.2311289
838.328	0.23106487
838.506	0.23090985
838.685	0.23077369
838.864	0.23069973
839.042	0.23051086
839.221	0.23050941
839.4	0.2304174
839.578	0.23028957
839.757	0.23015312
839.935	0.23003165
840.114	0.22989131
840.292	0.22989504
840.471	0.22968965
840.649	0.2296559
840.828	0.22956131
841.006	0.2294397
841.185	0.22933421
841.363	0.22921957
841.541	0.22903931
841.72	0.22893201
841.898	0.2287951
842.076	0.22867347
842.255	0.22866134
842.433	0.22855147
842.611	0.22846606
842.789	0.22834341
842.968	0.22820069
843.146	0.22805368
843.324	0.22796281
843.502	0.22787485
843.68	0.22781156
843.859	0.22762028
844.037	0.22755157
844.215	0.22749803
844.393	0.22734835
844.571	0.22715395
844.749	0.22694641
844.927	0.22675777
845.105	0.22660045
845.283	0.22638628
845.461	0.22623457
845.639	0.22613503
845.817	0.22601703
845.995	0.22600776
846.173	0.22600743
846.351	0.22594712
846.529	0.22584282
846.706	0.22566247
846.884	0.22551188
847.062	0.22532277
847.24	0.22513543
847.418	0.22489412
847.595	0.22468924
847.773	0.224581
847.951	0.22444192
848.129	0.22429334
848.306	0.22421521
848.484	0.22403719
848.662	0.22396261
848.839	0.22396423
849.017	0.22387809
849.194	0.22375103
849.372	0.2236493
849.549	0.22349347
849.727	0.22341823
849.905	0.22322224
850.082	0.22298552
850.26	0.22282633
850.437	0.22270775
850.614	0.22263988
850.792	0.22258292
850.969	0.22250893
851.147	0.22245174
851.324	0.22243089
851.501	0.22236268
851.679	0.22229265
851.856	0.22206097
852.033	0.22198506
852.211	0.22173617
852.388	0.22148366
852.565	0.22132554
852.742	0.22116771
852.92	0.2209926
853.097	0.22097573
853.274	0.22083785
853.451	0.22071927
853.628	0.22060694
853.805	0.22046123
853.982	0.2202857
854.159	0.22017946
854.336	0.22000878
854.514	0.21981237
854.691	0.2197442
854.868	0.21970863
855.045	0.21952047
855.221	0.21944379
855.398	0.21926005
855.575	0.2191171
855.752	0.21904345
855.929	0.2189944
856.106	0.21886598
856.283	0.21886159
856.46	0.21877077
856.637	0.21871808
856.813	0.21865844
856.99	0.21847153
857.167	0.21834353
857.344	0.21815054
857.52	0.21801757
857.697	0.21777278
857.874	0.21755243
858.05	0.21732037
858.227	0.21720734
858.404	0.21702374
858.58	0.21700714
858.757	0.21677816
858.933	0.21681723
859.11	0.21677469
859.287	0.21656386
859.463	0.21639943
859.64	0.21627596
859.816	0.21606564
859.993	0.21590896
860.169	0.21564958
860.345	0.21548415
860.522	0.21543158
860.698	0.21525453
860.875	0.21501328
861.051	0.21489999
861.227	0.21471352
861.404	0.21464257
861.58	0.21458925
861.756	0.21448085
861.932	0.21443636
862.109	0.21430705
862.285	0.21413622
862.461	0.21411204
862.637	0.21396857
862.813	0.21375385
862.99	0.2136135
863.166	0.21340333
863.342	0.21337911
863.518	0.21319354
863.694	0.21298095
863.87	0.21280839
864.046	0.2127298
864.222	0.2126145
864.398	0.21250938
864.574	0.21216778
864.75	0.21201177
864.926	0.21190149
865.102	0.21176949
865.278	0.21149052
865.454	0.21117055
865.63	0.21093887
865.805	0.21078877
865.981	0.210644
866.157	0.21052629
866.333	0.21035606
866.509	0.21033813
866.684	0.21031316
866.86	0.21034822
867.036	0.21034708
867.212	0.21017794
867.387	0.2100616
867.563	0.20990054
867.739	0.20964235
867.914	0.20954587
868.09	0.20942124
868.265	0.20916877
868.441	0.20911877
868.617	0.20901069
868.792	0.2088376
868.968	0.20874474
869.143	0.20867976
869.319	0.20844129
869.494	0.20838001
869.67	0.20824809
869.845	0.20791989
870.02	0.20781647
870.196	0.20768215
870.371	0.207451
870.546	0.20730417
870.722	0.20725731
870.897	0.20699576
871.072	0.2069028
871.248	0.20669374
871.423	0.20653768
871.598	0.20633266
871.773	0.20616763
871.949	0.20584887
872.124	0.20594979
872.299	0.20592605
872.474	0.20584029
872.649	0.20576593
872.824	0.20564929
872.999	0.20547711
873.174	0.20546032
873.349	0.20515882
873.524	0.20491091
873.699	0.20473348
873.874	0.20453673
874.049	0.20436429
874.224	0.20434041
874.399	0.20421155
874.574	0.20416104
874.749	0.2041099
874.924	0.2041048
875.099	0.20392144
875.274	0.20387743
875.449	0.20377488
875.623	0.20361132
875.798	0.20341841
875.973	0.2032511
876.148	0.20300257
876.322	0.20295875
876.497	0.20268532
876.672	0.202452
876.846	0.20230441
877.021	0.20223347
877.196	0.2019991
877.37	0.20187012
877.545	0.20174575
877.72	0.20165874
877.894	0.20148258
878.069	0.20125107
878.243	0.20093628
878.418	0.20085424
878.592	0.20071362
878.767	0.20053822
878.941	0.20052698
879.116	0.20039854
879.29	0.20030941
879.464	0.20013678
879.639	0.20007879
879.813	0.20010579
879.987	0.19991854
880.162	0.19982984
880.336	0.19970517
880.51	0.19952559
880.685	0.19951638
880.859	0.19927413
881.033	0.19885893
881.207	0.19857592
881.381	0.19827473
881.556	0.19812897
881.73	0.19799097
881.904	0.19794709
882.078	0.19783165
882.252	0.19782189
882.426	0.19780484
882.6	0.19770354
882.774	0.19764025
882.948	0.19762029
883.122	0.19726225
883.296	0.19720572
883.47	0.19715578
883.644	0.19701356
883.818	0.19677245
883.992	0.19658467
884.166	0.19655684
884.34	0.19656958
884.514	0.19637301
884.687	0.19625452
884.861	0.1961728
885.035	0.19604119
885.209	0.19591291
885.382	0.19569713
885.556	0.19547875
885.73	0.19538631
885.904	0.19516926
886.077	0.19494722
886.251	0.19492701
886.425	0.19479806
886.598	0.19459513
886.772	0.19428682
886.945	0.19403304
887.119	0.19373867
887.292	0.19366773
887.466	0.19349232
887.64	0.19329249
887.813	0.19316206
887.986	0.19321568
888.16	0.19317702
888.333	0.19317866
888.507	0.19303322
888.68	0.19286063
888.854	0.19276949
889.027	0.19268931
889.2	0.19261811
889.374	0.19241788
889.547	0.19228142
889.72	0.19222486
889.893	0.19218098
890.067	0.19204528
890.24	0.19179831
890.413	0.19165777
890.586	0.19152141
890.759	0.19151922
890.933	0.19137031
891.106	0.19125185
891.279	0.19116828
891.452	0.19113788
891.625	0.19100387
891.798	0.19092906
891.971	0.19074536
892.144	0.190596
892.317	0.1903334
892.49	0.19001946
892.663	0.18982869
892.836	0.18972558
893.009	0.18966474
893.182	0.18950918
893.355	0.18938372
893.527	0.18931187
893.7	0.18944091
893.873	0.18931888
894.046	0.1890594
894.219	0.18899922
894.391	0.1888807
894.564	0.18876044
894.737	0.18857928
894.91	0.18827812
895.082	0.1881168
895.255	0.18798242
895.428	0.18757446
895.6	0.18733495
895.773	0.18710622
895.945	0.18697976
896.118	0.18694864
896.291	0.18686581
896.463	0.18683693
896.636	0.18677504
896.808	0.18680635
896.981	0.18688559
897.153	0.18685722
897.326	0.18672679
897.498	0.18668488
897.67	0.18650625
897.843	0.18645468
898.015	0.186295
898.187	0.18602506
898.36	0.18574739
898.532	0.18545229
898.704	0.18524716
898.877	0.18506284
899.049	0.18492788
899.221	0.18484096
899.393	0.18468906
899.566	0.18485464
899.738	0.18492693
899.91	0.18475807
900.082	0.18479248
900.254	0.18472449
900.426	0.18448934
900.598	0.18440925
900.77	0.18411872
900.942	0.18388776
901.114	0.18382362
901.286	0.18365014
901.458	0.18351915
901.63	0.18340765
901.802	0.18333753
901.974	0.18321813
902.146	0.18318171
902.318	0.18309763
902.49	0.18306418
902.662	0.18294647
902.834	0.18280772
903.005	0.18273135
903.177	0.18271889
903.349	0.18266875
903.521	0.18244672
903.693	0.18220541
903.864	0.18213321
904.036	0.18192812
904.208	0.18165444
904.379	0.18127747
904.551	0.181038
904.723	0.1809894
904.894	0.18084664
905.066	0.18057566
905.237	0.18062522
905.409	0.18054244
905.58	0.18064447
905.752	0.18047864
905.923	0.18030342
906.095	0.18016212
906.266	0.18002279
906.438	0.17976337
906.609	0.17975621
906.78	0.1794408
906.952	0.17941047
907.123	0.17935436
907.295	0.17924454
907.466	0.17927396
907.637	0.17927045
907.808	0.17899887
907.98	0.17907547
908.151	0.1788706
908.322	0.17881991
908.493	0.17861864
908.665	0.17839394
908.836	0.17825231
909.007	0.17815862
909.178	0.1778818
909.349	0.1778594
909.52	0.17773131
909.691	0.17769177
909.862	0.17762723
910.033	0.1774722
910.204	0.17736554
910.375	0.17731102
910.546	0.17715093
910.717	0.17694266
910.888	0.17689016
911.059	0.1767591
911.23	0.17665942
911.401	0.17651468
911.572	0.17635723
911.742	0.17616755
911.913	0.17600171
912.084	0.1757812
912.255	0.17565458
912.426	0.17543342
912.596	0.17518475
912.767	0.17513489
912.938	0.17509739
913.108	0.17484202
913.279	0.17475667
913.45	0.17458381
913.62	0.17461075
913.791	0.1745876
913.962	0.17445001
914.132	0.17433172
914.303	0.17435359
914.473	0.17439101
914.644	0.17433597
914.814	0.17416476
914.985	0.17406846
915.155	0.17389586
915.326	0.17357252
915.496	0.17343107
915.666	0.17306568
915.837	0.17295916
916.007	0.17260232
916.177	0.17243048
916.348	0.17224044
916.518	0.17227746
916.688	0.17221587
916.858	0.17225348
917.029	0.17212323
917.199	0.17222125
917.369	0.17219135
917.539	0.17232328
917.709	0.17225023
917.88	0.17199129
918.05	0.17175905
918.22	0.17155286
918.39	0.17128243
918.56	0.17102913
918.73	0.17078911
918.9	0.17044087
919.07	0.17031392
919.24	0.1701211
919.41	0.16995547
919.58	0.16986523
919.75	0.16990923
919.92	0.16961547
920.09	0.16961095
920.26	0.16956553
920.429	0.1695185
920.599	0.169397
920.769	0.16941237
920.939	0.16919134
921.109	0.16900746
921.278	0.16881183
921.448	0.16863273
921.618	0.16859139
921.787	0.16844461
921.957	0.16824631
922.127	0.16799758
922.296	0.16808951
922.466	0.16813337
922.636	0.16821271
922.805	0.16811241
922.975	0.16818712
923.144	0.16815987
923.314	0.16816408
923.483	0.1680125
923.653	0.16782375
923.822	0.16753464
923.992	0.16735947
924.161	0.16726534
924.331	0.16718076
924.5	0.16697482
924.669	0.16669215
924.839	0.16665251
925.008	0.16638644
925.177	0.1661724
925.347	0.16596766
925.516	0.1658629
925.685	0.1660132
925.854	0.16625182
926.023	0.16613988
926.193	0.16652196
926.362	0.16646787
926.531	0.1663869
926.7	0.16619265
926.869	0.16618261
927.038	0.16595481
927.207	0.1657794
927.376	0.16560864
927.545	0.16567582
927.715	0.16565897
927.884	0.16565476
928.052	0.16563766
928.221	0.16555289
928.39	0.16546003
928.559	0.16534636
928.728	0.16541466
928.897	0.16547789
929.066	0.16542508
929.235	0.16512033
929.404	0.16506988
929.572	0.16513332
929.741	0.16506732
929.91	0.16475444
930.079	0.16441959
930.247	0.16427056
930.416	0.16429143
930.585	0.1642536
930.753	0.16413169
930.922	0.1640904
931.091	0.16403949
931.259	0.16399165
931.428	0.16399309
931.596	0.16388627
931.765	0.16381112
931.934	0.16388328
932.102	0.16331594
932.27	0.16323807
932.439	0.16308674
932.607	0.16292219
932.776	0.16291774
932.944	0.16272786
933.113	0.16230898
933.281	0.16243071
933.449	0.16206091
933.618	0.16174428
933.786	0.1616811
933.954	0.16135031
934.123	0.1610553
934.291	0.16103355
934.459	0.1608954
934.627	0.16111585
934.795	0.16130173
934.964	0.16091282
935.132	0.16060264
935.3	0.16051909
935.468	0.16041856
935.636	0.16036708
935.804	0.16027804
935.972	0.16007552
936.14	0.16017147
936.308	0.16023132
936.476	0.16009462
936.644	0.16018584
936.812	0.16001555
936.98	0.15960906
937.148	0.15936884
937.316	0.15914729
937.484	0.15919372
937.652	0.15869425
937.82	0.15869986
937.987	0.1581756
938.155	0.15832843
938.323	0.1584337
938.491	0.15822781
938.658	0.15841103
938.826	0.15891261
938.994	0.15877648
939.162	0.15924906
939.329	0.1591201
939.497	0.15919382
939.665	0.15971962
939.832	0.15971138
940	0.16019217
940.167	0.16000396
940.335	0.15939632
940.502	0.15842507
940.67	0.15819835
940.837	0.15777977
941.005	0.15696895
941.172	0.15689354
941.34	0.15720648
941.507	0.15902982
941.674	0.16027156
941.842	0.16012648
942.009	0.16063311
942.177	0.15986013
942.344	0.16030817
942.511	0.16018351
942.678	0.15937544
942.846	0.15880847
943.013	0.15944801
943.18	0.15870051
943.347	0.16006644
943.514	0.15922346
943.682	0.15913002
943.849	0.15812388
944.016	0.1577391
944.183	0.15748889
944.35	0.15732225
944.517	0.15751747
944.684	0.15759024
944.851	0.15520974
945.018	0.1560901
945.185	0.15626799
945.352	0.15539867
945.519	0.15620784
945.686	0.15599274
945.853	0.15747428
946.02	0.15812539
946.187	0.15716356
946.353	0.15815616
946.52	0.15924798
946.687	0.15724842
946.854	0.15760459
947.021	0.15527812
947.187	0.15574377
947.354	0.15566668
947.521	0.15513552
947.687	0.15338163
947.854	0.15392735
948.021	0.15287539
948.187	0.1534195
948.354	0.15261573
948.52	0.15258843
948.687	0.1539828
948.854	0.15605839
949.02	0.15518689
949.187	0.15474828
949.353	0.15469898
949.52	0.15438848
949.686	0.15411434
949.852	0.1522364
950.019	0.15185983
950.185	0.15313034
950.352	0.15328162
950.518	0.15281644
950.684	0.15336617
950.851	0.1537095
951.017	0.15329817
951.183	0.15309008
951.349	0.15241422
951.516	0.15190528
951.682	0.15106599
951.848	0.15030633
952.014	0.14884489
952.18	0.14913293
952.346	0.14815306
952.512	0.1478443
952.679	0.14865605
952.845	0.14910642
953.011	0.14933374
953.177	0.15026945
953.343	0.15005476
953.509	0.15095908
953.675	0.15093014
953.841	0.14991218
954.007	0.15056416
954.172	0.15074726
954.338	0.15036473
954.504	0.14990324
954.67	0.14863611
954.836	0.14920369
955.002	0.14969866
955.167	0.14871054
955.333	0.14824906
955.499	0.14839734
955.665	0.14805737
955.83	0.14859198
955.996	0.14821526
956.162	0.14761193
956.327	0.14783699
956.493	0.14792024
956.659	0.14871158
956.824	0.14909066
956.99	0.14908963
957.155	0.14867777
957.321	0.14898741
957.486	0.14944818
957.652	0.14943013
957.817	0.14896597
957.983	0.14902172
958.148	0.1482524
958.314	0.14848888
958.479	0.1475953
958.644	0.14676778
958.81	0.14639375
958.975	0.14565172
959.14	0.14531133
959.306	0.14529165
959.471	0.14489667
959.636	0.14485633
959.801	0.14546724
959.967	0.14519722
960.132	0.14559071
960.297	0.14554448
960.462	0.14602889
960.627	0.14539984
960.792	0.14557935
960.957	0.1448724
961.123	0.14517192
961.288	0.14464813
961.453	0.14471621
961.618	0.14472643
961.783	0.14499498
961.948	0.14461816
962.113	0.14460049
962.277	0.14391459
962.442	0.14396958
962.607	0.14346716
962.772	0.14279012
962.937	0.14278853
963.102	0.14298415
963.267	0.14308127
963.431	0.14347987
963.596	0.14317511
963.761	0.14302291
963.926	0.14271833
964.09	0.14286094
964.255	0.14298946
964.42	0.14308151
964.584	0.14283122
964.749	0.14261952
964.914	0.14268833
965.078	0.14277534
965.243	0.14225544
965.407	0.14180345
965.572	0.14092789
965.736	0.14100213
965.901	0.14175985
966.065	0.14186022
966.23	0.14232846
966.394	0.14252514
966.559	0.14284164
966.723	0.14310463
966.887	0.14322214
967.052	0.14263611
967.216	0.14214583
967.38	0.1408391
967.545	0.14097187
967.709	0.14083362
967.873	0.14130452
968.037	0.14113653
968.202	0.1413087
968.366	0.14198532
968.53	0.14283114
968.694	0.14258469
968.858	0.14228601
969.022	0.14129015
969.187	0.14087259
969.351	0.14033406
969.515	0.14008731
969.679	0.13952732
969.843	0.13884143
970.007	0.13909239
970.171	0.13965224
970.335	0.14038899
970.499	0.14042238
970.662	0.13990798
970.826	0.14017321
970.99	0.14081169
971.154	0.14063618
971.318	0.14035814
971.482	0.13903369
971.645	0.13869314
971.809	0.13934232
971.973	0.13916911
972.137	0.13874692
972.3	0.13866528
972.464	0.13845741
972.628	0.13949403
972.791	0.13986206
972.955	0.13935039
973.119	0.13956941
973.282	0.13948573
973.446	0.1391929
973.609	0.13870393
973.773	0.13798536
973.936	0.13794921
974.1	0.13787243
974.263	0.13782834
974.427	0.13779118
974.59	0.13747764
974.754	0.13786623
974.917	0.13793474
975.08	0.13781537
975.244	0.13750089
975.407	0.13732305
975.57	0.13698024
975.734	0.13675271
975.897	0.13688617
976.06	0.13705452
976.223	0.13696138
976.387	0.13704137
976.55	0.13662199
976.713	0.13658794
976.876	0.13706802
977.039	0.13625082
977.202	0.13605039
977.365	0.13562567
977.528	0.13508249
977.692	0.13478497
977.855	0.134429
978.018	0.134108
978.181	0.13487777
978.344	0.13461253
978.506	0.13459004
978.669	0.13435094
978.832	0.13390021
978.995	0.13407198
979.158	0.13422249
979.321	0.13347207
979.484	0.13315746
979.646	0.13305447
979.809	0.13399512
979.972	0.13413269
980.135	0.13445409
980.297	0.13399772
980.46	0.13350269
980.623	0.13399311
980.786	0.13368196
980.948	0.13290167
981.111	0.13335465
981.273	0.13321793
981.436	0.13351741
981.599	0.13430982
981.761	0.13383136
981.924	0.13427289
982.086	0.13454721
982.249	0.13468332
982.411	0.13464615
982.573	0.13412628
982.736	0.13454371
982.898	0.13424204
983.061	0.13399702
983.223	0.13318347
983.385	0.13278751
983.548	0.13265181
983.71	0.13275326
983.872	0.13181602
984.034	0.13173766
984.197	0.13096962
984.359	0.13139697
984.521	0.13183918
984.683	0.13190105
984.845	0.13191898
985.008	0.13211736
985.17	0.13202129
985.332	0.13264891
985.494	0.13265979
985.656	0.13249717
985.818	0.13198797
985.98	0.1318016
986.142	0.13146394
986.304	0.13216074
986.466	0.13179828
986.628	0.13189448
986.79	0.13109284
986.952	0.13078512
987.113	0.1301058
987.275	0.12995718
987.437	0.12976203
987.599	0.13040095
987.761	0.13040973
987.922	0.1308815
988.084	0.13116865
988.246	0.13173545
988.408	0.13208964
988.569	0.13134769
988.731	0.1310987
988.893	0.13143033
989.054	0.13176755
989.216	0.13215952
989.377	0.13145246
989.539	0.13133435
989.701	0.13096027
989.862	0.13061938
990.024	0.12959088
990.185	0.1280622
990.347	0.12781663
990.508	0.12782187
990.669	0.1276796
990.831	0.12841195
990.992	0.12904491
991.154	0.12884743
991.315	0.13053892
991.476	0.13069883
991.638	0.13110617
991.799	0.13112009
991.96	0.13115576
992.121	0.13041657
992.283	0.13089078
992.444	0.13011925
992.605	0.12937845
992.766	0.13002967
992.927	0.12954606
993.088	0.12945834
993.249	0.12909692
993.41	0.12869391
993.572	0.12885083
993.733	0.12918142
993.894	0.12874356
994.055	0.12819918
994.216	0.12769118
994.376	0.1273177
994.537	0.1278825
994.698	0.12779937
994.859	0.12749903
995.02	0.1273784
995.181	0.12681143
995.342	0.12715906
995.503	0.12791787
995.663	0.12783551
995.824	0.12702485
995.985	0.12827728
996.146	0.1280978
996.306	0.12915076
996.467	0.12892207
996.628	0.12954246
996.788	0.12930861
996.949	0.13055227
997.11	0.12879935
997.27	0.12765253
997.431	0.12688982
997.591	0.1256638
997.752	0.12305848
997.912	0.12351242
998.073	0.12304236
998.233	0.12336997
998.394	0.12440799
998.554	0.12490392
998.714	0.12607659
998.875	0.12696726
999.035	0.12552269
999.196	0.12466203
999.356	0.12404691
999.516	0.12429692
999.676	0.12481554
999.837	0.1246369
999.997	0.12380152
1000.157	0.12346743
1000.317	0.12253684
1000.477	0.12244199
1000.638	0.12109388
1000.798	0.12125675
1000.958	0.12120591
1001.118	0.12261543
1001.278	0.12277264
1001.438	0.12309812
1001.598	0.12358359
1001.758	0.12395871
1001.918	0.12307061
1002.078	0.12141656
1002.238	0.12123148
1002.398	0.12142033
1002.558	0.12180941
1002.718	0.12201622
1002.878	0.12175572
1003.037	0.11993616
1003.197	0.12138396
1003.357	0.12087463
1003.517	0.12180152
1003.677	0.12142003
1003.836	0.12143017
1003.996	0.1218001
1004.156	0.1227413
1004.315	0.12397451
1004.475	0.12422845
1004.635	0.1243826
1004.794	0.12498198
1004.954	0.12451556
1005.114	0.12458377
1005.273	0.12666616
1005.433	0.12477304
1005.592	0.12542628
1005.752	0.12415799
1005.911	0.12356213
1006.071	0.123994
1006.23	0.12412391
1006.389	0.12362448
1006.549	0.12394924
1006.708	0.12299423
1006.868	0.12158167
1007.027	0.12224175
1007.186	0.12231357
1007.345	0.12358193
1007.505	0.1234311
1007.664	0.12275804
1007.823	0.12244159
1007.982	0.12456691
1008.142	0.12408136
1008.301	0.12439528
1008.46	0.12319885
1008.619	0.12088515
1008.778	0.12138618
1008.937	0.12024891
1009.096	0.11905988
1009.255	0.11961616
1009.414	0.1169692
1009.573	0.11685032
1009.732	0.11957792
1009.891	0.11941253
1010.05	0.12167696
1010.209	0.12086136
1010.368	0.12149945
1010.527	0.1247041
1010.686	0.12555082
1010.845	0.12365315
1011.003	0.12419121
1011.162	0.12402975
1011.321	0.12396059
1011.48	0.12362932
1011.638	0.12043542
1011.797	0.11997094
1011.956	0.12038291
1012.115	0.1184615
1012.273	0.11793165
1012.432	0.11931115
1012.59	0.11789558
1012.749	0.1191815
1012.908	0.11885214
1013.066	0.12008258
1013.225	0.12032592
1013.383	0.12013167
1013.542	0.1190054
1013.7	0.11958287
1013.859	0.12078606
1014.017	0.12062354
1014.175	0.11876294
1014.334	0.11926395
1014.492	0.12068795
1014.65	0.12248768
1014.809	0.12365795
1014.967	0.12132945
1015.125	0.1210536
1015.284	0.12215041
1015.442	0.12512296
1015.6	0.12243649
1015.758	0.12217028
1015.916	0.12064166
1016.075	0.12331186
1016.233	0.12265817
1016.391	0.12444386
1016.549	0.12344272
1016.707	0.1252263
1016.865	0.12631034
1017.023	0.12466108
1017.181	0.12462663
1017.339	0.12373077
1017.497	0.11992579
1017.655	0.11841859
1017.813	0.11749648
1017.971	0.11542377
1018.129	0.11590028
1018.286	0.11418923
1018.444	0.11412444
1018.602	0.11610214
1018.76	0.11670388
1018.918	0.11831962
1019.075	0.11789758
1019.233	0.11703634
1019.391	0.11821351
1019.549	0.11955054
1019.706	0.11929626
1019.864	0.11953202
1020.022	0.11832768
1020.179	0.12098506
1020.337	0.12163003
1020.494	0.11951164
1020.652	0.11737864
1020.809	0.11832341
1020.967	0.11844471
1021.124	0.11756896
1021.282	0.11830055
1021.439	0.11928818
1021.597	0.121546
1021.754	0.12149243
1021.911	0.12394077
1022.069	0.1215118
1022.226	0.12035466
1022.384	0.1167444
1022.541	0.11701757
1022.698	0.1125457
1022.855	0.11401113
1023.013	0.11220501
1023.17	0.11229672
1023.327	0.11356457
1023.484	0.11286679
1023.641	0.11304396
1023.798	0.12444248
1023.956	0.12323821
1024.113	0.11648267
1024.27	0.11695457
1024.427	0.11981596
1024.584	0.12298789
1024.741	0.11965531
1024.898	0.11078074
1025.055	0.11021759
1025.212	0.11099217
1025.369	0.10714344
1025.525	0.10391865
1025.682	0.10282755
1025.839	0.10524995
1025.996	0.10412673
1026.153	0.10710748
1026.31	0.11244806
1026.466	0.12116147
1026.623	0.12094677
1026.78	0.121923
1026.937	0.12130332
1027.093	0.12439514
1027.25	0.12542518
1027.407	0.12102058
1027.563	0.11782025
1027.72	0.12046091
1027.876	0.11624885
1028.033	0.11680083
1028.19	0.11549067
1028.346	0.10905162
1028.503	0.11412206
1028.659	0.11450727
1028.816	0.11559886
1028.972	0.1215833
1029.128	0.12587543
1029.285	0.12268083
1029.441	0.12447142
1029.598	0.11771536
1029.754	0.116969
1029.91	0.11580351
1030.067	0.11037797
1030.223	0.10954604
1030.379	0.11469711
1030.535	0.11991748
1030.691	0.12272968
1030.848	0.12156929
1031.004	0.11947652
1031.16	0.12331008
1031.316	0.12349235
1031.472	0.12494256
1031.628	0.12244292
1031.784	0.12417191
1031.94	0.12672328
1032.096	0.12944462
1032.252	0.12824941
1032.408	0.127366
1032.564	0.1190689
1032.72	0.1201995
1032.876	0.11524912
1033.032	0.11717331
1033.188	0.11762767
1033.344	0.11928925
1033.5	0.11881569
1033.655	0.12479397
1033.811	0.12616143
1033.967	0.13548378
