Data from 0_1_mm_pl_90pc_Absorbance__0__16-35-45-189.txt Node

Date: Fri Feb 24 16:35:45 CET 2023
User: Ange
Spectrometer: FLMT08341
Trigger mode: 0
Integration Time (sec): 1.000000E-2
Scans to average: 400
Electric dark correction enabled: true
Nonlinearity correction enabled: false
Boxcar width: 3
XAxis mode: Wavelengths
Number of Pixels in Spectrum: 3648
>>>>>Begin Spectral Data<<<<<
345.271	-0.00083019
345.487	-0.00307671
345.704	0.00169049
345.921	-0.00583161
346.137	0.00167491
346.354	-0.00946096
346.571	-0.00386876
346.787	0.12625013
347.004	-0.13243598
347.22	-0.10494194
347.437	-0.15524485
347.653	-0.10152823
347.87	0.15779206
348.086	-0.04642497
348.303	1.27040527
348.519	0.24348262
348.736	0.26750347
348.952	0.28715608
349.169	0.30120861
349.385	0.31701672
349.601	0.31967653
349.818	0.31854536
350.034	0.32095386
350.251	0.32341049
350.467	0.32799249
350.683	0.32267813
350.9	0.32195714
351.116	0.32170115
351.332	0.32168649
351.549	0.3291451
351.765	0.3414536
351.981	0.34721361
352.197	0.36059634
352.414	0.37541738
352.63	0.38438744
352.846	0.39554681
353.062	0.39417481
353.278	0.3863264
353.495	0.39618469
353.711	0.40164391
353.927	0.4034496
354.143	0.4046464
354.359	0.40116274
354.575	0.40003152
354.792	0.41087819
355.008	0.40349738
355.224	0.39932069
355.44	0.39646656
355.656	0.3983444
355.872	0.40851628
356.088	0.43041946
356.304	0.43471162
356.52	0.44114044
356.736	0.44637695
356.952	0.45252573
357.168	0.45492812
357.384	0.45943534
357.6	0.44890067
357.816	0.45597982
358.032	0.46575444
358.248	0.47910493
358.464	0.48483512
358.679	0.49318534
358.895	0.49448856
359.111	0.50268589
359.327	0.49798401
359.543	0.4999904
359.759	0.50330852
359.974	0.50284644
360.19	0.50087795
360.406	0.50394746
360.622	0.50474497
360.838	0.5029564
361.053	0.50572632
361.269	0.50674436
361.485	0.5090015
361.701	0.51339129
361.916	0.51001378
362.132	0.51195113
362.348	0.51813201
362.563	0.51981903
362.779	0.52049863
362.995	0.52678403
363.21	0.5334505
363.426	0.53742267
363.641	0.53888683
363.857	0.54360991
364.073	0.54236906
364.288	0.53756982
364.504	0.54869027
364.719	0.54877092
364.935	0.55017924
365.15	0.55341031
365.366	0.55642719
365.581	0.56575821
365.797	0.57105945
366.012	0.56104983
366.228	0.55655165
366.443	0.56612404
366.658	0.56746199
366.874	0.56205318
367.089	0.56594841
367.305	0.56822424
367.52	0.57193886
367.735	0.57411247
367.951	0.5672714
368.166	0.56778007
368.381	0.57709436
368.597	0.57036187
368.812	0.57282699
369.027	0.57469336
369.243	0.57757885
369.458	0.58986359
369.673	0.59263892
369.888	0.59410941
370.104	0.59178714
370.319	0.59342282
370.534	0.59054648
370.749	0.59050971
370.964	0.5880922
371.179	0.58681701
371.395	0.58316646
371.61	0.59056057
371.825	0.58661267
372.04	0.58925737
372.255	0.58737743
372.47	0.58366319
372.685	0.58060802
372.9	0.5778583
373.115	0.57198173
373.33	0.57336604
373.545	0.57259189
373.76	0.57528395
373.975	0.57239171
374.19	0.57041075
374.405	0.57325096
374.62	0.57947391
374.835	0.58419848
375.05	0.58504316
375.265	0.58435846
375.48	0.58573802
375.695	0.5945012
375.91	0.59114383
376.125	0.583684
376.339	0.5770508
376.554	0.57668395
376.769	0.57646224
376.984	0.57689952
377.199	0.57581177
377.414	0.57449191
377.628	0.57935207
377.843	0.58217988
378.058	0.58138919
378.273	0.58247802
378.487	0.58154829
378.702	0.58071802
378.917	0.58110435
379.131	0.57740901
379.346	0.57142073
379.561	0.56660767
379.775	0.5636739
379.99	0.55870455
380.205	0.55233998
380.419	0.54762105
380.634	0.5417113
380.848	0.54642948
381.063	0.54747987
381.278	0.55141604
381.492	0.54896058
381.707	0.55314712
381.921	0.55298238
382.136	0.55838876
382.35	0.55163142
382.565	0.54901552
382.779	0.54552508
382.994	0.54670264
383.208	0.54073079
383.422	0.54400654
383.637	0.54150927
383.851	0.54487974
384.066	0.54563896
384.28	0.54494316
384.494	0.54451727
384.709	0.54693262
384.923	0.54359657
385.137	0.53940852
385.352	0.53775864
385.566	0.53697021
385.78	0.53416434
385.995	0.53123711
386.209	0.52740254
386.423	0.52900438
386.637	0.52961229
386.852	0.52485923
387.066	0.52232567
387.28	0.51933691
387.494	0.52033829
387.708	0.51969697
387.923	0.51534426
388.137	0.51463561
388.351	0.5151483
388.565	0.51532363
388.779	0.51546036
388.993	0.51696944
389.207	0.51566756
389.421	0.51470339
389.635	0.51234516
389.85	0.50862196
390.064	0.50674782
390.278	0.50547327
390.492	0.50206398
390.706	0.5015435
390.92	0.49995108
391.134	0.50047045
391.348	0.50330623
391.561	0.50030688
391.775	0.49736616
391.989	0.49325432
392.203	0.49189656
392.417	0.49049818
392.631	0.48870052
392.845	0.48401627
393.059	0.48461306
393.273	0.48242811
393.486	0.47982481
393.7	0.47492696
393.914	0.47437772
394.128	0.47158421
394.342	0.46960052
394.555	0.46415301
394.769	0.46189738
394.983	0.46164228
395.197	0.46192081
395.41	0.45993701
395.624	0.45973441
395.838	0.45777307
396.051	0.45970494
396.265	0.45725026
396.479	0.45572069
396.692	0.45423123
396.906	0.4508704
397.12	0.44735831
397.333	0.44721271
397.547	0.44454181
397.76	0.44447654
397.974	0.44259744
398.187	0.44085416
398.401	0.44024482
398.614	0.43876789
398.828	0.43636478
399.041	0.43407575
399.255	0.43169037
399.468	0.42980925
399.682	0.42758836
399.895	0.4259576
400.109	0.42381782
400.322	0.42079909
400.536	0.41763338
400.749	0.41750674
400.962	0.41624144
401.176	0.41377536
401.389	0.41128308
401.602	0.4079092
401.816	0.40784771
402.029	0.40779312
402.242	0.40452137
402.456	0.4020381
402.669	0.39988342
402.882	0.39702469
403.095	0.39738161
403.309	0.39513261
403.522	0.393384
403.735	0.39163505
403.948	0.39020175
404.161	0.39071496
404.375	0.38996961
404.588	0.38839209
404.801	0.38681332
405.014	0.38419837
405.227	0.38438002
405.44	0.3833817
405.653	0.38197771
405.866	0.37967656
406.079	0.37761058
406.293	0.3756854
406.506	0.37432987
406.719	0.37163065
406.932	0.36953165
407.145	0.36644511
407.358	0.36620837
407.571	0.36379085
407.784	0.36238686
407.996	0.3610288
408.209	0.35840061
408.422	0.35607393
408.635	0.35500754
408.848	0.35329981
409.061	0.35109403
409.274	0.34939153
409.487	0.34774318
409.7	0.34661021
409.912	0.3459704
410.125	0.34416008
410.338	0.3425975
410.551	0.34142636
410.764	0.33995319
410.976	0.3383625
411.189	0.33699656
411.402	0.33471716
411.615	0.33362571
411.827	0.3319835
412.04	0.33113428
412.253	0.32919657
412.465	0.32756415
412.678	0.32627692
412.891	0.32546492
413.103	0.32287236
413.316	0.32069228
413.529	0.31925152
413.741	0.31839984
413.954	0.31707111
414.166	0.31565177
414.379	0.31381137
414.591	0.31296533
414.804	0.3118788
415.016	0.31036231
415.229	0.30847395
415.441	0.30638587
415.654	0.30498545
415.866	0.3037258
416.079	0.30282187
416.291	0.30144337
416.504	0.30062487
416.716	0.29982833
416.928	0.29943524
417.141	0.29787797
417.353	0.29678739
417.566	0.2947736
417.778	0.29338312
417.99	0.29132918
418.203	0.28928261
418.415	0.28740764
418.627	0.28630453
418.839	0.28508616
419.052	0.28417106
419.264	0.28283301
419.476	0.28173422
419.688	0.28066707
419.901	0.2794519
420.113	0.27820126
420.325	0.2764935
420.537	0.27532317
420.749	0.27436964
420.961	0.27339507
421.174	0.27194551
421.386	0.27066913
421.598	0.26910001
421.81	0.26795913
422.022	0.26653341
422.234	0.26514913
422.446	0.26354534
422.658	0.26255634
422.87	0.26140232
423.082	0.2605552
423.294	0.25937962
423.506	0.25833054
423.718	0.25744997
423.93	0.2560869
424.142	0.25475365
424.354	0.25344612
424.566	0.25210609
424.778	0.25106318
424.99	0.24995004
425.202	0.2484696
425.414	0.24757849
425.625	0.24671727
425.837	0.24538579
426.049	0.24433305
426.261	0.24315713
426.473	0.24161886
426.684	0.24051758
426.896	0.23983608
427.108	0.23837963
427.32	0.23768919
427.531	0.23657868
427.743	0.2354147
427.955	0.23480974
428.167	0.23382555
428.378	0.23237168
428.59	0.23159115
428.802	0.23056663
429.013	0.22947891
429.225	0.22846906
429.436	0.22715466
429.648	0.22624209
429.86	0.22550977
430.071	0.2246062
430.283	0.22352266
430.494	0.22240985
430.706	0.22161653
430.917	0.22089977
431.129	0.21992512
431.34	0.21883296
431.552	0.21798291
431.763	0.21711212
431.975	0.21640928
432.186	0.21526066
432.398	0.2142569
432.609	0.21277367
432.821	0.21194485
433.032	0.21091496
433.243	0.20987195
433.455	0.20888458
433.666	0.20819926
433.877	0.20752083
434.089	0.20687069
434.3	0.20563001
434.511	0.20437315
434.723	0.2035338
434.934	0.20258257
435.145	0.20156456
435.356	0.2003598
435.568	0.19958273
435.779	0.19875405
435.99	0.19807705
436.201	0.19719627
436.412	0.19634733
436.624	0.19571614
436.835	0.19499148
437.046	0.19424174
437.257	0.19352731
437.468	0.19288818
437.679	0.19209511
437.89	0.19118858
438.101	0.19015476
438.312	0.18926247
438.523	0.18817483
438.734	0.18739917
438.945	0.18651204
439.156	0.18542709
439.367	0.18472069
439.578	0.18410628
439.789	0.1832468
440	0.18257588
440.211	0.18168926
440.422	0.18076648
440.633	0.18026469
440.844	0.17949541
441.055	0.17849578
441.266	0.17782144
441.477	0.17696699
441.687	0.17607832
441.898	0.17538433
442.109	0.17451336
442.32	0.17358292
442.531	0.17269396
442.741	0.17174143
442.952	0.1710501
443.163	0.17041246
443.374	0.16949619
443.584	0.16866882
443.795	0.16792863
444.006	0.16736163
444.216	0.16653215
444.427	0.16554466
444.638	0.1647458
444.848	0.16402066
445.059	0.16322783
445.27	0.16240714
445.48	0.16149531
445.691	0.16063724
445.901	0.16001752
446.112	0.1591719
446.323	0.15827003
446.533	0.15754318
446.744	0.15668047
446.954	0.15579199
447.165	0.15520047
447.375	0.15457934
447.586	0.15407159
447.796	0.15351719
448.006	0.15271409
448.217	0.15221715
448.427	0.15166407
448.638	0.15094233
448.848	0.15016691
449.058	0.14932967
449.269	0.14871432
449.479	0.14800176
449.689	0.14727121
449.9	0.14647325
450.11	0.14584387
450.32	0.14523208
450.531	0.14451284
450.741	0.14375928
450.951	0.14327519
451.161	0.14266684
451.372	0.14218655
451.582	0.14184769
451.792	0.14102137
452.002	0.14044477
452.212	0.13976126
452.422	0.13906042
452.633	0.138285
452.843	0.13769072
453.053	0.13661452
453.263	0.13611076
453.473	0.13538772
453.683	0.13492553
453.893	0.13423889
454.103	0.13380297
454.313	0.13313654
454.523	0.13258281
454.733	0.13199851
454.943	0.13150833
455.153	0.13095129
455.363	0.13046405
455.573	0.12990416
455.783	0.12943083
455.993	0.12884595
456.203	0.12837821
456.413	0.12784984
456.623	0.12705799
456.833	0.12649376
457.042	0.12573771
457.252	0.12512257
457.462	0.12462652
457.672	0.12405455
457.882	0.12337278
458.091	0.12300899
458.301	0.12232384
458.511	0.12203547
458.721	0.12145631
458.931	0.12101963
459.14	0.12043923
459.35	0.12016995
459.56	0.11972214
459.769	0.119408
459.979	0.11880201
460.189	0.1183383
460.398	0.1177947
460.608	0.11736002
460.817	0.11664248
461.027	0.11617087
461.237	0.11559509
461.446	0.11505473
461.656	0.1146463
461.865	0.1141431
462.075	0.11361918
462.284	0.11323495
462.494	0.11264049
462.703	0.11219588
462.913	0.11169648
463.122	0.11104891
463.332	0.11057127
463.541	0.11022078
463.751	0.10967028
463.96	0.10914132
464.169	0.10872838
464.379	0.10850696
464.588	0.10820104
464.797	0.1077379
465.007	0.10717196
465.216	0.10673806
465.425	0.10631127
465.635	0.10588448
465.844	0.10526409
466.053	0.10477656
466.263	0.10442385
466.472	0.10396086
466.681	0.10373603
466.89	0.10328464
467.099	0.10277181
467.309	0.10225503
467.518	0.10191359
467.727	0.1013991
467.936	0.10109794
468.145	0.10061585
468.354	0.10023274
468.563	0.09971851
468.772	0.09940008
468.982	0.09889578
469.191	0.09846421
469.4	0.09791498
469.609	0.09744488
469.818	0.09705048
470.027	0.09674605
470.236	0.09622853
470.445	0.09591783
470.654	0.0954993
470.863	0.09515818
471.072	0.09478103
471.28	0.09442402
471.489	0.09409998
471.698	0.09383835
471.907	0.09341026
472.116	0.09307902
472.325	0.09265942
472.534	0.0922378
472.743	0.09189516
472.951	0.09148203
473.16	0.09110449
473.369	0.09069488
473.578	0.09034041
473.786	0.09015082
473.995	0.08983172
474.204	0.08952201
474.413	0.08921311
474.621	0.08887542
474.83	0.08859871
475.039	0.08824962
475.247	0.08787873
475.456	0.08758436
475.665	0.08721627
475.873	0.0868236
476.082	0.08656715
476.291	0.08625679
476.499	0.08608567
476.708	0.08570977
476.916	0.08543737
477.125	0.08514588
477.333	0.08485487
477.542	0.08453204
477.75	0.08417419
477.959	0.08375292
478.167	0.08354386
478.376	0.08322719
478.584	0.0828535
478.793	0.08261667
479.001	0.0821733
479.209	0.08193148
479.418	0.08161168
479.626	0.08122004
479.834	0.08088358
480.043	0.08060374
480.251	0.08024962
480.459	0.08003926
480.668	0.07975263
480.876	0.07956322
481.084	0.07935742
481.293	0.07912234
481.501	0.0788547
481.709	0.07870683
481.917	0.07852092
482.125	0.07827315
482.334	0.0780108
482.542	0.07777182
482.75	0.07751053
482.958	0.07729828
483.166	0.07693321
483.374	0.07666132
483.583	0.07638867
483.791	0.07616213
483.999	0.07583935
484.207	0.07570678
484.415	0.07549846
484.623	0.07530782
484.831	0.0750977
485.039	0.07488927
485.247	0.07467624
485.455	0.07449634
485.663	0.07412073
485.871	0.07394236
486.079	0.07372049
486.287	0.0734414
486.495	0.07317391
486.702	0.07289994
486.91	0.07264774
487.118	0.07244772
487.326	0.07217549
487.534	0.07198588
487.742	0.07184521
487.95	0.07169909
488.157	0.07156673
488.365	0.0714048
488.573	0.07125097
488.781	0.07110118
488.988	0.0709447
489.196	0.0707603
489.404	0.07056743
489.612	0.07038832
489.819	0.07028657
490.027	0.07007936
490.235	0.06982888
490.442	0.06961391
490.65	0.06939358
490.857	0.06924767
491.065	0.06900474
491.273	0.06878263
491.48	0.06864983
491.688	0.06854006
491.895	0.06839202
492.103	0.06826519
492.31	0.06813613
492.518	0.068016
492.725	0.06788697
492.933	0.06768097
493.14	0.06745048
493.348	0.06730414
493.555	0.0671118
493.763	0.0669528
493.97	0.06682751
494.177	0.06661518
494.385	0.06654115
494.592	0.06640416
494.8	0.06618409
495.007	0.06604132
495.214	0.06580034
495.422	0.06559675
495.629	0.0654362
495.836	0.06522269
496.043	0.06511994
496.251	0.06504185
496.458	0.06490897
496.665	0.06492102
496.872	0.06482369
497.08	0.06470876
497.287	0.06463279
497.494	0.06455605
497.701	0.06441989
497.908	0.06435784
498.115	0.06418175
498.322	0.06406762
498.53	0.0639612
498.737	0.06381717
498.944	0.06372633
499.151	0.06360988
499.358	0.06345074
499.565	0.06337155
499.772	0.06325776
499.979	0.06320754
500.186	0.06317165
500.393	0.0630384
500.6	0.0629536
500.807	0.06289027
501.014	0.06277166
501.221	0.06268428
501.427	0.06261476
501.634	0.0625107
501.841	0.062418
502.048	0.06229383
502.255	0.06221031
502.462	0.06213126
502.669	0.06206117
502.875	0.0619473
503.082	0.06185765
503.289	0.06170417
503.496	0.06166629
503.702	0.0615364
503.909	0.06142766
504.116	0.06134733
504.323	0.06126537
504.529	0.06119582
504.736	0.06121697
504.943	0.06115227
505.149	0.06109284
505.356	0.06103901
505.563	0.06094291
505.769	0.06087378
505.976	0.06077657
506.182	0.06067865
506.389	0.06055114
506.595	0.06054327
506.802	0.06051404
507.008	0.06047956
507.215	0.06041716
507.421	0.06040902
507.628	0.06040587
507.834	0.06045779
508.041	0.06037437
508.247	0.06032796
508.454	0.06031257
508.66	0.06028897
508.866	0.06025612
509.073	0.06020793
509.279	0.06013731
509.486	0.06012202
509.692	0.06013623
509.898	0.06010344
510.105	0.06008845
510.311	0.06003886
510.517	0.05998634
510.723	0.05996455
510.93	0.05991791
511.136	0.05984071
511.342	0.05981877
511.548	0.05978105
511.754	0.05975457
511.961	0.05973533
512.167	0.05973989
512.373	0.05971514
512.579	0.0596989
512.785	0.05967576
512.991	0.05966593
513.197	0.05965501
513.404	0.0596465
513.61	0.05961411
513.816	0.05968609
514.022	0.05969863
514.228	0.05967878
514.434	0.0596854
514.64	0.05964399
514.846	0.05960542
515.052	0.05959469
515.258	0.0595522
515.464	0.05951053
515.669	0.05952867
515.875	0.05949746
516.081	0.05950764
516.287	0.05953039
516.493	0.05953442
516.699	0.0594865
516.905	0.05947216
517.111	0.05941499
517.316	0.0593694
517.522	0.05938203
517.728	0.05935524
517.934	0.05930604
518.139	0.05932183
518.345	0.05932029
518.551	0.05936464
518.757	0.05938821
518.962	0.05942608
519.168	0.05943177
519.374	0.0595007
519.579	0.05957668
519.785	0.0596204
519.991	0.05960683
520.196	0.0596596
520.402	0.05963341
520.607	0.05965645
520.813	0.05966119
521.018	0.05962702
521.224	0.05965502
521.429	0.05971376
521.635	0.05970345
521.84	0.05976807
522.046	0.05980922
522.251	0.0598411
522.457	0.05988038
522.662	0.05991628
522.868	0.05995082
523.073	0.06000349
523.279	0.05999942
523.484	0.06002798
523.689	0.06004068
523.895	0.06008512
524.1	0.06010526
524.305	0.06012045
524.511	0.06017966
524.716	0.06021645
524.921	0.06027125
525.126	0.06033708
525.332	0.06035539
525.537	0.06038286
525.742	0.06042158
525.947	0.06039641
526.153	0.06047954
526.358	0.06050849
526.563	0.06049816
526.768	0.06051335
526.973	0.06054963
527.178	0.06058641
527.383	0.06063268
527.588	0.06065108
527.794	0.06069405
527.999	0.06077966
528.204	0.06083982
528.409	0.0608448
528.614	0.06088697
528.819	0.06090604
529.024	0.06091044
529.229	0.06094193
529.434	0.0609163
529.639	0.06095763
529.843	0.06102051
530.048	0.06102578
530.253	0.06112755
530.458	0.06120266
530.663	0.06126717
530.868	0.06136664
531.073	0.06140943
531.278	0.06148759
531.482	0.06156345
531.687	0.06162132
531.892	0.06165603
532.097	0.06164585
532.302	0.06170024
532.506	0.06179415
532.711	0.06180901
532.916	0.0618415
533.12	0.06188584
533.325	0.06191661
533.53	0.06198444
533.734	0.06199553
533.939	0.0619569
534.144	0.06200503
534.348	0.06206399
534.553	0.06211948
534.757	0.06220665
534.962	0.06227102
535.167	0.06236617
535.371	0.06247735
535.576	0.06257459
535.78	0.0626313
535.985	0.06265299
536.189	0.06272696
536.394	0.06277248
536.598	0.06278484
536.803	0.06278801
537.007	0.06282347
537.211	0.06292275
537.416	0.06298235
537.62	0.06303302
537.825	0.06308345
538.029	0.06320024
538.233	0.06329361
538.438	0.06336843
538.642	0.063391
538.846	0.06345287
539.05	0.06349901
539.255	0.06357128
539.459	0.06360606
539.663	0.06363991
539.867	0.06366125
540.072	0.06374225
540.276	0.06381007
540.48	0.0638672
540.684	0.06388632
540.888	0.06389343
541.092	0.06396047
541.297	0.06403337
541.501	0.06405661
541.705	0.06407248
541.909	0.06407596
542.113	0.06415628
542.317	0.06423434
542.521	0.06435952
542.725	0.06442995
542.929	0.06449432
543.133	0.06461524
543.337	0.06473019
543.541	0.06483299
543.745	0.06492436
543.949	0.06494934
544.153	0.06500065
544.357	0.06507917
544.56	0.06514008
544.764	0.06520669
544.968	0.06523672
545.172	0.06525434
545.376	0.06526816
545.58	0.06529568
545.783	0.06535821
545.987	0.06540335
546.191	0.06542126
546.395	0.06548541
546.598	0.06559873
546.802	0.06568254
547.006	0.06577604
547.21	0.06581287
547.413	0.06586823
547.617	0.06593583
547.821	0.06602012
548.024	0.06605073
548.228	0.06605805
548.431	0.06610279
548.635	0.06615327
548.839	0.0662157
549.042	0.06629126
549.246	0.06633701
549.449	0.06638659
549.653	0.06650794
549.856	0.06655143
550.06	0.06657853
550.263	0.06661083
550.467	0.06663384
550.67	0.06665292
550.874	0.0666927
551.077	0.06672732
551.28	0.06680282
551.484	0.06686938
551.687	0.0668866
551.891	0.06694513
552.094	0.06697763
552.297	0.06704077
552.501	0.06709571
552.704	0.06709908
552.907	0.06715405
553.11	0.06724013
553.314	0.06732746
553.517	0.06741276
553.72	0.0674684
553.923	0.06756996
554.127	0.06765145
554.33	0.06765947
554.533	0.06770322
554.736	0.06766234
554.939	0.06769052
555.142	0.06773682
555.345	0.06770303
555.549	0.067718
555.752	0.06780469
555.955	0.06786454
556.158	0.06801375
556.361	0.06808132
556.564	0.0681228
556.767	0.06820016
556.97	0.06831646
557.173	0.06837071
557.376	0.06836228
557.579	0.06836266
557.782	0.06838432
557.984	0.0684334
558.187	0.06842456
558.39	0.06835638
558.593	0.06837149
558.796	0.06842556
558.999	0.06843728
559.202	0.0684606
559.404	0.06847089
559.607	0.06854933
559.81	0.06864785
560.013	0.06868563
560.216	0.06875254
560.418	0.06877279
560.621	0.06879155
560.824	0.06879171
561.026	0.06883729
561.229	0.06879688
561.432	0.06881707
561.634	0.06881814
561.837	0.06890747
562.04	0.06897004
562.242	0.06904857
562.445	0.06906733
562.647	0.06913701
562.85	0.06916726
563.053	0.06918139
563.255	0.06915008
563.458	0.06918558
563.66	0.06919973
563.863	0.06925687
564.065	0.06929255
564.268	0.069356
564.47	0.06942761
564.672	0.06948566
564.875	0.06954593
565.077	0.06956893
565.28	0.06954618
565.482	0.06958037
565.684	0.06957947
565.887	0.06952322
566.089	0.06954201
566.291	0.06955075
566.494	0.06959502
566.696	0.0696534
566.898	0.06966588
567.1	0.06964935
567.303	0.06972743
567.505	0.06973875
567.707	0.06969062
567.909	0.06966411
568.111	0.0696458
568.314	0.06964788
568.516	0.06973263
568.718	0.06977773
568.92	0.06980808
569.122	0.06985141
569.324	0.06989618
569.526	0.06987985
569.728	0.06989341
569.93	0.06984819
570.132	0.06980993
570.334	0.06985232
570.536	0.06984629
570.738	0.06980921
570.94	0.06984977
571.142	0.0698795
571.344	0.06989912
571.546	0.06987862
571.748	0.06982501
571.95	0.06984612
572.152	0.06983965
572.354	0.06985955
572.555	0.069841
572.757	0.06985189
572.959	0.06989754
573.161	0.06992468
573.363	0.06989801
573.564	0.06995015
573.766	0.06992159
573.968	0.06996376
574.17	0.06996785
574.371	0.06992721
574.573	0.0699006
574.775	0.06988851
574.976	0.06985801
575.178	0.0698588
575.38	0.06980382
575.581	0.06976877
575.783	0.06975275
575.985	0.06976626
576.186	0.06976682
576.388	0.06977773
576.589	0.06973398
576.791	0.06974763
576.992	0.06975021
577.194	0.06974254
577.395	0.06971238
577.597	0.06974685
577.798	0.06972596
578	0.06969466
578.201	0.06968911
578.402	0.06965216
578.604	0.06959416
578.805	0.06954531
579.007	0.06947119
579.208	0.06946768
579.409	0.06945048
579.611	0.06942593
579.812	0.06940726
580.013	0.06948132
580.215	0.06947977
580.416	0.06949306
580.617	0.0694807
580.818	0.06947735
581.019	0.06944695
581.221	0.06946744
581.422	0.06940341
581.623	0.06938732
581.824	0.06931858
582.025	0.06925987
582.226	0.06922228
582.428	0.06924826
582.629	0.06917607
582.83	0.06917393
583.031	0.06913781
583.232	0.06917055
583.433	0.06917845
583.634	0.06917888
583.835	0.06909017
584.036	0.06906148
584.237	0.06901845
584.438	0.06903381
584.639	0.06899216
584.84	0.06897882
585.041	0.06899727
585.242	0.06899147
585.442	0.06897351
585.643	0.0689703
585.844	0.0689169
586.045	0.06888837
586.246	0.06881041
586.447	0.06876424
586.647	0.06874346
586.848	0.06872137
587.049	0.06866626
587.25	0.06861308
587.45	0.06856905
587.651	0.06857264
587.852	0.06848871
588.053	0.06847254
588.253	0.06845296
588.454	0.06841116
588.655	0.06837054
588.855	0.06837608
589.056	0.06834265
589.256	0.06834623
589.457	0.06830669
589.658	0.06825985
589.858	0.06822584
590.059	0.06823984
590.259	0.06820608
590.46	0.06817511
590.66	0.06810661
590.861	0.06807903
591.061	0.06805215
591.262	0.06805891
591.462	0.06805793
591.662	0.06803167
591.863	0.06796227
592.063	0.06794691
592.264	0.06789934
592.464	0.06788144
592.664	0.06783819
592.865	0.06782889
593.065	0.06772449
593.265	0.06773921
593.465	0.06772497
593.666	0.06769303
593.866	0.06767906
594.066	0.06770412
594.266	0.06760496
594.467	0.0675885
594.667	0.0674888
594.867	0.06745928
595.067	0.06741612
595.267	0.06730176
595.467	0.06722963
595.668	0.06717022
595.868	0.06712933
596.068	0.06709047
596.268	0.06698501
596.468	0.06694208
596.668	0.06691145
596.868	0.06684299
597.068	0.06680113
597.268	0.06673413
597.468	0.06670319
597.668	0.06668112
597.868	0.06665727
598.068	0.06663358
598.268	0.06658447
598.467	0.06664384
598.667	0.06662259
598.867	0.06657677
599.067	0.0665891
599.267	0.06652176
599.467	0.06649182
599.667	0.06643752
599.866	0.06633831
600.066	0.0662797
600.266	0.06624494
600.466	0.06616345
600.665	0.06613528
600.865	0.06608427
601.065	0.06608198
601.264	0.06603386
601.464	0.06599789
601.664	0.06602299
601.863	0.06599923
602.063	0.0659553
602.263	0.06584384
602.462	0.06579781
602.662	0.06576566
602.861	0.06575426
603.061	0.06567227
603.26	0.06564495
603.46	0.06559248
603.659	0.06562982
603.859	0.06553827
604.058	0.06539901
604.258	0.06539873
604.457	0.06538091
604.657	0.06528861
604.856	0.06518403
605.056	0.06515291
605.255	0.06514635
605.454	0.06519712
605.654	0.06509136
605.853	0.06505145
606.052	0.06504099
606.252	0.06511685
606.451	0.06510468
606.65	0.06507106
606.849	0.06500527
607.049	0.06498177
607.248	0.06494295
607.447	0.06488974
607.646	0.06478336
607.845	0.06471468
608.045	0.06464556
608.244	0.06467878
608.443	0.06463841
608.642	0.06461838
608.841	0.06457061
609.04	0.0645693
609.239	0.06456422
609.438	0.06449437
609.637	0.06446732
609.836	0.06443558
610.035	0.06437231
610.234	0.06439778
610.433	0.06436641
610.632	0.06429745
610.831	0.06436593
611.03	0.06426205
611.229	0.06432047
611.428	0.0643329
611.627	0.06429711
611.826	0.06434329
612.025	0.06442614
612.224	0.06437437
612.422	0.06436531
612.621	0.06431673
612.82	0.06430585
613.019	0.06430047
613.218	0.06424227
613.416	0.06412315
613.615	0.06411568
613.814	0.06410233
614.012	0.06405421
614.211	0.06397475
614.41	0.06395152
614.608	0.06391119
614.807	0.06391582
615.006	0.06394831
615.204	0.06396427
615.403	0.06398996
615.602	0.06401104
615.8	0.06407146
615.999	0.06405337
616.197	0.06404641
616.396	0.06404002
616.594	0.06397935
616.793	0.06400706
616.991	0.06398776
617.19	0.06385054
617.388	0.06388254
617.586	0.06387758
617.785	0.06384092
617.983	0.06385913
618.182	0.06376193
618.38	0.06374614
618.578	0.06380395
618.777	0.06381361
618.975	0.06383657
619.173	0.06381366
619.372	0.06384035
619.57	0.06383083
619.768	0.06384637
619.966	0.06386707
620.165	0.06384735
620.363	0.06387115
620.561	0.06385102
620.759	0.0638458
620.957	0.06393476
621.155	0.0639761
621.354	0.06392344
621.552	0.06393715
621.75	0.06385641
621.948	0.06388408
622.146	0.06387811
622.344	0.06382116
622.542	0.06379248
622.74	0.06384685
622.938	0.06380897
623.136	0.06388319
623.334	0.06392044
623.532	0.0638474
623.73	0.06384398
623.928	0.06391008
624.126	0.06392582
624.324	0.0640206
624.522	0.06396656
624.719	0.06397893
624.917	0.06410897
625.115	0.06412844
625.313	0.06412288
625.511	0.06415384
625.708	0.06408264
625.906	0.06409783
626.104	0.06408997
626.302	0.06415941
626.499	0.06418156
626.697	0.06418699
626.895	0.06411267
627.093	0.0641353
627.29	0.06421743
627.488	0.06421448
627.686	0.06414344
627.883	0.06413087
628.081	0.06408281
628.278	0.06421812
628.476	0.06422461
628.673	0.06421514
628.871	0.06424881
629.068	0.06429953
629.266	0.06437619
629.463	0.06435578
629.661	0.06431867
629.858	0.06429037
630.056	0.06429076
630.253	0.06426659
630.451	0.06427291
630.648	0.06427262
630.845	0.06435443
631.043	0.06435323
631.24	0.06447289
631.438	0.06451952
631.635	0.06460412
631.832	0.06455476
632.029	0.06457302
632.227	0.06461136
632.424	0.06467353
632.621	0.06469667
632.818	0.06469286
633.016	0.06470907
633.213	0.06474906
633.41	0.06480214
633.607	0.06481069
633.804	0.06482508
634.001	0.06478561
634.199	0.06489442
634.396	0.06493185
634.593	0.06496923
634.79	0.06500926
634.987	0.06505814
635.184	0.06506046
635.381	0.06514996
635.578	0.06512477
635.775	0.06507392
635.972	0.06510469
636.169	0.06509169
636.366	0.06506514
636.563	0.06510221
636.76	0.06502588
636.957	0.06508078
637.153	0.06512214
637.35	0.06518094
637.547	0.06517053
637.744	0.0652214
637.941	0.0652496
638.138	0.06536605
638.334	0.06533055
638.531	0.06540127
638.728	0.06546207
638.925	0.06558468
639.121	0.06561258
639.318	0.06565562
639.515	0.06564601
639.711	0.06572564
639.908	0.0657083
640.105	0.06567765
640.301	0.06565524
640.498	0.06568194
640.695	0.06575265
640.891	0.06580013
641.088	0.06581174
641.284	0.06589778
641.481	0.06593361
641.677	0.06596838
641.874	0.06597373
642.07	0.0660084
642.267	0.06608128
642.463	0.06614792
642.66	0.06618689
642.856	0.06619656
643.053	0.0662004
643.249	0.06629417
643.445	0.06627717
643.642	0.06627176
643.838	0.06626303
644.034	0.06627299
644.231	0.06628375
644.427	0.06635298
644.623	0.06635001
644.82	0.06638825
645.016	0.06642866
645.212	0.06640047
645.408	0.06646488
645.604	0.06662358
645.801	0.06667016
645.997	0.06669648
646.193	0.06669158
646.389	0.06676687
646.585	0.06687786
646.781	0.06693724
646.977	0.06688229
647.173	0.06690608
647.37	0.06692242
647.566	0.06702023
647.762	0.06700484
647.958	0.06706527
648.154	0.06702342
648.35	0.06706761
648.546	0.0670881
648.742	0.06719941
648.937	0.06712521
649.133	0.06718445
649.329	0.06724456
649.525	0.06730976
649.721	0.06738163
649.917	0.06750521
650.113	0.06749807
650.309	0.06770234
650.504	0.0677311
650.7	0.06768158
650.896	0.06773935
651.092	0.06776775
651.287	0.06777421
651.483	0.06786417
651.679	0.06781784
651.875	0.06791134
652.07	0.0679541
652.266	0.06797467
652.462	0.06797475
652.657	0.06798648
652.853	0.06801485
653.048	0.06805942
653.244	0.06799157
653.44	0.06802303
653.635	0.06801973
653.831	0.06809848
654.026	0.06815695
654.222	0.06814254
654.417	0.06822135
654.613	0.06830787
654.808	0.0683698
655.004	0.06845272
655.199	0.06845611
655.394	0.06843805
655.59	0.06855399
655.785	0.06851347
655.98	0.06853965
656.176	0.0685312
656.371	0.06862438
656.566	0.0686431
656.762	0.06861305
656.957	0.06859538
657.152	0.06863839
657.348	0.06866021
657.543	0.06876853
657.738	0.06874015
657.933	0.06877942
658.128	0.06886213
658.324	0.06887327
658.519	0.06893343
658.714	0.06898273
658.909	0.06897354
659.104	0.06905023
659.299	0.0691114
659.494	0.06914295
659.689	0.06923474
659.884	0.06928233
660.079	0.06925184
660.274	0.06926339
660.469	0.06928586
660.664	0.06933717
660.859	0.06938772
661.054	0.06939959
661.249	0.06941405
661.444	0.06948878
661.639	0.06947549
661.834	0.06942997
662.029	0.06944826
662.224	0.06947432
662.418	0.06950098
662.613	0.06952834
662.808	0.06953784
663.003	0.06961978
663.198	0.06965823
663.392	0.06964648
663.587	0.06973481
663.782	0.06971483
663.977	0.06971342
664.171	0.06977111
664.366	0.06982433
664.561	0.06988848
664.755	0.06999318
664.95	0.06997546
665.144	0.06997343
665.339	0.07004637
665.534	0.07007407
665.728	0.07010431
665.923	0.07011987
666.117	0.07010587
666.312	0.07013388
666.506	0.07024335
666.701	0.07021402
666.895	0.07021006
667.09	0.07024716
667.284	0.0702945
667.479	0.07030746
667.673	0.07030295
667.867	0.07034407
668.062	0.07037979
668.256	0.07039723
668.45	0.07042828
668.645	0.07040103
668.839	0.07039736
669.033	0.07043947
669.228	0.0704136
669.422	0.07048243
669.616	0.07054679
669.81	0.07056595
670.004	0.07058517
670.199	0.07065278
670.393	0.07067683
670.587	0.07071025
670.781	0.07070745
670.975	0.07072743
671.169	0.07071896
671.363	0.07073786
671.558	0.07073968
671.752	0.07077925
671.946	0.07081478
672.14	0.07084179
672.334	0.07084645
672.528	0.07089345
672.722	0.07086286
672.916	0.07089098
673.11	0.07082905
673.304	0.07087962
673.497	0.07088878
673.691	0.07091535
673.885	0.07087655
674.079	0.07097944
674.273	0.07090592
674.467	0.07094668
674.661	0.07091535
674.854	0.07090558
675.048	0.07090847
675.242	0.07091747
675.436	0.07087815
675.629	0.07097344
675.823	0.07099709
676.017	0.07100767
676.211	0.07100066
676.404	0.07100701
676.598	0.07104538
676.792	0.07109302
676.985	0.07111323
677.179	0.07111879
677.372	0.07111389
677.566	0.0711854
677.76	0.07120963
677.953	0.07121645
678.147	0.07126735
678.34	0.07124734
678.534	0.07126295
678.727	0.07131123
678.921	0.07135053
679.114	0.07130228
679.307	0.07135253
679.501	0.07131709
679.694	0.07135178
679.888	0.07138865
680.081	0.07140239
680.274	0.07133298
680.468	0.07138584
680.661	0.07134039
680.854	0.07146748
681.048	0.07147772
681.241	0.07147589
681.434	0.07144157
681.627	0.07151265
681.821	0.07153191
682.014	0.07161184
682.207	0.07147358
682.4	0.07146665
682.593	0.07150356
682.786	0.07154992
682.98	0.07152451
683.173	0.07155519
683.366	0.07154944
683.559	0.07158792
683.752	0.07165593
683.945	0.07168481
684.138	0.07168799
684.331	0.07168164
684.524	0.07175707
684.717	0.07175712
684.91	0.07180481
685.103	0.07175931
685.296	0.07174554
685.489	0.07178761
685.682	0.07179909
685.874	0.07174802
686.067	0.0717261
686.26	0.07173978
686.453	0.0717322
686.646	0.07168821
686.839	0.0716973
687.031	0.07175507
687.224	0.07170561
687.417	0.07176433
687.61	0.07175573
687.802	0.07177669
687.995	0.07185114
688.188	0.07184791
688.38	0.07181436
688.573	0.07188523
688.766	0.07187575
688.958	0.0718708
689.151	0.07187931
689.343	0.07186057
689.536	0.07184341
689.729	0.07186495
689.921	0.07187612
690.114	0.0718571
690.306	0.07185912
690.499	0.07189293
690.691	0.07193309
690.884	0.07193861
691.076	0.07193975
691.268	0.07189282
691.461	0.07184233
691.653	0.07183647
691.846	0.07181924
692.038	0.07173475
692.23	0.07169975
692.423	0.07171867
692.615	0.07173283
692.807	0.07177207
692.999	0.07179131
693.192	0.07176276
693.384	0.07180381
693.576	0.07178104
693.768	0.07172108
693.961	0.07166596
694.153	0.07165701
694.345	0.07161272
694.537	0.07164456
694.729	0.07165662
694.921	0.07167103
695.113	0.07174143
695.305	0.07179444
695.498	0.07180289
695.69	0.07187575
695.882	0.07185832
696.074	0.07182851
696.266	0.07186227
696.458	0.07181942
696.65	0.07179989
696.842	0.07177087
697.033	0.07170315
697.225	0.07162422
697.417	0.07166631
697.609	0.07162932
697.801	0.07162554
697.993	0.07163757
698.185	0.07166558
698.376	0.07169808
698.568	0.07179353
698.76	0.07176491
698.952	0.07177427
699.144	0.07172996
699.335	0.07170546
699.527	0.07167086
699.719	0.07167189
699.91	0.07168217
700.102	0.07165904
700.294	0.07164659
700.485	0.07166859
700.677	0.07170891
700.869	0.07179238
701.06	0.07180604
701.252	0.07174382
701.443	0.07179875
701.635	0.07180554
701.826	0.07184148
702.018	0.07185444
702.209	0.07181791
702.401	0.07179602
702.592	0.07184155
702.784	0.07179142
702.975	0.07180647
703.166	0.07181055
703.358	0.07176826
703.549	0.07175494
703.741	0.07178123
703.932	0.0717271
704.123	0.07169227
704.315	0.07166539
704.506	0.07166213
704.697	0.07165726
704.888	0.07168016
705.08	0.07165765
705.271	0.07169627
705.462	0.07172397
705.653	0.0717436
705.844	0.07175046
706.035	0.07178113
706.227	0.07176057
706.418	0.07177289
706.609	0.07179091
706.8	0.07182105
706.991	0.07184184
707.182	0.07182002
707.373	0.07179104
707.564	0.07181511
707.755	0.07180538
707.946	0.07180215
708.137	0.07175585
708.328	0.07175688
708.519	0.07169684
708.71	0.07171889
708.901	0.07166451
709.092	0.07166863
709.283	0.07165142
709.473	0.07168111
709.664	0.07167652
709.855	0.07168214
710.046	0.07166397
710.237	0.07171901
710.427	0.07172909
710.618	0.0717651
710.809	0.071771
711	0.07178098
711.19	0.07177583
711.381	0.07177873
711.572	0.0717715
711.762	0.07177856
711.953	0.07174837
712.144	0.07173892
712.334	0.07168301
712.525	0.07172398
712.715	0.07172699
712.906	0.07170091
713.097	0.07166471
713.287	0.0716693
713.478	0.07168022
713.668	0.07174208
713.859	0.07169593
714.049	0.07170562
714.239	0.07171073
714.43	0.07171936
714.62	0.07165521
714.811	0.07162113
715.001	0.07159023
715.191	0.07163591
715.382	0.07161979
715.572	0.07162516
715.762	0.07161045
715.953	0.07169944
716.143	0.07173484
716.333	0.07177185
716.523	0.07179219
716.714	0.07183994
716.904	0.07183957
717.094	0.07191375
717.284	0.07190259
717.474	0.07189251
717.664	0.07187236
717.855	0.07192749
718.045	0.07191373
718.235	0.07193914
718.425	0.07186226
718.615	0.07187238
718.805	0.07194168
718.995	0.07197922
719.185	0.07199127
719.375	0.07205536
719.565	0.07212444
719.755	0.07223387
719.945	0.07225308
720.135	0.07223516
720.325	0.07226938
720.515	0.0722783
720.704	0.07223341
720.894	0.07223384
721.084	0.07220911
721.274	0.07226441
721.464	0.07227144
721.654	0.07225422
721.843	0.07222518
722.033	0.07227395
722.223	0.07225542
722.413	0.07228259
722.602	0.07226968
722.792	0.07232115
722.982	0.07232546
723.171	0.07234448
723.361	0.0723408
723.55	0.07240192
723.74	0.07241018
723.93	0.07242426
724.119	0.07242542
724.309	0.07253604
724.498	0.07253505
724.688	0.07258892
724.877	0.07256371
725.067	0.07253429
725.256	0.07251591
725.446	0.07253157
725.635	0.07242055
725.825	0.07239282
726.014	0.07233919
726.203	0.07232202
726.393	0.07227858
726.582	0.07227772
726.771	0.07225665
726.961	0.07226787
727.15	0.07229577
727.339	0.07231747
727.529	0.07230503
727.718	0.07236378
727.907	0.07232522
728.096	0.0722845
728.286	0.07227877
728.475	0.07229619
728.664	0.07231101
728.853	0.07230045
729.042	0.07226963
729.231	0.07230679
729.42	0.07235885
729.609	0.07238257
729.799	0.07237189
729.988	0.07236436
730.177	0.07239582
730.366	0.07246512
730.555	0.07245561
730.744	0.0724538
730.933	0.07243609
731.122	0.07239069
731.31	0.07233659
731.499	0.07229301
731.688	0.07222532
731.877	0.07220864
732.066	0.0721482
732.255	0.07209571
732.444	0.07209038
732.632	0.07208727
732.821	0.07206652
733.01	0.07208579
733.199	0.0720984
733.388	0.07215551
733.576	0.07219057
733.765	0.07221694
733.954	0.07222737
734.142	0.07228426
734.331	0.07227932
734.52	0.07226143
734.708	0.07219999
734.897	0.07216813
735.086	0.07214586
735.274	0.07211267
735.463	0.07200883
735.651	0.07197791
735.84	0.07198898
736.028	0.07201668
736.217	0.07206967
736.405	0.07209711
736.594	0.07215525
736.782	0.07219906
736.971	0.07220069
737.159	0.0721796
737.347	0.07215289
737.536	0.07215436
737.724	0.07217209
737.912	0.07213658
738.101	0.07216967
738.289	0.07222137
738.477	0.07224839
738.666	0.07225774
738.854	0.07228755
739.042	0.07226688
739.23	0.07229482
739.418	0.07229614
739.607	0.07225448
739.795	0.07225422
739.983	0.07229469
740.171	0.07229504
740.359	0.07235933
740.547	0.0723428
740.735	0.07233523
740.923	0.0723441
741.112	0.07237705
741.3	0.07237637
741.488	0.07233189
741.676	0.07231954
741.864	0.07234382
742.052	0.07241824
742.239	0.07241067
742.427	0.07238519
742.615	0.07235246
742.803	0.07233838
742.991	0.07230515
743.179	0.07226438
743.367	0.07222113
743.555	0.0722463
743.742	0.07224373
743.93	0.07227979
744.118	0.07232354
744.306	0.07232948
744.494	0.07236473
744.681	0.07239219
744.869	0.0723903
745.057	0.07241514
745.244	0.07241754
745.432	0.07241009
745.62	0.07244293
745.807	0.07252831
745.995	0.07250644
746.182	0.07255285
746.37	0.0725351
746.558	0.07258732
746.745	0.07256699
746.933	0.07252203
747.12	0.07250317
747.308	0.0725581
747.495	0.0725461
747.683	0.07258767
747.87	0.07256961
748.057	0.07263132
748.245	0.07272978
748.432	0.07268323
748.62	0.07263953
748.807	0.07264046
748.994	0.07263456
749.182	0.07260412
749.369	0.07260171
749.556	0.0725369
749.743	0.07255912
749.931	0.07262788
750.118	0.07266796
750.305	0.07271198
750.492	0.07279667
750.68	0.072832
750.867	0.07286559
751.054	0.07293225
751.241	0.07293671
751.428	0.07299633
751.615	0.07296765
751.802	0.07296382
751.989	0.07293473
752.176	0.07297059
752.363	0.07292443
752.55	0.07290721
752.737	0.07283084
752.924	0.07282449
753.111	0.07286548
753.298	0.07289614
753.485	0.07291754
753.672	0.0729645
753.859	0.07297605
754.046	0.07303578
754.233	0.07305729
754.42	0.07303066
754.606	0.07305414
754.793	0.07307258
754.98	0.07304097
755.167	0.07304358
755.353	0.0730683
755.54	0.07315405
755.727	0.07316084
755.914	0.07315422
756.1	0.07317437
756.287	0.07323926
756.474	0.07321538
756.66	0.07316938
756.847	0.07315752
757.033	0.07317891
757.22	0.07320828
757.407	0.07324373
757.593	0.07329092
757.78	0.07331624
757.966	0.07342828
758.153	0.07345645
758.339	0.07348011
758.526	0.07347359
758.712	0.0733939
758.898	0.07336565
759.085	0.07343972
759.271	0.07339801
759.458	0.0734394
759.644	0.07345327
759.83	0.07350767
760.017	0.07358519
760.203	0.07361454
760.389	0.07357324
760.576	0.0735775
760.762	0.07353977
760.948	0.07355886
761.134	0.07360419
761.32	0.07360847
761.507	0.07361069
761.693	0.0736922
761.879	0.07370521
762.065	0.07372187
762.251	0.07373783
762.437	0.07369313
762.623	0.07370133
762.809	0.07371367
762.995	0.07369619
763.181	0.07372977
763.367	0.07371166
763.553	0.07367381
763.739	0.07367409
763.925	0.07372373
764.111	0.07376036
764.297	0.07381696
764.483	0.07382872
764.669	0.07388226
764.855	0.07392869
765.041	0.07397813
765.227	0.0739297
765.412	0.07389676
765.598	0.07388134
765.784	0.07387176
765.97	0.07390591
766.156	0.07392988
766.341	0.07394709
766.527	0.07396205
766.713	0.07396153
766.898	0.07397238
767.084	0.07395273
767.27	0.07390737
767.455	0.07390577
767.641	0.07391346
767.827	0.07394787
768.012	0.07400597
768.198	0.07409757
768.383	0.07414893
768.569	0.07420224
768.754	0.07420436
768.94	0.07418031
769.125	0.07419799
769.311	0.07422348
769.496	0.07415565
769.682	0.07416995
769.867	0.07421139
770.052	0.07426345
770.238	0.07433102
770.423	0.07440533
770.608	0.07440723
770.794	0.07447974
770.979	0.07449417
771.164	0.07452162
771.35	0.07452616
771.535	0.07454232
771.72	0.07452929
771.905	0.07456462
772.09	0.07456488
772.276	0.07460707
772.461	0.07457427
772.646	0.07461208
772.831	0.07458835
773.016	0.07463845
773.201	0.07462924
773.386	0.07463696
773.571	0.07462485
773.756	0.07466407
773.941	0.07464272
774.126	0.07470827
774.311	0.07464198
774.496	0.07467658
774.681	0.07465925
774.866	0.07471156
775.051	0.07467541
775.236	0.074656
775.421	0.07463439
775.606	0.07468068
775.791	0.07468877
775.976	0.07471902
776.16	0.07468419
776.345	0.07475457
776.53	0.07484939
776.715	0.0749005
776.899	0.07488204
777.084	0.07488008
777.269	0.07489488
777.454	0.07487843
777.638	0.07484499
777.823	0.07481642
778.008	0.07476749
778.192	0.07482525
778.377	0.07482921
778.561	0.07488649
778.746	0.07500855
778.931	0.07509639
779.115	0.07514629
779.3	0.07520027
779.484	0.07513527
779.669	0.0751425
779.853	0.07500038
780.037	0.0749509
780.222	0.07489634
780.406	0.07486315
780.591	0.07483083
780.775	0.07494896
780.959	0.07499484
781.144	0.07514496
781.328	0.07519525
781.512	0.0751849
781.697	0.07516974
781.881	0.07519426
782.065	0.07515416
782.249	0.07509483
782.434	0.07504015
782.618	0.07498347
782.802	0.07496374
782.986	0.0749877
783.17	0.07496375
783.354	0.07491839
783.539	0.07497195
783.723	0.07491662
783.907	0.07494942
784.091	0.07504698
784.275	0.07509946
784.459	0.07513503
784.643	0.07521427
784.827	0.07523583
785.011	0.07537956
785.195	0.07543709
785.379	0.07541516
785.563	0.07536431
785.747	0.07533551
785.93	0.07532697
786.114	0.07527231
786.298	0.07518847
786.482	0.07512247
786.666	0.07514868
786.85	0.07512806
787.033	0.07521079
787.217	0.07523197
787.401	0.07530765
787.585	0.07534566
787.768	0.0753818
787.952	0.07532015
788.136	0.07531706
788.319	0.07528014
788.503	0.07523441
788.687	0.07519354
788.87	0.07522113
789.054	0.07520021
789.237	0.0752947
789.421	0.07536147
789.605	0.07538253
789.788	0.07544085
789.972	0.07548966
790.155	0.07545279
790.338	0.075439
790.522	0.07532432
790.705	0.07528266
790.889	0.07524595
791.072	0.07518818
791.256	0.07517757
791.439	0.07515286
791.622	0.0752179
791.806	0.0753277
791.989	0.07537286
792.172	0.07543035
792.355	0.07549932
792.539	0.07552528
792.722	0.07556755
792.905	0.07559183
793.088	0.07554903
793.271	0.07555229
793.455	0.07555252
793.638	0.07554398
793.821	0.07555043
794.004	0.07554954
794.187	0.07556706
794.37	0.07560433
794.553	0.07562336
794.736	0.07556014
794.919	0.07553668
795.102	0.0755192
795.285	0.07551585
795.468	0.0754272
795.651	0.07536668
795.834	0.0754101
796.017	0.07545304
796.2	0.07544336
796.383	0.07543367
796.566	0.07548576
796.749	0.07555611
796.931	0.07556116
797.114	0.07551904
797.297	0.07551631
797.48	0.07549303
797.663	0.07548517
797.845	0.0754499
798.028	0.07542047
798.211	0.07545196
798.393	0.0755114
798.576	0.07560261
798.759	0.07568523
798.941	0.0757647
799.124	0.07582567
799.307	0.07584269
799.489	0.07590722
799.672	0.07585302
799.854	0.07577
800.037	0.0756547
800.219	0.07557742
800.402	0.07555001
800.584	0.07552899
800.767	0.07549533
800.949	0.07553363
801.132	0.07553612
801.314	0.07561797
801.496	0.07570687
801.679	0.07568406
801.861	0.07571168
802.043	0.07571577
802.226	0.07568567
802.408	0.07572761
802.59	0.07574431
802.772	0.07574078
802.955	0.07579762
803.137	0.07579943
803.319	0.07579448
803.501	0.07579794
803.684	0.07580567
803.866	0.07575299
804.048	0.0756742
804.23	0.07559334
804.412	0.07557592
804.594	0.07556126
804.776	0.07559941
804.958	0.07560309
805.14	0.0756761
805.322	0.07566681
805.504	0.07567449
805.686	0.07561933
805.868	0.07562214
806.05	0.07555821
806.232	0.07553561
806.414	0.07548706
806.596	0.07553088
806.778	0.07553926
806.96	0.07561789
807.141	0.0756293
807.323	0.07562177
807.505	0.07566902
807.687	0.07570504
807.869	0.07571852
808.05	0.07574461
808.232	0.07574993
808.414	0.07573325
808.595	0.07572924
808.777	0.07569772
808.959	0.07566492
809.14	0.07561607
809.322	0.07565248
809.504	0.07562156
809.685	0.07563603
809.867	0.07563437
810.048	0.07564256
810.23	0.07566743
810.411	0.07567935
810.593	0.07561738
810.774	0.07559389
810.956	0.07561781
811.137	0.07561597
811.319	0.07560256
811.5	0.07554333
811.681	0.07557386
811.863	0.07556888
812.044	0.0755961
812.225	0.07557144
812.407	0.07559428
812.588	0.07555629
812.769	0.07563207
812.951	0.07559972
813.132	0.07560909
813.313	0.07559881
813.494	0.07556941
813.675	0.07557841
813.857	0.07560901
814.038	0.07562046
814.219	0.0756515
814.4	0.07563315
814.581	0.07563187
814.762	0.07566758
814.943	0.07565708
815.124	0.07563577
815.305	0.07554098
815.486	0.07548783
815.667	0.07550495
815.848	0.07549112
816.029	0.0754414
816.21	0.07537062
816.391	0.07537019
816.572	0.07546875
816.753	0.07549245
816.934	0.07549132
817.115	0.07544966
817.295	0.07545608
817.476	0.0754576
817.657	0.07540997
817.838	0.07528635
818.019	0.07525247
818.199	0.07513417
818.38	0.07513698
818.561	0.07517007
818.741	0.07522541
818.922	0.07526961
819.103	0.07532
819.283	0.0753339
819.464	0.07539304
819.645	0.07538719
819.825	0.07536078
820.006	0.07529425
820.186	0.07528947
820.367	0.07525366
820.547	0.07524211
820.728	0.07523915
820.908	0.07523615
821.089	0.07518165
821.269	0.07518093
821.45	0.07507611
821.63	0.07504265
821.81	0.07493813
821.991	0.07491082
822.171	0.07487794
822.351	0.07479472
822.532	0.07485088
822.712	0.07486801
822.892	0.07488802
823.072	0.07492408
823.253	0.0748781
823.433	0.07488117
823.613	0.07496674
823.793	0.07491335
823.973	0.0749677
824.154	0.0749682
824.334	0.07497285
824.514	0.07500396
824.694	0.07504725
824.874	0.07496397
825.054	0.07487563
825.234	0.07479438
825.414	0.07470822
825.594	0.07470551
825.774	0.07462988
825.954	0.07458066
826.134	0.07464443
826.314	0.07467757
826.494	0.07469227
826.674	0.07476157
826.854	0.07470095
827.033	0.07477242
827.213	0.07473072
827.393	0.07468178
827.573	0.07467837
827.753	0.07464636
827.932	0.07463353
828.112	0.07472833
828.292	0.07474561
828.472	0.07475024
828.651	0.07473094
828.831	0.0747202
829.011	0.07474294
829.19	0.07464519
829.37	0.07453173
829.549	0.07443227
829.729	0.0743425
829.909	0.07428994
830.088	0.07424207
830.268	0.07416101
830.447	0.07418811
830.627	0.07419368
830.806	0.07412147
830.986	0.0741557
831.165	0.0741782
831.344	0.07424573
831.524	0.07432186
831.703	0.07432959
831.883	0.07427667
832.062	0.07438744
832.241	0.07433108
832.421	0.07423882
832.6	0.07406195
832.779	0.07390505
832.958	0.07378342
833.138	0.07378287
833.317	0.07372886
833.496	0.07373941
833.675	0.07374774
833.854	0.07387827
834.034	0.07395813
834.213	0.07402934
834.392	0.07408121
834.571	0.07410388
834.75	0.07408727
834.929	0.07408449
835.108	0.07399774
835.287	0.07396868
835.466	0.073958
835.645	0.07393985
835.824	0.07391561
836.003	0.07394055
836.182	0.0740047
836.361	0.07394216
836.54	0.07384708
836.719	0.07376671
836.897	0.07360391
837.076	0.07350138
837.255	0.07345541
837.434	0.07341323
837.613	0.07342603
837.791	0.07345359
837.97	0.07345992
838.149	0.07343804
838.328	0.07349399
838.506	0.07342389
838.685	0.07338822
838.864	0.07338746
839.042	0.07329518
839.221	0.07334771
839.4	0.07336469
839.578	0.07326233
839.757	0.07327235
839.935	0.07321687
840.114	0.07316407
840.292	0.07323331
840.471	0.07313162
840.649	0.0731577
840.828	0.07317801
841.006	0.07309073
841.185	0.07309435
841.363	0.07309956
841.541	0.07301826
841.72	0.07299175
841.898	0.0729338
842.076	0.07282326
842.255	0.07282838
842.433	0.07278815
842.611	0.07274837
842.789	0.07271313
842.968	0.07261154
843.146	0.07254242
843.324	0.07256289
843.502	0.07260384
843.68	0.0725269
843.859	0.07245091
844.037	0.07247104
844.215	0.07252714
844.393	0.07251112
844.571	0.07244111
844.749	0.07233393
844.927	0.07226363
845.105	0.07217866
845.283	0.07215834
845.461	0.07213282
845.639	0.0721841
845.817	0.07223271
845.995	0.07227765
846.173	0.07235649
846.351	0.07240697
846.529	0.07228213
846.706	0.07219774
846.884	0.0721256
847.062	0.07207341
847.24	0.07200913
847.418	0.07194497
847.595	0.07193722
847.773	0.0719661
847.951	0.07195192
848.129	0.07189534
848.306	0.07186679
848.484	0.07182735
848.662	0.07186601
848.839	0.07186916
849.017	0.07185642
849.194	0.07187595
849.372	0.0718954
849.549	0.07187661
849.727	0.07182946
849.905	0.07172724
850.082	0.07163599
850.26	0.07159545
850.437	0.07152695
850.614	0.07154443
850.792	0.07154174
850.969	0.0715664
851.147	0.07161879
851.324	0.07173232
851.501	0.07178954
851.679	0.07179369
851.856	0.07162161
852.033	0.07159266
852.211	0.07148881
852.388	0.07126845
852.565	0.07109474
852.742	0.07104365
852.92	0.070933
853.097	0.0710766
853.274	0.07104968
853.451	0.07108117
853.628	0.07114575
853.805	0.07116278
853.982	0.07110456
854.159	0.07112071
854.336	0.07099296
854.514	0.07087563
854.691	0.07077633
854.868	0.07069839
855.045	0.07063699
855.221	0.07054291
855.398	0.07049698
855.575	0.07045831
855.752	0.07053049
855.929	0.07053184
856.106	0.07061041
856.283	0.07061672
856.46	0.07063347
856.637	0.07066362
856.813	0.07065139
856.99	0.07049098
857.167	0.07048925
857.344	0.07040259
857.52	0.0703295
857.697	0.07016487
857.874	0.07008146
858.05	0.07000068
858.227	0.07004969
858.404	0.07004695
858.58	0.07003496
858.757	0.07001629
858.933	0.07010014
859.11	0.07006665
859.287	0.07005558
859.463	0.07010557
859.64	0.07002393
859.816	0.06995594
859.993	0.06990489
860.169	0.06985063
860.345	0.06975152
860.522	0.06975139
860.698	0.0696242
860.875	0.06955702
861.051	0.06955435
861.227	0.0695211
861.404	0.06958651
861.58	0.06971622
861.756	0.0697202
861.932	0.06973153
862.109	0.0697197
862.285	0.06968388
862.461	0.06965862
862.637	0.06955824
862.813	0.06938585
862.99	0.06933173
863.166	0.06928763
863.342	0.06940916
863.518	0.06942378
863.694	0.06945096
863.87	0.0694559
864.046	0.06950571
864.222	0.0694382
864.398	0.06940542
864.574	0.06914477
864.75	0.06903708
864.926	0.06893963
865.102	0.0687699
865.278	0.06854284
865.454	0.06840308
865.63	0.0682823
865.805	0.06830096
865.981	0.0682688
866.157	0.06823733
866.333	0.06832698
866.509	0.06851781
866.684	0.06860591
866.86	0.06864078
867.036	0.06867752
867.212	0.06863191
867.387	0.06865421
867.563	0.06848533
867.739	0.06837395
867.914	0.06832176
868.09	0.06830949
868.265	0.06823104
868.441	0.06823688
868.617	0.06819835
868.792	0.06827896
868.968	0.06821582
869.143	0.06827289
869.319	0.06819289
869.494	0.06823916
869.67	0.06823237
869.845	0.06809893
870.02	0.06807144
870.196	0.06805721
870.371	0.06791682
870.546	0.06792661
870.722	0.06784876
870.897	0.06779192
871.072	0.06777016
871.248	0.06770915
871.423	0.06767324
871.598	0.06762622
871.773	0.06752206
871.949	0.06738408
872.124	0.06739259
872.299	0.0674704
872.474	0.06743196
872.649	0.06734742
872.824	0.06730043
872.999	0.06725683
873.174	0.06722245
873.349	0.06702759
873.524	0.06687442
873.699	0.06679857
873.874	0.06678542
874.049	0.06676546
874.224	0.06672831
874.399	0.06678127
874.574	0.06687954
874.749	0.06691997
874.924	0.06695207
875.099	0.06694037
875.274	0.06690816
875.449	0.06690208
875.623	0.06681002
875.798	0.06669772
875.973	0.06661039
876.148	0.06650559
876.322	0.06645091
876.497	0.06640775
876.672	0.06637478
876.846	0.06641057
877.021	0.06640052
877.196	0.06635851
877.37	0.06634046
877.545	0.06629845
877.72	0.06631038
877.894	0.06626213
878.069	0.06614854
878.243	0.06604763
878.418	0.06601405
878.592	0.06602093
878.767	0.06593669
878.941	0.06587227
879.116	0.06576479
879.29	0.06571423
879.464	0.065698
879.639	0.06569478
879.813	0.065623
879.987	0.06565405
880.162	0.06568124
880.336	0.06567937
880.51	0.06563495
880.685	0.06565524
880.859	0.06548665
881.033	0.06533243
881.207	0.06517565
881.381	0.06500634
881.556	0.0649381
881.73	0.06481787
881.904	0.06482099
882.078	0.0648519
882.252	0.06489247
882.426	0.06494389
882.6	0.06494859
882.774	0.0650073
882.948	0.06516401
883.122	0.06501401
883.296	0.06501351
883.47	0.06501607
883.644	0.06503524
883.818	0.06491966
883.992	0.06484236
884.166	0.06485572
884.34	0.06481396
884.514	0.06463629
884.687	0.06466991
884.861	0.06463344
885.035	0.06473413
885.209	0.06472141
885.382	0.06462387
885.556	0.06456716
885.73	0.06465555
885.904	0.0644724
886.077	0.06431806
886.251	0.06421479
886.425	0.06400825
886.598	0.06389044
886.772	0.06380857
886.945	0.06375357
887.119	0.06373667
887.292	0.06377396
887.466	0.06367458
887.64	0.06380667
887.813	0.06383349
887.986	0.06387899
888.16	0.06381682
888.333	0.0637963
888.507	0.0637908
888.68	0.06366841
888.854	0.06357261
889.027	0.06352014
889.2	0.06357273
889.374	0.06360653
889.547	0.06355463
889.72	0.06355594
889.893	0.06363938
890.067	0.06354054
890.24	0.06337375
890.413	0.06316736
890.586	0.06312837
890.759	0.06312446
890.933	0.06304461
891.106	0.06312004
891.279	0.06324734
891.452	0.06332701
891.625	0.06343907
891.798	0.06332226
891.971	0.06326844
892.144	0.0631717
892.317	0.06296745
892.49	0.06282528
892.663	0.06268408
892.836	0.06259266
893.009	0.06260908
893.182	0.0625394
893.355	0.06252234
893.527	0.06256228
893.7	0.0625984
893.873	0.06253384
894.046	0.06252859
894.219	0.06258121
894.391	0.06260927
894.564	0.06262236
894.737	0.06246982
894.91	0.06238987
895.082	0.0623339
895.255	0.06223204
895.428	0.06202805
895.6	0.06196111
895.773	0.06192632
895.945	0.06196956
896.118	0.06187729
896.291	0.06199182
896.463	0.06198445
896.636	0.06195392
896.808	0.06198809
896.981	0.06200249
897.153	0.06207715
897.326	0.06214373
897.498	0.06204271
897.67	0.0619699
897.843	0.06196563
898.015	0.06188076
898.187	0.06163973
898.36	0.06136118
898.532	0.06112866
898.704	0.06106397
898.877	0.06102891
899.049	0.0609856
899.221	0.06099418
899.393	0.06107275
899.566	0.06120695
899.738	0.06130854
899.91	0.06140748
900.082	0.06146307
900.254	0.06152082
900.426	0.0614766
900.598	0.06139462
900.77	0.06132599
900.942	0.06125982
901.114	0.0610568
901.286	0.06093852
901.458	0.06089621
901.63	0.06086432
901.802	0.06095084
901.974	0.0610353
902.146	0.06108551
902.318	0.06117906
902.49	0.06123738
902.662	0.06120852
902.834	0.0612231
903.005	0.06121393
903.177	0.06107641
903.349	0.06108025
903.521	0.06110386
903.693	0.06094407
903.864	0.06093025
904.036	0.06075157
904.208	0.06055716
904.379	0.06044311
904.551	0.06031019
904.723	0.06025011
904.894	0.06027203
905.066	0.06020058
905.237	0.06020181
905.409	0.06022948
905.58	0.06027886
905.752	0.06022206
905.923	0.06010665
906.095	0.06002817
906.266	0.05998527
906.438	0.06000279
906.609	0.06010748
906.78	0.06001829
906.952	0.05998775
907.123	0.05999108
907.295	0.05997415
907.466	0.05999599
907.637	0.0599439
907.808	0.05976423
907.98	0.0598408
908.151	0.0598316
908.322	0.05982522
908.493	0.05984419
908.665	0.05977305
908.836	0.05969563
909.007	0.05967947
909.178	0.05957485
909.349	0.05956863
909.52	0.05951139
909.691	0.05948104
909.862	0.05948181
910.033	0.0594003
910.204	0.05937364
910.375	0.05939013
910.546	0.05936396
910.717	0.05930346
910.888	0.05922774
911.059	0.05920532
911.23	0.05926204
911.401	0.05915856
911.572	0.05910312
911.742	0.0590693
911.913	0.05906375
912.084	0.05910129
912.255	0.05903614
912.426	0.0590051
912.596	0.0589937
912.767	0.05897926
912.938	0.05893167
913.108	0.05886628
913.279	0.05882341
913.45	0.0587787
913.62	0.05883106
913.791	0.05887695
913.962	0.05889613
914.132	0.05893789
914.303	0.05897345
914.473	0.05903444
914.644	0.058986
914.814	0.05886305
914.985	0.05878273
915.155	0.05867641
915.326	0.0585144
915.496	0.05832001
915.666	0.05810322
915.837	0.05802346
916.007	0.05800152
916.177	0.05800225
916.348	0.05796126
916.518	0.05798944
916.688	0.05801336
916.858	0.05796423
917.029	0.05807162
917.199	0.05806962
917.369	0.05805583
917.539	0.05815583
917.709	0.05814265
917.88	0.05819066
918.05	0.05818626
918.22	0.05807335
918.39	0.05788153
918.56	0.05775605
918.73	0.05745982
918.9	0.05725411
919.07	0.05706441
919.24	0.05703859
919.41	0.0568922
919.58	0.05694068
919.75	0.05692516
919.92	0.05687252
920.09	0.05704993
920.26	0.05709724
920.429	0.05703666
920.599	0.05698177
920.769	0.05701711
920.939	0.05700538
921.109	0.05702081
921.278	0.05683236
921.448	0.05680475
921.618	0.05681495
921.787	0.05684637
921.957	0.05674441
922.127	0.05670334
922.296	0.05677021
922.466	0.05684813
922.636	0.05693804
922.805	0.05683551
922.975	0.05675651
923.144	0.05673097
923.314	0.05666329
923.483	0.05654472
923.653	0.05642637
923.822	0.05617768
923.992	0.05619466
924.161	0.05624645
924.331	0.05625048
924.5	0.05624669
924.669	0.05616179
924.839	0.05611424
925.008	0.05613625
925.177	0.05606025
925.347	0.05588826
925.516	0.05574256
925.685	0.05576212
925.854	0.05589787
926.023	0.05591541
926.193	0.05600239
926.362	0.05591622
926.531	0.05592195
926.7	0.05593004
926.869	0.05575263
927.038	0.05568635
927.207	0.05556604
927.376	0.05555878
927.545	0.05563957
927.715	0.05566481
927.884	0.05559639
928.052	0.05571861
928.221	0.05568175
928.39	0.05562837
928.559	0.0555837
928.728	0.0555711
928.897	0.05558259
929.066	0.05563489
929.235	0.05550616
929.404	0.05535671
929.572	0.05545323
929.741	0.05540469
929.91	0.05528012
930.079	0.05510775
930.247	0.05486862
930.416	0.05488375
930.585	0.05503763
930.753	0.05490432
930.922	0.05490174
931.091	0.05503159
931.259	0.05528678
931.428	0.05558769
931.596	0.05581388
931.765	0.05582105
931.934	0.05601695
932.102	0.05585193
932.27	0.055828
932.439	0.05579653
932.607	0.05585464
932.776	0.05549551
932.944	0.05544113
933.113	0.05528689
933.281	0.05531062
933.449	0.05515959
933.618	0.05489455
933.786	0.05456551
933.954	0.05462555
934.123	0.05445064
934.291	0.05435988
934.459	0.0542966
934.627	0.05431649
934.795	0.05443546
934.964	0.05435386
935.132	0.05433807
935.3	0.05446909
935.468	0.05449485
935.636	0.05450877
935.804	0.05454954
935.972	0.05434091
936.14	0.05440341
936.308	0.05422109
936.476	0.05400855
936.644	0.05399556
936.812	0.05375909
936.98	0.05360829
937.148	0.05349464
937.316	0.05357049
937.484	0.05378628
937.652	0.05356128
937.82	0.05345848
937.987	0.05329488
938.155	0.05311802
938.323	0.05333088
938.491	0.05302822
938.658	0.05328335
938.826	0.05337623
938.994	0.05339218
939.162	0.0537991
939.329	0.05419551
939.497	0.0540313
939.665	0.0542744
939.832	0.05393775
940	0.0540818
940.167	0.05431641
940.335	0.05400985
940.502	0.05344876
940.67	0.0536365
940.837	0.05388868
941.005	0.05346206
941.172	0.05353984
941.34	0.05392061
941.507	0.05453906
941.674	0.05473599
941.842	0.05452917
942.009	0.05456318
942.177	0.05443964
942.344	0.05469059
942.511	0.05415164
942.678	0.05386139
942.846	0.05412691
943.013	0.05406658
943.18	0.05331597
943.347	0.05359208
943.514	0.05350044
943.682	0.05270447
943.849	0.05272684
944.016	0.05222761
944.183	0.05207311
944.35	0.05188921
944.517	0.05219711
944.684	0.05217404
944.851	0.05239585
945.018	0.0517408
945.185	0.05180307
945.352	0.05147354
945.519	0.05219969
945.686	0.05139941
945.853	0.05151879
946.02	0.05128065
946.187	0.05134331
946.353	0.05135161
946.52	0.05226592
946.687	0.05097775
946.854	0.05201414
947.021	0.0517253
947.187	0.05193656
947.354	0.05195052
947.521	0.05196682
947.687	0.05172868
947.854	0.05234862
948.021	0.05134067
948.187	0.05188717
948.354	0.05182751
948.52	0.05213796
948.687	0.05245364
948.854	0.0521561
949.02	0.05187062
949.187	0.05229677
949.353	0.05128435
949.52	0.05127776
949.686	0.05139056
949.852	0.05095578
950.019	0.05121082
950.185	0.05181063
950.352	0.05183089
950.518	0.05206402
950.684	0.05205504
950.851	0.05201241
951.017	0.05185356
951.183	0.05194995
951.349	0.05108301
951.516	0.05084561
951.682	0.05099744
951.848	0.05043124
952.014	0.04979522
952.18	0.04984651
952.346	0.04930058
952.512	0.05015858
952.679	0.05037472
952.845	0.04988481
953.011	0.05024175
953.177	0.05060059
953.343	0.05074174
953.509	0.05137997
953.675	0.05045085
953.841	0.05019803
954.007	0.05087036
954.172	0.05104977
954.338	0.05048802
954.504	0.05053407
954.67	0.04987295
954.836	0.05097632
955.002	0.05110862
955.167	0.05099923
955.333	0.05100789
955.499	0.05143982
955.665	0.05085047
955.83	0.05102382
955.996	0.05054293
956.162	0.049873
956.327	0.05007485
956.493	0.04986346
956.659	0.05033335
956.824	0.05077784
956.99	0.05076935
957.155	0.05025594
957.321	0.0508161
957.486	0.05042389
957.652	0.05029519
957.817	0.05028775
957.983	0.05030049
958.148	0.04993794
958.314	0.05018164
958.479	0.0496039
958.644	0.04942941
958.81	0.04917909
958.975	0.04865298
959.14	0.04861786
959.306	0.04864784
959.471	0.04835283
959.636	0.04847804
959.801	0.04847756
959.967	0.04864088
960.132	0.04884671
960.297	0.04850961
960.462	0.04871929
960.627	0.04844194
960.792	0.04860272
960.957	0.04841547
961.123	0.04852443
961.288	0.04816616
961.453	0.04823036
961.618	0.04828442
961.783	0.04892642
961.948	0.0490383
962.113	0.04915934
962.277	0.04896584
962.442	0.04889513
962.607	0.04886437
962.772	0.0486631
962.937	0.04852682
963.102	0.0481705
963.267	0.04801174
963.431	0.04814456
963.596	0.04834586
963.761	0.04825112
963.926	0.04831507
964.09	0.04830973
964.255	0.04867293
964.42	0.04889363
964.584	0.04880012
964.749	0.04879677
964.914	0.04917934
965.078	0.04920333
965.243	0.04917583
965.407	0.04894995
965.572	0.04871395
965.736	0.04875346
965.901	0.04873914
966.065	0.04857532
966.23	0.04867425
966.394	0.04856598
966.559	0.04864588
966.723	0.04860421
966.887	0.04857079
967.052	0.04818858
967.216	0.04790534
967.38	0.04728214
967.545	0.04733859
967.709	0.04698858
967.873	0.04721225
968.037	0.04719297
968.202	0.04751553
968.366	0.0474329
968.53	0.04759348
968.694	0.04784903
968.858	0.04821663
969.022	0.04795213
969.187	0.04797621
969.351	0.04803048
969.515	0.04844969
969.679	0.04850495
969.843	0.04791931
970.007	0.04769915
970.171	0.04776952
970.335	0.04789943
970.499	0.04745312
970.662	0.04696784
970.826	0.04730164
970.99	0.04734448
971.154	0.04730686
971.318	0.04740967
971.482	0.04702787
971.645	0.04684646
971.809	0.04710186
971.973	0.04704249
972.137	0.04709124
972.3	0.04714704
972.464	0.04707554
972.628	0.04736087
972.791	0.04757702
972.955	0.04797212
973.119	0.04755812
973.282	0.04748369
973.446	0.04774477
973.609	0.04756961
973.773	0.04716078
973.936	0.0473348
974.1	0.04657952
974.263	0.04685191
974.427	0.04691299
974.59	0.04629608
974.754	0.04653441
974.917	0.04629082
975.08	0.04643404
975.244	0.04655387
975.407	0.04629803
975.57	0.04641246
975.734	0.04649812
975.897	0.04645507
976.06	0.04693934
976.223	0.04684815
976.387	0.04690047
976.55	0.04688654
976.713	0.0466848
976.876	0.04682199
977.039	0.04643818
977.202	0.04593158
977.365	0.04589476
977.528	0.04553586
977.692	0.04514922
977.855	0.04493111
978.018	0.04465499
978.181	0.0448335
978.344	0.04527282
978.506	0.04493451
978.669	0.04513862
978.832	0.04520071
978.995	0.0454418
979.158	0.04564832
979.321	0.04549212
979.484	0.04508382
979.646	0.04514393
979.809	0.04552447
979.972	0.04571664
980.135	0.04552277
980.297	0.04569642
980.46	0.04532753
980.623	0.04586032
980.786	0.04575937
980.948	0.04516951
981.111	0.04531172
981.273	0.04555052
981.436	0.04545513
981.599	0.04554932
981.761	0.04541053
981.924	0.04563966
982.086	0.04590697
982.249	0.04566023
982.411	0.04556896
982.573	0.04568342
982.736	0.04632011
982.898	0.04569518
983.061	0.04558343
983.223	0.04490127
983.385	0.04510179
983.548	0.04492579
983.71	0.04485852
983.872	0.04446697
984.034	0.0451805
984.197	0.04469292
984.359	0.04497567
984.521	0.04526584
984.683	0.04487504
984.845	0.04461727
985.008	0.04449716
985.17	0.04394352
985.332	0.04453128
985.494	0.04438465
985.656	0.04407423
985.818	0.04459444
985.98	0.0444156
986.142	0.0444243
986.304	0.04478822
986.466	0.04449606
986.628	0.04507027
986.79	0.04503634
986.952	0.0448787
987.113	0.04466198
987.275	0.04481637
987.437	0.04439553
987.599	0.04449988
987.761	0.04425091
987.922	0.04402992
988.084	0.04379412
988.246	0.04412923
988.408	0.0441679
988.569	0.04433515
988.731	0.04400912
988.893	0.04446447
989.054	0.04490369
989.216	0.04537254
989.377	0.04527908
989.539	0.04522719
989.701	0.04531242
989.862	0.04556005
990.024	0.04512808
990.185	0.04485754
990.347	0.04502478
990.508	0.04492999
990.669	0.04519323
990.831	0.04514685
990.992	0.04533467
991.154	0.04510681
991.315	0.04466169
991.476	0.04348576
991.638	0.04395651
991.799	0.04346067
991.96	0.04365987
992.121	0.04373648
992.283	0.04378361
992.444	0.04412512
992.605	0.04477973
992.766	0.04427543
992.927	0.04427543
993.088	0.04402393
993.249	0.04393072
993.41	0.04408587
993.572	0.04391616
993.733	0.0438098
993.894	0.04427403
994.055	0.04367897
994.216	0.04300208
994.376	0.04233875
994.537	0.04227872
994.698	0.04281459
994.859	0.04303616
995.02	0.04257943
995.181	0.04260551
995.342	0.04310299
995.503	0.0437049
995.663	0.04395457
995.824	0.04375859
995.985	0.04411829
996.146	0.04401235
996.306	0.04521629
996.467	0.04533274
996.628	0.04578634
996.788	0.0455677
996.949	0.04565383
997.11	0.04482932
997.27	0.04419545
997.431	0.04228373
997.591	0.04171217
997.752	0.04118348
997.912	0.04116068
998.073	0.04116664
998.233	0.04139259
998.394	0.04183218
998.554	0.04244444
998.714	0.04280535
998.875	0.04209485
999.035	0.04189357
999.196	0.04095635
999.356	0.0408057
999.516	0.04080779
999.676	0.04145681
999.837	0.04198991
999.997	0.04225745
1000.157	0.04220814
1000.317	0.04193199
1000.477	0.04200387
1000.638	0.04224824
1000.798	0.04234727
1000.958	0.04166541
1001.118	0.04197181
1001.278	0.04172847
1001.438	0.04249739
1001.598	0.04260736
1001.758	0.04256557
1001.918	0.04192163
1002.078	0.04133259
1002.238	0.04111964
1002.398	0.040509
1002.558	0.03981154
1002.718	0.03959508
1002.878	0.03922715
1003.037	0.0392597
1003.197	0.0400327
1003.357	0.04035551
1003.517	0.04108587
1003.677	0.04144415
1003.836	0.04122465
1003.996	0.0413622
1004.156	0.04107195
1004.315	0.04145029
1004.475	0.0408478
1004.635	0.041101
1004.794	0.04176339
1004.954	0.04261849
1005.114	0.04287178
1005.273	0.04401124
1005.433	0.04516973
1005.592	0.04515128
1005.752	0.04534755
1005.911	0.04462801
1006.071	0.04329256
1006.23	0.04379014
1006.389	0.0435117
1006.549	0.04202769
1006.708	0.04223675
1006.868	0.0411775
1007.027	0.04222442
1007.186	0.0430649
1007.345	0.04281312
1007.505	0.04305795
1007.664	0.04216008
1007.823	0.04214593
1007.982	0.04297575
1008.142	0.04122874
1008.301	0.04181958
1008.46	0.04124418
1008.619	0.04048126
1008.778	0.04058839
1008.937	0.04037269
1009.096	0.04029146
1009.255	0.04111191
1009.414	0.04001809
1009.573	0.04025006
1009.732	0.04124359
1009.891	0.04109534
1010.05	0.04225926
1010.209	0.04054089
1010.368	0.04043234
1010.527	0.04251694
1010.686	0.04274053
1010.845	0.04191021
1011.003	0.04132884
1011.162	0.04032949
1011.321	0.04211098
1011.48	0.04299566
1011.638	0.04121741
1011.797	0.04055971
1011.956	0.04088045
1012.115	0.04095373
1012.273	0.04148033
1012.432	0.04098184
1012.59	0.04090452
1012.749	0.04050294
1012.908	0.04149198
1013.066	0.04213383
1013.225	0.04154818
1013.383	0.03968345
1013.542	0.03947273
1013.7	0.03904707
1013.859	0.04130579
1014.017	0.0409589
1014.175	0.03959227
1014.334	0.0415836
1014.492	0.04350015
1014.65	0.04421114
1014.809	0.04476926
1014.967	0.04213101
1015.125	0.04186323
1015.284	0.04401799
1015.442	0.0456504
1015.6	0.04464348
1015.758	0.04520923
1015.916	0.04287004
1016.075	0.04485018
1016.233	0.04458548
1016.391	0.04380765
1016.549	0.04241584
1016.707	0.042666
1016.865	0.04205002
1017.023	0.04399707
1017.181	0.04340436
1017.339	0.04278238
1017.497	0.04026053
1017.655	0.04046443
1017.813	0.04168111
1017.971	0.04214168
1018.129	0.04093241
1018.286	0.03968288
1018.444	0.0406901
1018.602	0.04169741
1018.76	0.04221589
1018.918	0.04284943
1019.075	0.04162134
1019.233	0.04118459
1019.391	0.04074325
1019.549	0.03822593
1019.706	0.03763208
1019.864	0.03861973
1020.022	0.03702313
1020.179	0.03719622
1020.337	0.03750578
1020.494	0.0386796
1020.652	0.04071884
1020.809	0.04008211
1020.967	0.03834423
1021.124	0.03903783
1021.282	0.03952846
1021.439	0.04118265
1021.597	0.04105931
1021.754	0.04072882
1021.911	0.04474375
1022.069	0.04418039
1022.226	0.04376344
1022.384	0.0428752
1022.541	0.04254629
1022.698	0.04085556
1022.855	0.03936772
1023.013	0.03828559
1023.17	0.03840095
1023.327	0.03735012
1023.484	0.0372289
1023.641	0.03674432
1023.798	0.0409122
1023.956	0.04233547
1024.113	0.04132749
1024.27	0.04005867
1024.427	0.03932243
1024.584	0.04274014
1024.741	0.04204597
1024.898	0.04065308
1025.055	0.04017093
1025.212	0.04005828
1025.369	0.04010819
1025.525	0.04095846
1025.682	0.03921552
1025.839	0.03766223
1025.996	0.03428053
1026.153	0.03559198
1026.31	0.03584021
1026.466	0.0373176
1026.623	0.03328109
1026.78	0.03293121
1026.937	0.03592368
1027.093	0.04161207
1027.25	0.04528384
1027.407	0.04612633
1027.563	0.04490781
1027.72	0.04792497
1027.876	0.04802479
1028.033	0.04748166
1028.19	0.04356159
1028.346	0.03998744
1028.503	0.04056851
1028.659	0.04185021
1028.816	0.04382028
1028.972	0.04123826
1029.128	0.04374974
1029.285	0.04312066
1029.441	0.04547955
1029.598	0.04035044
1029.754	0.03725405
1029.91	0.03266408
1030.067	0.03668119
1030.223	0.03436908
1030.379	0.0347579
1030.535	0.02993381
1030.691	0.03384735
1030.848	0.03394719
1031.004	0.04071871
1031.16	0.03481601
1031.316	0.03740265
1031.472	0.03881907
1031.628	0.04320189
1031.784	0.04361118
1031.94	0.04309144
1032.096	0.04341816
1032.252	0.04734765
1032.408	0.04273901
1032.564	0.03969577
1032.72	0.03394872
1032.876	0.03016319
1033.032	0.03325696
1033.188	0.03137729
1033.344	0.02685473
1033.5	0.02376809
1033.655	0.02442195
1033.811	0.02527258
1033.967	0.02457326
