Data from 1_mm_pl_100pc_Absorbance__0__17-25-43-203.txt Node

Date: Wed Mar 08 17:25:43 CET 2023
User: Ange
Spectrometer: FLMT08341
Trigger mode: 0
Integration Time (sec): 1.000000E-2
Scans to average: 400
Electric dark correction enabled: true
Nonlinearity correction enabled: false
Boxcar width: 3
XAxis mode: Wavelengths
Number of Pixels in Spectrum: 3648
>>>>>Begin Spectral Data<<<<<
345.271	0.0556135
345.487	0.0527151
345.704	0.04557178
345.921	0.0493692
346.137	0.06150112
346.354	0.04673355
346.571	0.04202245
346.787	0.00870446
347.004	0.02807637
347.22	-0.00735475
347.437	0.16336916
347.653	0.3477403
347.87	-0.42876272
348.086	-0.2695851
348.303	-0.12503162
348.519	0.16597194
348.736	0.15248326
348.952	0.1578842
349.169	0.15842981
349.385	0.16482774
349.601	0.15907378
349.818	0.15593408
350.034	0.15324366
350.251	0.15087868
350.467	0.15045166
350.683	0.14576948
350.9	0.14337885
351.116	0.14216521
351.332	0.14124299
351.549	0.1434348
351.765	0.14643229
351.981	0.14871386
352.197	0.15218316
352.414	0.15629738
352.63	0.15661452
352.846	0.15948954
353.062	0.15664768
353.278	0.15494754
353.495	0.15637235
353.711	0.15716759
353.927	0.15567943
354.143	0.1573689
354.359	0.15475911
354.575	0.15565571
354.792	0.15946801
355.008	0.15605602
355.224	0.15482199
355.44	0.15337027
355.656	0.15280084
355.872	0.15595477
356.088	0.16096784
356.304	0.16070686
356.52	0.16100806
356.736	0.16179262
356.952	0.164072
357.168	0.16406518
357.384	0.16353577
357.6	0.1590331
357.816	0.15865421
358.032	0.16071643
358.248	0.16160885
358.464	0.16199113
358.679	0.16289549
358.895	0.16324807
359.111	0.16680081
359.327	0.16610989
359.543	0.16586306
359.759	0.16712572
359.974	0.16588494
360.19	0.1645604
360.406	0.16468037
360.622	0.1621015
360.838	0.1606687
361.053	0.16149049
361.269	0.16184226
361.485	0.16213851
361.701	0.16386777
361.916	0.16339053
362.132	0.16316768
362.348	0.1655285
362.563	0.16608444
362.779	0.16380004
362.995	0.16450773
363.21	0.1655725
363.426	0.16500803
363.641	0.1663353
363.857	0.1667985
364.073	0.16561891
364.288	0.16659176
364.504	0.16856693
364.719	0.16773374
364.935	0.16815814
365.15	0.16912343
365.366	0.16843272
365.581	0.1695726
365.797	0.17006785
366.012	0.16812438
366.228	0.16698032
366.443	0.16886247
366.658	0.16779156
366.874	0.16650739
367.089	0.16720001
367.305	0.1675603
367.52	0.16807559
367.735	0.16921584
367.951	0.16649559
368.166	0.16699996
368.381	0.16976575
368.597	0.16848995
368.812	0.16899205
369.027	0.16949621
369.243	0.16872728
369.458	0.17135498
369.673	0.17216987
369.888	0.17115455
370.104	0.17028075
370.319	0.170771
370.534	0.16986613
370.749	0.17041467
370.964	0.17005559
371.179	0.1688736
371.395	0.16809545
371.61	0.16954224
371.825	0.16772564
372.04	0.16809341
372.255	0.16761876
372.47	0.16583187
372.685	0.16451977
372.9	0.16440447
373.115	0.16355041
373.33	0.16345048
373.545	0.16292291
373.76	0.16299653
373.975	0.16295389
374.19	0.16298247
374.405	0.16267804
374.62	0.16286809
374.835	0.16345377
375.05	0.16304811
375.265	0.16291569
375.48	0.16326778
375.695	0.16473799
375.91	0.16425468
376.125	0.16288485
376.339	0.16133691
376.554	0.16132621
376.769	0.16146119
376.984	0.16096707
377.199	0.16071417
377.414	0.16062593
377.628	0.16113641
377.843	0.1610553
378.058	0.161503
378.273	0.16064852
378.487	0.16032889
378.702	0.15890518
378.917	0.15877737
379.131	0.15800575
379.346	0.15696497
379.561	0.15546268
379.775	0.15529003
379.99	0.1544255
380.205	0.15351055
380.419	0.15187819
380.634	0.15068987
380.848	0.15105334
381.063	0.1509418
381.278	0.1506307
381.492	0.14992989
381.707	0.15046234
381.921	0.15018302
382.136	0.15086721
382.35	0.14999295
382.565	0.14896322
382.779	0.1481689
382.994	0.14774441
383.208	0.14688972
383.422	0.14682559
383.637	0.14582596
383.851	0.14565922
384.066	0.14523448
384.28	0.14490527
384.494	0.1446308
384.709	0.14418384
384.923	0.14355245
385.137	0.14252892
385.352	0.14206241
385.566	0.14153035
385.78	0.14102272
385.995	0.14048917
386.209	0.13952082
386.423	0.13978946
386.637	0.13939895
386.852	0.1382005
387.066	0.13757196
387.28	0.13605349
387.494	0.1352764
387.708	0.13475003
387.923	0.13350107
388.137	0.13298846
388.351	0.13250509
388.565	0.13238647
388.779	0.13195552
388.993	0.13172892
389.207	0.13107052
389.421	0.13018262
389.635	0.12944522
389.85	0.12873465
390.064	0.12825292
390.278	0.12800374
390.492	0.12736541
390.706	0.12691414
390.92	0.12588158
391.134	0.12548626
391.348	0.12546338
391.561	0.12422312
391.775	0.12330668
391.989	0.122063
392.203	0.12099752
392.417	0.12120789
392.631	0.12073678
392.845	0.1198457
393.059	0.11972923
393.273	0.11904576
393.486	0.11846755
393.7	0.1181759
393.914	0.11725553
394.128	0.11650507
394.342	0.11544532
394.555	0.11400409
394.769	0.11328154
394.983	0.11257009
395.197	0.11155362
395.41	0.11084896
395.624	0.10980558
395.838	0.10901055
396.051	0.10893872
396.265	0.10815312
396.479	0.10768506
396.692	0.10691449
396.906	0.10620811
397.12	0.10587326
397.333	0.10553597
397.547	0.10461347
397.76	0.10415906
397.974	0.10355384
398.187	0.10335875
398.401	0.10276649
398.614	0.10194725
398.828	0.10129231
399.041	0.10039613
399.255	0.09969265
399.468	0.09904608
399.682	0.09818195
399.895	0.0978555
400.109	0.09719085
400.322	0.09662996
400.536	0.09614822
400.749	0.09569407
400.962	0.09487167
401.176	0.09435582
401.389	0.09350703
401.602	0.09270023
401.816	0.09188617
402.029	0.0912846
402.242	0.09036006
402.456	0.08967539
402.669	0.08863523
402.882	0.08757565
403.095	0.08712175
403.309	0.08642339
403.522	0.08568913
403.735	0.08515055
403.948	0.08456699
404.161	0.08471576
404.375	0.08436107
404.588	0.08370721
404.801	0.08310366
405.014	0.08246836
405.227	0.08200015
405.44	0.08178087
405.653	0.08087389
405.866	0.08029447
406.079	0.07977895
406.293	0.07927899
406.506	0.07858438
406.719	0.07787879
406.932	0.07682095
407.145	0.07582673
407.358	0.07543182
407.571	0.07465442
407.784	0.07437129
407.996	0.074072
408.209	0.07335045
408.422	0.07306013
408.635	0.07299764
408.848	0.07223297
409.061	0.07157432
409.274	0.07094066
409.487	0.07037158
409.7	0.06992883
409.912	0.06974364
410.125	0.06909199
410.338	0.06874791
410.551	0.06855718
410.764	0.06776814
410.976	0.0673631
411.189	0.06716859
411.402	0.06616417
411.615	0.06577982
411.827	0.06548155
412.04	0.06495368
412.253	0.06477307
412.465	0.06427301
412.678	0.06390278
412.891	0.0639846
413.103	0.06347331
413.316	0.06326438
413.529	0.06303793
413.741	0.06266118
413.954	0.06230293
414.166	0.06181419
414.379	0.06150451
414.591	0.06150912
414.804	0.06074622
415.016	0.06035584
415.229	0.06012079
415.441	0.05986095
415.654	0.05960775
415.866	0.05880613
416.079	0.05835055
416.291	0.05812495
416.504	0.05795488
416.716	0.0575726
416.928	0.05716722
417.141	0.05686883
417.353	0.05697481
417.566	0.05661096
417.778	0.05638626
417.99	0.05601385
418.203	0.05588143
418.415	0.05572385
418.627	0.05547172
418.839	0.05523503
419.052	0.05500714
419.264	0.054568
419.476	0.05440215
419.688	0.05399295
419.901	0.0535335
420.113	0.0530971
420.325	0.05264672
420.537	0.05224144
420.749	0.0520856
420.961	0.05198064
421.174	0.05169579
421.386	0.0516338
421.598	0.05167626
421.81	0.05169197
422.022	0.05156502
422.234	0.05154859
422.446	0.05119741
422.658	0.05104922
422.87	0.05098546
423.082	0.05073783
423.294	0.05050193
423.506	0.05038637
423.718	0.04988581
423.93	0.04941323
424.142	0.049301
424.354	0.04892436
424.566	0.04884233
424.778	0.04869523
424.99	0.04855259
425.202	0.04876275
425.414	0.04903
425.625	0.0489269
425.837	0.04890914
426.049	0.04873979
426.261	0.04860812
426.473	0.04847545
426.684	0.04847363
426.896	0.04851737
427.108	0.04858906
427.32	0.04863718
427.531	0.04873529
427.743	0.04875683
427.955	0.04904909
428.167	0.04881293
428.378	0.04857728
428.59	0.04852568
428.802	0.04856375
429.013	0.04851373
429.225	0.04851471
429.436	0.04839913
429.648	0.04855821
429.86	0.04873345
430.071	0.04891347
430.283	0.04903722
430.494	0.04898342
430.706	0.0489926
430.917	0.04892826
431.129	0.0489452
431.34	0.04884027
431.552	0.04841747
431.763	0.0480818
431.975	0.0479906
432.186	0.04787975
432.398	0.0479471
432.609	0.04765697
432.821	0.04761711
433.032	0.04775182
433.243	0.04797134
433.455	0.04794018
433.666	0.04803899
433.877	0.04791334
434.089	0.04807846
434.3	0.04804641
434.511	0.04805591
434.723	0.04787461
434.934	0.04792169
435.145	0.04788359
435.356	0.04801348
435.568	0.04796409
435.779	0.04809119
435.99	0.04800072
436.201	0.04834576
436.412	0.04826493
436.624	0.04841002
436.835	0.04843693
437.046	0.04857015
437.257	0.0486368
437.468	0.04884348
437.679	0.04874419
437.89	0.04886013
438.101	0.04895913
438.312	0.04913316
438.523	0.04914072
438.734	0.04921738
438.945	0.04936156
439.156	0.04944946
439.367	0.04972931
439.578	0.04975364
439.789	0.04985545
440	0.0502283
440.211	0.05030883
440.422	0.05046936
440.633	0.05067158
440.844	0.05075592
441.055	0.05088237
441.266	0.05096516
441.477	0.05105424
441.687	0.05121144
441.898	0.05124806
442.109	0.05125726
442.32	0.05134823
442.531	0.05137538
442.741	0.05133824
442.952	0.05125652
443.163	0.0513979
443.374	0.05149425
443.584	0.0516234
443.795	0.05177904
444.006	0.05215811
444.216	0.05236239
444.427	0.05254486
444.638	0.05269637
444.848	0.05284625
445.059	0.05302581
445.27	0.05321545
445.48	0.05318116
445.691	0.05343851
445.901	0.05371946
446.112	0.05387539
446.323	0.05408528
446.533	0.0543044
446.744	0.05446492
446.954	0.05466491
447.165	0.05481049
447.375	0.05495569
447.586	0.05508624
447.796	0.05527862
448.006	0.05535609
448.217	0.0554799
448.427	0.05568765
448.638	0.05576346
448.848	0.05599062
449.058	0.05613679
449.269	0.0563427
449.479	0.05656528
449.689	0.05685537
449.9	0.05698299
450.11	0.05717062
450.32	0.05738424
450.531	0.05774528
450.741	0.057845
450.951	0.05803839
451.161	0.05825159
451.372	0.05841191
451.582	0.0587776
451.792	0.05884301
452.002	0.05885615
452.212	0.05892958
452.422	0.05917881
452.633	0.05940352
452.843	0.05974075
453.053	0.0597281
453.263	0.05992548
453.473	0.0601194
453.683	0.06038935
453.893	0.06057877
454.103	0.06070573
454.313	0.06094542
454.523	0.06139135
454.733	0.06165193
454.943	0.06204643
455.153	0.06231751
455.363	0.06250092
455.573	0.06271173
455.783	0.06284569
455.993	0.06289384
456.203	0.06323476
456.413	0.06337602
456.623	0.063691
456.833	0.06401128
457.042	0.06432991
457.252	0.0646658
457.462	0.06505518
457.672	0.06517416
457.882	0.06539685
458.091	0.06555665
458.301	0.06565222
458.511	0.06576522
458.721	0.06593609
458.931	0.06619207
459.14	0.0665021
459.35	0.06667594
459.56	0.06700978
459.769	0.06734906
459.979	0.06787704
460.189	0.06817014
460.398	0.06828815
460.608	0.06859867
460.817	0.0689756
461.027	0.06937703
461.237	0.06967839
461.446	0.06976854
461.656	0.07000602
461.865	0.0703418
462.075	0.07052169
462.284	0.07073464
462.494	0.07084383
462.703	0.07105711
462.913	0.07132315
463.122	0.07160328
463.332	0.07188571
463.541	0.07214703
463.751	0.07239887
463.96	0.07271835
464.169	0.07311459
464.379	0.07347425
464.588	0.07383832
464.797	0.07416844
465.007	0.0744461
465.216	0.074924
465.425	0.07530862
465.635	0.07564594
465.844	0.07599825
466.053	0.07633293
466.263	0.07663173
466.472	0.07699052
466.681	0.07724394
466.89	0.07750061
467.099	0.07781201
467.309	0.07804144
467.518	0.07839069
467.727	0.0788433
467.936	0.07916635
468.145	0.079473
468.354	0.07991179
468.563	0.08025619
468.772	0.08052829
468.982	0.08084368
469.191	0.08127708
469.4	0.08163248
469.609	0.08196069
469.818	0.08217661
470.027	0.08250672
470.236	0.08293049
470.445	0.08326512
470.654	0.08336106
470.863	0.08373197
471.072	0.08419291
471.28	0.08457812
471.489	0.08502384
471.698	0.08552603
471.907	0.08593796
472.116	0.08645902
472.325	0.08691251
472.534	0.0873666
472.743	0.08782446
472.951	0.08826605
473.16	0.08871933
473.369	0.08914816
473.578	0.08963461
473.786	0.09005669
473.995	0.09042644
474.204	0.09089917
474.413	0.09120621
474.621	0.09158506
474.83	0.09211932
475.039	0.09260492
475.247	0.09311876
475.456	0.09362969
475.665	0.09410397
475.873	0.09466237
476.082	0.09506954
476.291	0.09547491
476.499	0.0959622
476.708	0.09642285
476.916	0.09696358
477.125	0.09746552
477.333	0.09795626
477.542	0.09859569
477.75	0.09903948
477.959	0.09949394
478.167	0.10001516
478.376	0.10044675
478.584	0.10093993
478.793	0.10150012
479.001	0.10198822
479.209	0.10252101
479.418	0.10299452
479.626	0.10349576
479.834	0.10403769
480.043	0.10462645
480.251	0.10520007
480.459	0.10577545
480.668	0.10644045
480.876	0.10702575
481.084	0.10760251
481.293	0.10821152
481.501	0.10879691
481.709	0.1094133
481.917	0.10999307
482.125	0.1105633
482.334	0.11120555
482.542	0.11187251
482.75	0.11250906
482.958	0.11313506
483.166	0.11380442
483.374	0.1145242
483.583	0.11509976
483.791	0.11575887
483.999	0.11636139
484.207	0.11699257
484.415	0.11764109
484.623	0.11813718
484.831	0.11864963
485.039	0.11931404
485.247	0.11997024
485.455	0.12063955
485.663	0.12130182
485.871	0.1219369
486.079	0.12261874
486.287	0.12329248
486.495	0.12394432
486.702	0.12454559
486.91	0.12513676
487.118	0.12578808
487.326	0.12642127
487.534	0.12717085
487.742	0.12792006
487.95	0.12861739
488.157	0.1293362
488.365	0.13017398
488.573	0.13096873
488.781	0.1318485
488.988	0.13262829
489.196	0.1334203
489.404	0.13419421
489.612	0.13504995
489.819	0.13575884
490.027	0.13651836
490.235	0.13716846
490.442	0.13791506
490.65	0.13857617
490.857	0.13944306
491.065	0.14025778
491.273	0.14110252
491.48	0.14191547
491.688	0.14273552
491.895	0.14359747
492.103	0.14447128
492.31	0.14519763
492.518	0.14583585
492.725	0.14651927
492.933	0.14717647
493.14	0.14795012
493.348	0.14871636
493.555	0.14954844
493.763	0.1503112
493.97	0.15130884
494.177	0.1522907
494.385	0.15328206
494.592	0.15420598
494.8	0.15504979
495.007	0.15595524
495.214	0.15684624
495.422	0.15773831
495.629	0.15861054
495.836	0.15949246
496.043	0.16043114
496.251	0.16142858
496.458	0.16227714
496.665	0.16321262
496.872	0.16409865
497.08	0.16498932
497.287	0.16585487
497.494	0.16673244
497.701	0.16761673
497.908	0.16863002
498.115	0.16952444
498.322	0.17036812
498.53	0.17128738
498.737	0.17226601
498.944	0.17315921
499.151	0.17398819
499.358	0.17485195
499.565	0.17579682
499.772	0.17683408
499.979	0.17784035
500.186	0.17884111
500.393	0.17983775
500.6	0.1808336
500.807	0.18178675
501.014	0.18274979
501.221	0.18373021
501.427	0.18470719
501.634	0.18564079
501.841	0.18664415
502.048	0.18765617
502.255	0.18861468
502.462	0.18964673
502.669	0.19061727
502.875	0.19157297
503.082	0.19248704
503.289	0.19335749
503.496	0.1943571
503.702	0.19535933
503.909	0.19633605
504.116	0.19735895
504.323	0.19837255
504.529	0.19940482
504.736	0.20046451
504.943	0.20148169
505.149	0.2026
505.356	0.20366534
505.563	0.20469145
505.769	0.20580602
505.976	0.20691338
506.182	0.20809206
506.389	0.20918878
506.595	0.21022076
506.802	0.21121277
507.008	0.21228701
507.215	0.2132824
507.421	0.21435673
507.628	0.21535896
507.834	0.21642053
508.041	0.21749377
508.247	0.21862372
508.454	0.21974355
508.66	0.22074512
508.866	0.22173731
509.073	0.22285587
509.279	0.22392173
509.486	0.2249143
509.692	0.22596419
509.898	0.22693556
510.105	0.22807451
510.311	0.22917751
510.517	0.23020061
510.723	0.2311838
510.93	0.23219819
511.136	0.2332089
511.342	0.23429322
511.548	0.23528273
511.754	0.23626702
511.961	0.23728527
512.167	0.23841434
512.373	0.23953129
512.579	0.24069124
512.785	0.24182059
512.991	0.2430324
513.197	0.24427903
513.404	0.24552583
513.61	0.24662801
513.816	0.24772993
514.022	0.24873744
514.228	0.24982899
514.434	0.25077075
514.64	0.25174108
514.846	0.25276607
515.052	0.25381364
515.258	0.25483282
515.464	0.25599921
515.669	0.25707775
515.875	0.25824707
516.081	0.25941278
516.287	0.26055989
516.493	0.26173595
516.699	0.26286895
516.905	0.26390748
517.111	0.26493061
517.316	0.26596807
517.522	0.26694542
517.728	0.2679152
517.934	0.2689667
518.139	0.27006156
518.345	0.27112365
518.551	0.27219952
518.757	0.27323262
518.962	0.27432624
519.168	0.27540955
519.374	0.27639163
519.579	0.27745815
519.785	0.27859589
519.991	0.27972593
520.196	0.28087307
520.402	0.28197478
520.607	0.28313164
520.813	0.28435595
521.018	0.28542513
521.224	0.28640018
521.429	0.28743628
521.635	0.28848849
521.84	0.28945605
522.046	0.29045567
522.251	0.29135591
522.457	0.29238903
522.662	0.29342929
522.868	0.29445942
523.073	0.29540596
523.279	0.29656053
523.484	0.29758455
523.689	0.29867568
523.895	0.29969065
524.1	0.30071156
524.305	0.3017216
524.511	0.30273963
524.716	0.30371961
524.921	0.30469843
525.126	0.30568996
525.332	0.30669614
525.537	0.30767314
525.742	0.30866674
525.947	0.3096948
526.153	0.31065968
526.358	0.31161464
526.563	0.31256174
526.768	0.31355217
526.973	0.31463114
527.178	0.31567915
527.383	0.31662116
527.588	0.31751651
527.794	0.31841931
527.999	0.31937368
528.204	0.32029676
528.409	0.32110378
528.614	0.32206493
528.819	0.32299363
529.024	0.32379067
529.229	0.32472139
529.434	0.32564962
529.639	0.32651904
529.843	0.32743033
530.048	0.3282402
530.253	0.32912803
530.458	0.330232
530.663	0.33117584
530.868	0.33206713
531.073	0.33289037
531.278	0.33368218
531.482	0.33453496
531.687	0.33535583
531.892	0.33613177
532.097	0.33687621
532.302	0.33774476
532.506	0.33862594
532.711	0.33951866
532.916	0.34043467
533.12	0.34136323
533.325	0.34224286
533.53	0.34315702
533.734	0.34395329
533.939	0.34475408
534.144	0.34558952
534.348	0.34626268
534.553	0.34701602
534.757	0.34776107
534.962	0.34855736
535.167	0.34941043
535.371	0.35011485
535.576	0.35096644
535.78	0.35179954
535.985	0.35264626
536.189	0.35329171
536.394	0.35399365
536.598	0.35462442
536.803	0.35546165
537.007	0.35610792
537.211	0.35679377
537.416	0.35734952
537.62	0.35812
537.825	0.35875949
538.029	0.35959679
538.233	0.36033504
538.438	0.36112949
538.642	0.36187992
538.846	0.36273007
539.05	0.36344685
539.255	0.36414082
539.459	0.36473456
539.663	0.36532048
539.867	0.36591033
540.072	0.36649146
540.276	0.36706659
540.48	0.36775801
540.684	0.36845385
540.888	0.36920749
541.092	0.36985068
541.297	0.37054307
541.501	0.37121034
541.705	0.37178885
541.909	0.37226652
542.113	0.37272947
542.317	0.3731877
542.521	0.37372866
542.725	0.37423734
542.929	0.37471699
543.133	0.3752886
543.337	0.37597383
543.541	0.37658776
543.745	0.37703283
543.949	0.37756948
544.153	0.37799262
544.357	0.37848669
544.56	0.37894546
544.764	0.37937691
544.968	0.37982641
545.172	0.38032319
545.376	0.38079209
545.58	0.38134074
545.783	0.38195326
545.987	0.38237908
546.191	0.38277123
546.395	0.38336311
546.598	0.38395627
546.802	0.38446736
547.006	0.38489345
547.21	0.38511413
547.413	0.38562232
547.617	0.38613058
547.821	0.38652
548.024	0.38689347
548.228	0.38723372
548.431	0.38761515
548.635	0.3881034
548.839	0.38843661
549.042	0.38875594
549.246	0.38896463
549.449	0.38922587
549.653	0.38957234
549.856	0.38988695
550.06	0.39013828
550.263	0.39051672
550.467	0.39093512
550.67	0.39148959
550.874	0.39193492
551.077	0.39234755
551.28	0.39272444
551.484	0.39309428
551.687	0.39341883
551.891	0.39381462
552.094	0.39400997
552.297	0.39428515
552.501	0.39460163
552.704	0.39491836
552.907	0.39521401
553.11	0.39552111
553.314	0.39570577
553.517	0.39585066
553.72	0.39611683
553.923	0.39635476
554.127	0.39665398
554.33	0.39686731
554.533	0.39706613
554.736	0.39720054
554.939	0.39748761
555.142	0.39759205
555.345	0.39769983
555.549	0.39785776
555.752	0.39798949
555.955	0.39809299
556.158	0.39834802
556.361	0.39841887
556.564	0.3985845
556.767	0.398766
556.97	0.39883475
557.173	0.39902572
557.376	0.39917654
557.579	0.39917342
557.782	0.39941838
557.984	0.39959408
558.187	0.39973709
558.39	0.39985421
558.593	0.40002572
558.796	0.40016208
558.999	0.40027713
559.202	0.40032776
559.404	0.40033167
559.607	0.40037675
559.81	0.40046436
560.013	0.40041791
560.216	0.40051254
560.418	0.40068626
560.621	0.40081598
560.824	0.40094933
561.026	0.40109927
561.229	0.40111319
561.432	0.40128633
561.634	0.40128812
561.837	0.40124329
562.04	0.40116484
562.242	0.40107752
562.445	0.40088119
562.647	0.40086536
562.85	0.40069259
563.053	0.40057088
563.255	0.40046387
563.458	0.40038709
563.66	0.40035004
563.863	0.4004108
564.065	0.40032567
564.268	0.40030544
564.47	0.40024906
564.672	0.40018314
564.875	0.40015313
565.077	0.40008606
565.28	0.39992428
565.482	0.3998475
565.684	0.39973407
565.887	0.39960781
566.089	0.3995421
566.291	0.3994399
566.494	0.3993511
566.696	0.39926885
566.898	0.39917546
567.1	0.39909318
567.303	0.39906992
567.505	0.39885782
567.707	0.39857002
567.909	0.39827223
568.111	0.39808672
568.314	0.39788959
568.516	0.3977186
568.718	0.39747326
568.92	0.39730111
569.122	0.39723542
569.324	0.39714589
569.526	0.39692592
569.728	0.39670115
569.93	0.39644029
570.132	0.39618299
570.334	0.39596265
570.536	0.39563454
570.738	0.39536259
570.94	0.39514885
571.142	0.3949637
571.344	0.39464509
571.546	0.39436539
571.748	0.39415666
571.95	0.39387069
572.152	0.39361119
572.354	0.3934297
572.555	0.39321228
572.757	0.39315462
572.959	0.39297936
573.161	0.39265369
573.363	0.39244415
573.564	0.39217037
573.766	0.39173535
573.968	0.3913412
574.17	0.39075979
574.371	0.39034796
574.573	0.39002317
574.775	0.38959972
574.976	0.38919025
575.178	0.38877259
575.38	0.38826563
575.581	0.38781168
575.783	0.38738904
575.985	0.38695535
576.186	0.38657626
576.388	0.38612489
576.589	0.38572253
576.791	0.38542162
576.992	0.38515175
577.194	0.38477437
577.395	0.38434573
577.597	0.38399163
577.798	0.38361815
578	0.38321041
578.201	0.382844
578.402	0.38236097
578.604	0.38184369
578.805	0.38136076
579.007	0.38092379
579.208	0.38047457
579.409	0.37996804
579.611	0.3793719
579.812	0.37895448
580.013	0.3785355
580.215	0.37805587
580.416	0.37761423
580.617	0.37717646
580.818	0.37684579
581.019	0.37638642
581.221	0.37595389
581.422	0.37554197
581.623	0.37518126
581.824	0.37458941
582.025	0.37406671
582.226	0.37356442
582.428	0.3731541
582.629	0.37253529
582.83	0.37194796
583.031	0.37131281
583.232	0.37085736
583.433	0.37037493
583.634	0.36973221
583.835	0.3691609
584.036	0.36860417
584.237	0.36801555
584.438	0.3674005
584.639	0.36665335
584.84	0.36598921
585.041	0.36535609
585.242	0.36469535
585.442	0.36416254
585.643	0.36362739
585.844	0.3631374
586.045	0.36262626
586.246	0.36198674
586.447	0.36140596
586.647	0.36080105
586.848	0.36002767
587.049	0.35927541
587.25	0.35844711
587.45	0.3577556
587.651	0.35720812
587.852	0.35655859
588.053	0.35600132
588.253	0.35546841
588.454	0.35498681
588.655	0.35450364
588.855	0.35388349
589.056	0.35323943
589.256	0.35269164
589.457	0.35205279
589.658	0.35142243
589.858	0.35068858
590.059	0.3501046
590.259	0.34957057
590.46	0.34890122
590.66	0.34813572
590.861	0.34746482
591.061	0.3467135
591.262	0.34607852
591.462	0.34528985
591.662	0.34449127
591.863	0.34373341
592.063	0.34302602
592.264	0.34228448
592.464	0.34167001
592.664	0.3409833
592.865	0.34046086
593.065	0.33978857
593.265	0.33922488
593.465	0.33861657
593.666	0.33789874
593.866	0.33715879
594.066	0.3365034
594.266	0.33565136
594.467	0.33486555
594.667	0.33400626
594.867	0.33324068
595.067	0.33250908
595.267	0.33171659
595.467	0.33085466
595.668	0.33005981
595.868	0.32938582
596.068	0.32870019
596.268	0.32786312
596.468	0.32718565
596.668	0.32654686
596.868	0.32583454
597.068	0.32524606
597.268	0.32458918
597.468	0.32380761
597.668	0.32309496
597.868	0.32232034
598.068	0.32158125
598.268	0.32081494
598.467	0.31999471
598.667	0.31906803
598.867	0.31825585
599.067	0.31751001
599.267	0.31675002
599.467	0.3158872
599.667	0.31512046
599.866	0.31436582
600.066	0.31370073
600.266	0.31299732
600.466	0.31225313
600.665	0.31154053
600.865	0.31078586
601.065	0.31001359
601.264	0.30915003
601.464	0.30831752
601.664	0.30748375
601.863	0.30657429
602.063	0.30564738
602.263	0.30469487
602.462	0.30393074
602.662	0.30308296
602.861	0.30219808
603.061	0.30138104
603.26	0.30067794
603.46	0.29994295
603.659	0.29932243
603.859	0.29853652
604.058	0.2978119
604.258	0.29719354
604.457	0.29651123
604.657	0.29565683
604.856	0.29470241
605.056	0.2938481
605.255	0.29296855
605.454	0.29218893
605.654	0.29129719
605.853	0.29050638
606.052	0.28976334
606.252	0.28915108
606.451	0.28845812
606.65	0.28777299
606.849	0.28686204
607.049	0.28606663
607.248	0.28513864
607.447	0.28422498
607.646	0.28344815
607.845	0.28259112
608.045	0.28164689
608.244	0.28101484
608.443	0.2801646
608.642	0.2794175
608.841	0.27853877
609.04	0.27754232
609.239	0.27665561
609.438	0.2758184
609.637	0.27496309
609.836	0.27410172
610.035	0.2732798
610.234	0.27253395
610.433	0.27177142
610.632	0.27088779
610.831	0.27015393
611.03	0.26923804
611.229	0.26857437
611.428	0.26781951
611.627	0.26707598
611.826	0.26638153
612.025	0.26586714
612.224	0.26503238
612.422	0.26428841
612.621	0.26334304
612.82	0.26249749
613.019	0.26173466
613.218	0.26094661
613.416	0.25992631
613.615	0.2591821
613.814	0.25840412
614.012	0.25769381
614.211	0.25688245
614.41	0.25606029
614.608	0.2551878
614.807	0.25427394
615.006	0.25347271
615.204	0.25269899
615.403	0.25206942
615.602	0.25138109
615.8	0.25069718
615.999	0.24985421
616.197	0.2492184
616.396	0.24840532
616.594	0.2474873
616.793	0.24649208
616.991	0.24556524
617.19	0.24453768
617.388	0.24379981
617.586	0.24295083
617.785	0.242068
617.983	0.24126478
618.182	0.2404885
618.38	0.23971515
618.578	0.23907581
618.777	0.23841906
618.975	0.23781463
619.173	0.23720948
619.372	0.23655449
619.57	0.23577764
619.768	0.23505529
619.966	0.23424831
620.165	0.23337864
620.363	0.23255575
620.561	0.23164646
620.759	0.23086137
620.957	0.23016766
621.155	0.22942665
621.354	0.22861571
621.552	0.22797085
621.75	0.22718496
621.948	0.22654745
622.146	0.22578321
622.344	0.2249724
622.542	0.22421028
622.74	0.22351591
622.938	0.22261536
623.136	0.22184525
623.334	0.22117337
623.532	0.22041772
623.73	0.21978152
623.928	0.21911385
624.126	0.21838496
624.324	0.21775692
624.522	0.21701693
624.719	0.21612211
624.917	0.21552547
625.115	0.21472335
625.313	0.21411508
625.511	0.21353442
625.708	0.21266768
625.906	0.21188979
626.104	0.21123838
626.302	0.21044952
626.499	0.20967988
626.697	0.20870747
626.895	0.20767357
627.093	0.20691101
627.29	0.20623598
627.488	0.20544211
627.686	0.2046892
627.883	0.20383438
628.081	0.20303274
628.278	0.20255015
628.476	0.20190255
628.673	0.20117546
628.871	0.20048393
629.068	0.19968808
629.266	0.19906838
629.463	0.19840821
629.661	0.19765123
629.858	0.19689218
630.056	0.19609426
630.253	0.195328
630.451	0.19463196
630.648	0.19380321
630.845	0.19308453
631.043	0.19234373
631.24	0.19166031
631.438	0.19103558
631.635	0.19037293
631.832	0.18953144
632.029	0.18887636
632.227	0.1880314
632.424	0.18716589
632.621	0.18635113
632.818	0.18553802
633.016	0.18479358
633.213	0.18417097
633.41	0.18353442
633.607	0.18293635
633.804	0.18229561
634.001	0.18156694
634.199	0.18087162
634.396	0.18012673
634.593	0.17931378
634.79	0.1786568
634.987	0.1779677
635.184	0.17730348
635.381	0.1768108
635.578	0.17623351
635.775	0.17559687
635.972	0.17506486
636.169	0.1743204
636.366	0.17369676
636.563	0.17307857
636.76	0.17232401
636.957	0.17165788
637.153	0.17097816
637.35	0.17039205
637.547	0.16983525
637.744	0.16916144
637.941	0.16857185
638.138	0.16805563
638.334	0.16745994
638.531	0.16696737
638.728	0.16649432
638.925	0.16598829
639.121	0.16549021
639.318	0.16483214
639.515	0.16404589
639.711	0.16336374
639.908	0.1625941
640.105	0.16180232
640.301	0.16103831
640.498	0.16034714
640.695	0.15978944
640.891	0.15926441
641.088	0.15877092
641.284	0.15831919
641.481	0.15781002
641.677	0.15724502
641.874	0.1566182
642.07	0.15607472
642.267	0.15559441
642.463	0.15503718
642.66	0.15450293
642.856	0.15389513
643.053	0.15340295
643.249	0.15295239
643.445	0.15238
643.642	0.15178052
643.838	0.15121479
644.034	0.15062315
644.231	0.14999564
644.427	0.14939562
644.623	0.14884295
644.82	0.14834077
645.016	0.14777478
645.212	0.14715882
645.408	0.14665135
645.604	0.14626409
645.801	0.14579849
645.997	0.14514464
646.193	0.1445727
646.389	0.14417133
646.585	0.14372404
646.781	0.14319542
646.977	0.14273427
647.173	0.14222554
647.37	0.14184188
647.566	0.1413903
647.762	0.14085321
647.958	0.14043635
648.154	0.13988374
648.35	0.13934703
648.546	0.13879383
648.742	0.13834941
648.937	0.13771441
649.133	0.13722969
649.329	0.13669912
649.525	0.13622051
649.721	0.13571666
649.917	0.13533553
650.113	0.13474662
650.309	0.13442098
650.504	0.13390479
650.7	0.133419
650.896	0.13304268
651.092	0.13266109
651.287	0.13224129
651.483	0.13193584
651.679	0.13152293
651.875	0.1312526
652.07	0.13089658
652.266	0.13042356
652.462	0.12997216
652.657	0.12954445
652.853	0.12910606
653.048	0.12869441
653.244	0.12818132
653.44	0.12780929
653.635	0.12739972
653.831	0.12704572
654.026	0.12673231
654.222	0.12635704
654.417	0.12598378
654.613	0.12551782
654.808	0.12492939
655.004	0.12449043
655.199	0.12392482
655.394	0.12333884
655.59	0.12288145
655.785	0.12233005
655.98	0.12192426
656.176	0.12156334
656.371	0.12134284
656.566	0.12108409
656.762	0.12075286
656.957	0.1204539
657.152	0.12027591
657.348	0.12009717
657.543	0.11993842
657.738	0.11957588
657.933	0.11929087
658.128	0.11899936
658.324	0.11866755
658.519	0.11827981
658.714	0.11786596
658.909	0.11737593
659.104	0.1169783
659.299	0.11653941
659.494	0.11614179
659.689	0.11574068
659.884	0.11530441
660.079	0.11481408
660.274	0.11439759
660.469	0.11397152
660.664	0.11359886
660.859	0.11322312
661.054	0.11291864
661.249	0.11261505
661.444	0.11229818
661.639	0.11190932
661.834	0.111532
662.029	0.11128582
662.224	0.1110116
662.418	0.110645
662.613	0.11034206
662.808	0.11007636
663.003	0.10989639
663.198	0.10957445
663.392	0.10913581
663.587	0.10884408
663.782	0.10842011
663.977	0.10798634
664.171	0.10762189
664.366	0.10723875
664.561	0.10700313
664.755	0.10671901
664.95	0.10635065
665.144	0.10613669
665.339	0.10603154
665.534	0.10591495
665.728	0.10579846
665.923	0.10557226
666.117	0.10536739
666.312	0.10513437
666.506	0.10495704
666.701	0.10465592
666.895	0.10438266
667.09	0.10405753
667.284	0.1039048
667.479	0.10363555
667.673	0.10337389
667.867	0.10309644
668.062	0.102853
668.256	0.10259832
668.45	0.1024266
668.645	0.1020877
668.839	0.10186535
669.033	0.10162285
669.228	0.10137348
669.422	0.10113215
669.616	0.10087997
669.81	0.10063463
670.004	0.10045651
670.199	0.10032308
670.393	0.10024567
670.587	0.10002218
670.781	0.09976253
670.975	0.0995492
671.169	0.09924357
671.363	0.09892722
671.558	0.09862679
671.752	0.09830746
671.946	0.09815058
672.14	0.09802428
672.334	0.09776683
672.528	0.0976364
672.722	0.09748419
672.916	0.0973742
673.11	0.09718434
673.304	0.09703343
673.497	0.09677846
673.691	0.09663017
673.885	0.09635255
674.079	0.09612496
674.273	0.09574065
674.467	0.09549124
674.661	0.09518432
674.854	0.09500658
675.048	0.09483719
675.242	0.09474651
675.436	0.09464912
675.629	0.09464384
675.823	0.0945063
676.017	0.09445848
676.211	0.09437945
676.404	0.09422063
676.598	0.0941142
676.792	0.09403195
676.985	0.09389776
677.179	0.09380933
677.372	0.09360038
677.566	0.09344564
677.76	0.09328173
677.953	0.09308161
678.147	0.09289179
678.34	0.09287063
678.534	0.09284251
678.727	0.09283742
678.921	0.09280792
679.114	0.092783
679.307	0.09278164
679.501	0.09276505
679.694	0.09258894
679.888	0.09245182
680.081	0.0923426
680.274	0.0921168
680.468	0.09201949
680.661	0.09185984
680.854	0.09170186
681.048	0.09147814
681.241	0.09121818
681.434	0.09097479
681.627	0.09079438
681.821	0.09060685
682.014	0.09046449
682.207	0.09022569
682.4	0.09012362
682.593	0.09016109
682.786	0.0901385
682.98	0.09011157
683.173	0.09006358
683.366	0.08998135
683.559	0.08998858
683.752	0.08999165
683.945	0.08989984
684.138	0.08987937
684.331	0.08982909
684.524	0.08976919
684.717	0.0896186
684.91	0.08957494
685.103	0.08944818
685.296	0.08924624
685.489	0.08901616
685.682	0.08886002
685.874	0.08869888
686.067	0.08864197
686.26	0.08853237
686.453	0.08850318
686.646	0.08854773
686.839	0.08861875
687.031	0.08869804
687.224	0.08875023
687.417	0.08893822
687.61	0.08896156
687.802	0.08893644
687.995	0.0889579
688.188	0.0889882
688.38	0.08898984
688.573	0.08908589
688.766	0.08903565
688.958	0.08902111
689.151	0.08899568
689.343	0.08902744
689.536	0.08897472
689.729	0.08892718
689.921	0.08886333
690.114	0.08879093
690.306	0.08883857
690.499	0.08896668
690.691	0.08900851
690.884	0.08905587
691.076	0.08914036
691.268	0.08913246
691.461	0.08909819
691.653	0.08908735
691.846	0.08901855
692.038	0.08895075
692.23	0.08891432
692.423	0.08882859
692.615	0.0888447
692.807	0.08894524
692.999	0.08897929
693.192	0.0890328
693.384	0.0890708
693.576	0.08915707
693.768	0.08934088
693.961	0.08940789
694.153	0.08947743
694.345	0.08962421
694.537	0.08977621
694.729	0.08999972
694.921	0.09010207
695.113	0.09005204
695.305	0.09002494
695.498	0.08997564
695.69	0.08991371
695.882	0.08977775
696.074	0.08959343
696.266	0.08947316
696.458	0.08950929
696.65	0.0895908
696.842	0.0897559
697.033	0.0899247
697.225	0.09014893
697.417	0.09036747
697.609	0.09054389
697.801	0.09059061
697.993	0.09059529
698.185	0.09049178
698.376	0.0903248
698.568	0.09020804
698.76	0.090121
698.952	0.09010716
699.144	0.09024323
699.335	0.09043629
699.527	0.09061807
699.719	0.09080858
699.91	0.09097259
700.102	0.09111513
700.294	0.09127986
700.485	0.09132035
700.677	0.09132126
700.869	0.09143431
701.06	0.0915833
701.252	0.09167771
701.443	0.09178321
701.635	0.0918781
701.826	0.09200001
702.018	0.09217782
702.209	0.09233068
702.401	0.09247665
702.592	0.09274672
702.784	0.09301192
702.975	0.09325974
703.166	0.09359166
703.358	0.09380595
703.549	0.09391554
703.741	0.09395195
703.932	0.09389411
704.123	0.09388952
704.315	0.09387196
704.506	0.0937699
704.697	0.09371445
704.888	0.0938283
705.08	0.09398918
705.271	0.09419977
705.462	0.09434978
705.653	0.09451319
705.844	0.09470531
706.035	0.09497379
706.227	0.09514125
706.418	0.09534597
706.609	0.09548739
706.8	0.09562717
706.991	0.09575723
707.182	0.09592825
707.373	0.09600914
707.564	0.09611608
707.755	0.09619807
707.946	0.0963567
708.137	0.09649641
708.328	0.0965925
708.519	0.09665265
708.71	0.09680091
708.901	0.09688994
709.092	0.09707038
709.283	0.0971603
709.473	0.09732666
709.664	0.09759912
709.855	0.09781982
710.046	0.09802627
710.237	0.09821236
710.427	0.09825188
710.618	0.09835633
710.809	0.09846707
711	0.0985271
711.19	0.09865849
711.381	0.09877442
711.572	0.09891149
711.762	0.09915009
711.953	0.09937726
712.144	0.09959653
712.334	0.09984242
712.525	0.10010712
712.715	0.10028167
712.906	0.10044011
713.097	0.10060921
713.287	0.10079889
713.478	0.10099843
713.668	0.10122345
713.859	0.10147455
714.049	0.10185876
714.239	0.10224808
714.43	0.10253348
714.62	0.10284248
714.811	0.10314163
715.001	0.10339805
715.191	0.10359641
715.382	0.10373433
715.572	0.10398335
715.762	0.10432898
715.953	0.10465226
716.143	0.10496416
716.333	0.10527238
716.523	0.10558273
716.714	0.10595204
716.904	0.10623011
717.094	0.10650213
717.284	0.10673385
717.474	0.10688624
717.664	0.10702592
717.855	0.10722293
718.045	0.10737612
718.235	0.10760272
718.425	0.10787932
718.615	0.10809066
718.805	0.10842024
718.995	0.10869858
719.185	0.10896562
719.375	0.10920939
719.565	0.1094588
719.755	0.10964012
719.945	0.10992201
720.135	0.11025264
720.325	0.11060454
720.515	0.11093453
720.704	0.1112598
720.894	0.11154128
721.084	0.11179712
721.274	0.11207888
721.464	0.11226267
721.654	0.11257068
721.843	0.11281062
722.033	0.11315321
722.223	0.11341805
722.413	0.11383104
722.602	0.11413149
722.792	0.11444282
722.982	0.11469078
723.171	0.11500546
723.361	0.11527701
723.55	0.11568385
723.74	0.11594378
723.93	0.11626308
724.119	0.11660412
724.309	0.11695096
724.498	0.11729421
724.688	0.11763942
724.877	0.11788744
725.067	0.11813349
725.256	0.11844701
725.446	0.11879086
725.635	0.11901356
725.825	0.11929627
726.014	0.11953806
726.203	0.1197715
726.393	0.11995917
726.582	0.1201529
726.771	0.12029319
726.961	0.12059217
727.15	0.12081923
727.339	0.121059
727.529	0.12135855
727.718	0.12173257
727.907	0.12207102
728.096	0.12240924
728.286	0.12262167
728.475	0.12284549
728.664	0.12305171
728.853	0.12331757
729.042	0.12361754
729.231	0.12392246
729.42	0.12415606
729.609	0.12441089
729.799	0.12465001
729.988	0.12490655
730.177	0.12512771
730.366	0.12527821
730.555	0.12546157
730.744	0.12572163
730.933	0.1260316
731.122	0.12636069
731.31	0.12663874
731.499	0.12685382
731.688	0.12719523
731.877	0.12749433
732.066	0.12788584
732.255	0.12827398
732.444	0.12868234
732.632	0.12917044
732.821	0.12964944
733.01	0.13005084
733.199	0.13041103
733.388	0.130692
733.576	0.13098908
733.765	0.13122097
733.954	0.13144802
734.142	0.13169114
734.331	0.13204585
734.52	0.1324197
734.708	0.13275727
734.897	0.13313962
735.086	0.13356325
735.274	0.13396355
735.463	0.13436057
735.651	0.13469832
735.84	0.13506242
736.028	0.13547123
736.217	0.13578901
736.405	0.13605957
736.594	0.13635536
736.782	0.13665602
736.971	0.13688771
737.159	0.13709617
737.347	0.1372568
737.536	0.13741525
737.724	0.1376315
737.912	0.13779041
738.101	0.13795679
738.289	0.13813873
738.477	0.13836345
738.666	0.13856572
738.854	0.13887473
739.042	0.13920999
739.23	0.13959273
739.418	0.14008956
739.607	0.14058417
739.795	0.14098922
739.983	0.14149077
740.171	0.14198762
740.359	0.14239861
740.547	0.14282143
740.735	0.14316014
740.923	0.14351072
741.112	0.14397591
741.3	0.14439197
741.488	0.14477722
741.676	0.14517719
741.864	0.14560649
742.052	0.14599993
742.239	0.1462906
742.427	0.14652867
742.615	0.1467263
742.803	0.14706186
742.991	0.14743422
743.179	0.14773168
743.367	0.14807256
743.555	0.14848957
743.742	0.14889286
743.93	0.14935622
744.118	0.14958302
744.306	0.14988572
744.494	0.15025205
744.681	0.15068642
744.869	0.15110682
745.057	0.15149423
745.244	0.1518894
745.432	0.15239568
745.62	0.15276559
745.807	0.15311439
745.995	0.15341992
746.182	0.15383
746.37	0.15426057
746.558	0.15464989
746.745	0.15499018
746.933	0.15542488
747.12	0.15584478
747.308	0.15621867
747.495	0.15650225
747.683	0.15686929
747.87	0.15724062
748.057	0.15768355
748.245	0.1580251
748.432	0.15833023
748.62	0.15868723
748.807	0.15906862
748.994	0.15939238
749.182	0.15972612
749.369	0.16001618
749.556	0.16043559
749.743	0.1608869
749.931	0.16132706
750.118	0.16179729
750.305	0.1622223
750.492	0.1626098
750.68	0.16306838
750.867	0.16351625
751.054	0.16398511
751.241	0.16441803
751.428	0.16478064
751.615	0.1651291
751.802	0.1654641
751.989	0.16565165
752.176	0.16580831
752.363	0.16591266
752.55	0.1659953
752.737	0.16617034
752.924	0.16653419
753.111	0.1669395
753.298	0.16746775
753.485	0.16803971
753.672	0.1685287
753.859	0.16906194
754.046	0.16953859
754.233	0.16987812
754.42	0.17027093
754.606	0.17052429
754.793	0.17070836
754.98	0.17099035
755.167	0.17125608
755.353	0.17164445
755.54	0.17207401
755.727	0.17249347
755.914	0.17295178
756.1	0.17337734
756.287	0.17382117
756.474	0.17422408
756.66	0.17451163
756.847	0.17472093
757.033	0.17479978
757.22	0.17495813
757.407	0.17516638
757.593	0.17539937
757.78	0.175716
757.966	0.17604595
758.153	0.17636162
758.339	0.17671798
758.526	0.17707255
758.712	0.177435
758.898	0.17790702
759.085	0.17837396
759.271	0.17887107
759.458	0.17938534
759.644	0.17998302
759.83	0.18049966
760.017	0.1810217
760.203	0.18150997
760.389	0.18191057
760.576	0.18224296
760.762	0.18255989
760.948	0.18291763
761.134	0.18332372
761.32	0.18371287
761.507	0.18401749
761.693	0.18445959
761.879	0.18493338
762.065	0.18548601
762.251	0.18598753
762.437	0.1865667
762.623	0.18711195
762.809	0.18757129
762.995	0.18790422
763.181	0.18828199
763.367	0.18864022
763.553	0.18896981
763.739	0.18915441
763.925	0.18935691
764.111	0.18964252
764.297	0.19000426
764.483	0.19027344
764.669	0.1905751
764.855	0.19091724
765.041	0.19129895
765.227	0.19167686
765.412	0.19211463
765.598	0.1926134
765.784	0.19321499
765.97	0.1937414
766.156	0.19421609
766.341	0.19479501
766.527	0.19533587
766.713	0.19589134
766.898	0.19633078
767.084	0.19669528
767.27	0.19702778
767.455	0.19736984
767.641	0.19762378
767.827	0.1978404
768.012	0.19803922
768.198	0.19829582
768.383	0.19861853
768.569	0.19896855
768.754	0.19946621
768.94	0.19991036
769.125	0.20046268
769.311	0.20093951
769.496	0.20147046
769.682	0.2019181
769.867	0.20244148
770.052	0.20281209
770.238	0.20321318
770.423	0.20360994
770.608	0.20402002
770.794	0.20431343
770.979	0.20470006
771.164	0.2050515
771.35	0.20537507
771.535	0.20573294
771.72	0.20603466
771.905	0.20638524
772.09	0.20675733
772.276	0.20705302
772.461	0.2073712
772.646	0.20784155
772.831	0.2083175
773.016	0.20886659
773.201	0.20938907
773.386	0.20993958
773.571	0.21045141
773.756	0.21092771
773.941	0.21131641
774.126	0.21175633
774.311	0.21220358
774.496	0.21258545
774.681	0.21295307
774.866	0.21338164
775.051	0.21384353
775.236	0.21438569
775.421	0.21474608
775.606	0.2151587
775.791	0.21549361
775.976	0.21579687
776.16	0.21603413
776.345	0.21625504
776.53	0.21643783
776.715	0.21674617
776.899	0.21691349
777.084	0.21716074
777.269	0.21754551
777.454	0.21784517
777.638	0.21831122
777.823	0.21869099
778.008	0.21910259
778.192	0.21961525
778.377	0.22001709
778.561	0.22028806
778.746	0.22065585
778.931	0.22089451
779.115	0.22120987
779.3	0.22142567
779.484	0.22164418
779.669	0.22192771
779.853	0.22219882
780.037	0.22244979
780.222	0.22257718
780.406	0.22269366
780.591	0.22287592
780.775	0.22296701
780.959	0.22312877
781.144	0.22337669
781.328	0.22365375
781.512	0.22401078
781.697	0.22433845
781.881	0.22471569
782.065	0.22508876
782.249	0.22531516
782.434	0.22549627
782.618	0.22567984
782.802	0.22588692
782.986	0.22610074
783.17	0.22623842
783.354	0.22642906
783.539	0.22676575
783.723	0.22702926
783.907	0.22731876
784.091	0.22761866
784.275	0.22784697
784.459	0.22804083
784.643	0.22821971
784.827	0.22838083
785.011	0.22853988
785.195	0.22869659
785.379	0.22886418
785.563	0.22906491
785.747	0.22923586
785.93	0.22945034
786.114	0.22951895
786.298	0.22957508
786.482	0.22962366
786.666	0.2296982
786.85	0.22985045
787.033	0.2301309
787.217	0.23039378
787.401	0.23085823
787.585	0.23136451
787.768	0.23184766
787.952	0.23216716
788.136	0.2324422
788.319	0.23269113
788.503	0.23298734
788.687	0.23326518
788.87	0.23352866
789.054	0.23386474
789.237	0.23437135
789.421	0.23480309
789.605	0.2352526
789.788	0.23554593
789.972	0.23578609
790.155	0.23604363
790.338	0.2363033
790.522	0.23651394
790.705	0.23686948
790.889	0.23715588
791.072	0.2376862
791.256	0.23815475
791.439	0.23868294
791.622	0.2391621
791.806	0.23967636
791.989	0.24000556
792.172	0.2403237
792.355	0.24046816
792.539	0.24069543
792.722	0.24090453
792.905	0.24109789
793.088	0.24120994
793.271	0.24147701
793.455	0.24178001
793.638	0.24213606
793.821	0.24244647
794.004	0.24272137
794.187	0.24311456
794.37	0.24360115
794.553	0.24403493
794.736	0.24436297
794.919	0.24461654
795.102	0.24487214
795.285	0.24526477
795.468	0.24547376
795.651	0.24570251
795.834	0.24594225
796.017	0.24632271
796.2	0.2467279
796.383	0.24718305
796.566	0.24752672
796.749	0.24784267
796.931	0.24812046
797.114	0.24848013
797.297	0.24884926
797.48	0.24932644
797.663	0.24973297
797.845	0.25005937
798.028	0.25062832
798.211	0.25108896
798.393	0.25166171
798.576	0.25209381
798.759	0.2524069
798.941	0.25284184
799.124	0.25347135
799.307	0.25396197
799.489	0.25446819
799.672	0.25477237
799.854	0.25499349
800.037	0.25528178
800.219	0.25547952
800.402	0.25551695
800.584	0.25566439
800.767	0.25592403
800.949	0.25621778
801.132	0.25666657
801.314	0.25696306
801.496	0.25734126
801.679	0.25773849
801.861	0.25804164
802.043	0.25825584
802.226	0.25844632
802.408	0.25855545
802.59	0.25877702
802.772	0.25888748
802.955	0.25908568
803.137	0.25924998
803.319	0.25938023
803.501	0.25941629
803.684	0.25947673
803.866	0.25949857
804.048	0.25961417
804.23	0.2597922
804.412	0.26005243
804.594	0.26022033
804.776	0.2605852
804.958	0.26089014
805.14	0.2611932
805.322	0.26141003
805.504	0.26159034
805.686	0.26166067
805.868	0.26187914
806.05	0.26199692
806.232	0.26221903
806.414	0.26248134
806.596	0.26269904
806.778	0.26273669
806.96	0.26292827
807.141	0.26300204
807.323	0.263015
807.505	0.26298646
807.687	0.26291048
807.869	0.26291968
808.05	0.26290629
808.232	0.2627913
808.414	0.2627458
808.595	0.26288685
808.777	0.26302818
808.959	0.26323191
809.14	0.26335401
809.322	0.26364078
809.504	0.26396633
809.685	0.26426569
809.867	0.26440983
810.048	0.26452041
810.23	0.26461265
810.411	0.26474068
810.593	0.26476265
810.774	0.26479194
810.956	0.26485528
811.137	0.26484647
811.319	0.26494012
811.5	0.26507836
811.681	0.26525219
811.863	0.26542405
812.044	0.26554628
812.225	0.26570131
812.407	0.26595542
812.588	0.26617041
812.769	0.26634714
812.951	0.26658819
813.132	0.26678574
813.313	0.2670199
813.494	0.2671757
813.675	0.26735146
813.857	0.26754748
814.038	0.26782136
814.219	0.26792036
814.4	0.26815346
814.581	0.26848097
814.762	0.26872888
814.943	0.26893269
815.124	0.2690379
815.305	0.26912947
815.486	0.26930444
815.667	0.2694759
815.848	0.26947192
816.029	0.26954959
816.21	0.26973378
816.391	0.27001272
816.572	0.27005388
816.753	0.27020387
816.934	0.27025671
817.115	0.27029654
817.295	0.27035478
817.476	0.27032305
817.657	0.2703798
817.838	0.2706683
818.019	0.27083119
818.199	0.27107433
818.38	0.27136688
818.561	0.27162265
818.741	0.27189374
818.922	0.27215968
819.103	0.27242061
819.283	0.2727813
819.464	0.27313595
819.645	0.27346562
819.825	0.27381998
820.006	0.27413959
820.186	0.27451237
820.367	0.27484847
820.547	0.27498529
820.728	0.27505782
820.908	0.27517411
821.089	0.27547951
821.269	0.27578799
821.45	0.27599931
821.63	0.27603882
821.81	0.27633361
821.991	0.27674305
822.171	0.27716008
822.351	0.27742041
822.532	0.27770658
822.712	0.27795103
822.892	0.27832605
823.072	0.27861425
823.253	0.27886345
823.433	0.27907463
823.613	0.27933049
823.793	0.27957785
823.973	0.27972328
824.154	0.27991387
824.334	0.28009201
824.514	0.28015743
824.694	0.28031233
824.874	0.28043733
825.054	0.28060529
825.234	0.28076046
825.414	0.28087508
825.594	0.28099489
825.774	0.28117658
825.954	0.28139473
826.134	0.28159241
826.314	0.2816516
826.494	0.28195134
826.674	0.28207121
826.854	0.28221066
827.033	0.28230818
827.213	0.28232475
827.393	0.28233437
827.573	0.28251204
827.753	0.28264008
827.932	0.28293896
828.112	0.28319576
828.292	0.28352131
828.472	0.28365937
828.651	0.28383383
828.831	0.28388638
829.011	0.28399417
829.19	0.28402314
829.37	0.28424106
829.549	0.28444107
829.729	0.28473661
829.909	0.28507662
830.088	0.28549526
830.268	0.28580828
830.447	0.28625829
830.627	0.28656119
830.806	0.28684337
830.986	0.28706009
831.165	0.28736002
831.344	0.28757142
831.524	0.28768969
831.703	0.28782077
831.883	0.28791849
832.062	0.28799908
832.241	0.28813947
832.421	0.28808879
832.6	0.28811975
832.779	0.28826167
832.958	0.28828486
833.138	0.2883095
833.317	0.28850032
833.496	0.28870772
833.675	0.28896767
833.854	0.28925818
834.034	0.28932433
834.213	0.28939824
834.392	0.28949815
834.571	0.28942972
834.75	0.2893972
834.929	0.28936912
835.108	0.28922199
835.287	0.28943544
835.466	0.28951151
835.645	0.28966479
835.824	0.28978944
836.003	0.28991009
836.182	0.28999709
836.361	0.29005405
836.54	0.28993065
836.719	0.28996857
836.897	0.28984146
837.076	0.28987436
837.255	0.2899017
837.434	0.28994892
837.613	0.29001602
837.791	0.29012094
837.97	0.29032845
838.149	0.29041705
838.328	0.29044667
838.506	0.29058558
838.685	0.29067874
838.864	0.29091925
839.042	0.29108462
839.221	0.29126912
839.4	0.29157414
839.578	0.29181229
839.757	0.2919532
839.935	0.29225912
840.114	0.29240851
840.292	0.29259774
840.471	0.29272484
840.649	0.29276753
840.828	0.29284489
841.006	0.29299402
841.185	0.29289565
841.363	0.29285041
841.541	0.29268851
841.72	0.29260742
841.898	0.29256207
842.076	0.29256577
842.255	0.29242022
842.433	0.29248404
842.611	0.29245834
842.789	0.29266181
842.968	0.29282414
843.146	0.2929976
843.324	0.29309949
843.502	0.29326366
843.68	0.29343326
843.859	0.29352158
844.037	0.29337488
844.215	0.29309198
844.393	0.29290874
844.571	0.29272834
844.749	0.29257966
844.927	0.29233959
845.105	0.29219252
845.283	0.29222702
845.461	0.29238536
845.639	0.29250941
845.817	0.29272448
845.995	0.29309236
846.173	0.29345561
846.351	0.29376362
846.529	0.29400659
846.706	0.29409367
846.884	0.29409754
847.062	0.29397012
847.24	0.29370634
847.418	0.29343423
847.595	0.29329539
847.773	0.29315586
847.951	0.29310618
848.129	0.29314397
848.306	0.29325984
848.484	0.29325455
848.662	0.29339058
848.839	0.29359905
849.017	0.29383954
849.194	0.29396068
849.372	0.29412484
849.549	0.29438812
849.727	0.29478859
849.905	0.29495405
850.082	0.29508898
850.26	0.29519713
850.437	0.29537011
850.614	0.29549528
850.792	0.2954795
850.969	0.29556554
851.147	0.29571486
851.324	0.29568524
851.501	0.29558895
851.679	0.29543751
851.856	0.29528626
852.033	0.29517321
852.211	0.29493003
852.388	0.29465104
852.565	0.29468074
852.742	0.29472094
852.92	0.29487664
853.097	0.29505286
853.274	0.29513678
853.451	0.29505906
853.628	0.29505962
853.805	0.29484445
853.982	0.29472736
854.159	0.29454192
854.336	0.29436512
854.514	0.29436146
854.691	0.294377
854.868	0.29447368
855.045	0.29451597
855.221	0.29451044
855.398	0.29450005
855.575	0.294368
855.752	0.29414946
855.929	0.29406588
856.106	0.29389063
856.283	0.29373477
856.46	0.29359728
856.637	0.29352278
856.813	0.29344792
856.99	0.29343264
857.167	0.29349303
857.344	0.29354503
857.52	0.29376931
857.697	0.29365345
857.874	0.29359088
858.05	0.29367329
858.227	0.29378496
858.404	0.29371187
858.58	0.29378094
858.757	0.29360282
858.933	0.29375382
859.11	0.2936179
859.287	0.29330252
859.463	0.29296795
859.64	0.29290614
859.816	0.29273379
859.993	0.29277803
860.169	0.29283047
860.345	0.29296054
860.522	0.29318434
860.698	0.29320076
860.875	0.29310218
861.051	0.29301623
861.227	0.29285459
861.404	0.29281017
861.58	0.29277943
861.756	0.29290971
861.932	0.29316536
862.109	0.29319881
862.285	0.29339215
862.461	0.29364459
862.637	0.29362032
862.813	0.29376208
862.99	0.29358305
863.166	0.29335001
863.342	0.29332513
863.518	0.29297469
863.694	0.29263015
863.87	0.29226689
864.046	0.29178638
864.222	0.29173312
864.398	0.29157532
864.574	0.29118304
864.75	0.29108958
864.926	0.2910079
865.102	0.29112657
865.278	0.29115058
865.454	0.29112556
865.63	0.29104681
865.805	0.29120311
865.981	0.29127737
866.157	0.29127386
866.333	0.29118486
866.509	0.29142915
866.684	0.29145674
866.86	0.29168654
867.036	0.29182529
867.212	0.29168005
867.387	0.29161313
867.563	0.29163385
867.739	0.29139146
867.914	0.29128651
868.09	0.29103101
868.265	0.29078321
868.441	0.29069545
868.617	0.29050324
868.792	0.29016289
868.968	0.28993732
869.143	0.28986841
869.319	0.28975041
869.494	0.28963923
869.67	0.28969161
869.845	0.28972335
870.02	0.28981213
870.196	0.29003264
870.371	0.28982729
870.546	0.2898544
870.722	0.28993424
870.897	0.28980457
871.072	0.28970788
871.248	0.28953952
871.423	0.28916876
871.598	0.28896297
871.773	0.28855795
871.949	0.28817565
872.124	0.28808975
872.299	0.28788473
872.474	0.28780672
872.649	0.28760687
872.824	0.28740429
872.999	0.2872885
873.174	0.28712052
873.349	0.28685109
873.524	0.28659716
873.699	0.286249
873.874	0.28602868
874.049	0.28586892
874.224	0.28554909
874.399	0.28522605
874.574	0.28491239
874.749	0.2847396
874.924	0.28456202
875.099	0.28445355
875.274	0.28432603
875.449	0.28444649
875.623	0.28434052
875.798	0.28402826
875.973	0.28373729
876.148	0.28347637
876.322	0.2831517
876.497	0.28274115
876.672	0.2823293
876.846	0.28222628
877.021	0.28223214
877.196	0.28197839
877.37	0.28194245
877.545	0.28190633
877.72	0.28185609
877.894	0.28181454
878.069	0.28156791
878.243	0.28127315
878.418	0.28134465
878.592	0.28130476
878.767	0.28125874
878.941	0.28126307
879.116	0.28118699
879.29	0.28114227
879.464	0.28106316
879.639	0.2809194
879.813	0.28078812
879.987	0.2805286
880.162	0.28025026
880.336	0.27990796
880.51	0.27964048
880.685	0.27943294
880.859	0.27921353
881.033	0.27884322
881.207	0.27848693
881.381	0.27825004
881.556	0.27807659
881.73	0.2779114
881.904	0.27785669
882.078	0.27754998
882.252	0.27734711
882.426	0.27722275
882.6	0.27705928
882.774	0.27701951
882.948	0.27687503
883.122	0.27653705
883.296	0.27634333
883.47	0.27626702
883.644	0.27617642
883.818	0.27589002
883.992	0.27548964
884.166	0.27540533
884.34	0.2753388
884.514	0.2755051
884.687	0.27532421
884.861	0.27520301
885.035	0.27533457
885.209	0.27556268
885.382	0.27550993
885.556	0.27545535
885.73	0.27529197
885.904	0.27524589
886.077	0.27504886
886.251	0.27463834
886.425	0.2743964
886.598	0.27410148
886.772	0.27383656
886.945	0.2733679
887.119	0.27302727
887.292	0.2729202
887.466	0.2730728
887.64	0.27283687
887.813	0.27282275
887.986	0.27274567
888.16	0.27284186
888.333	0.27278145
888.507	0.27269532
888.68	0.27246795
888.854	0.27249849
889.027	0.27232724
889.2	0.2723877
889.374	0.27210573
889.547	0.27195199
889.72	0.27180724
889.893	0.27132236
890.067	0.27081902
890.24	0.27036898
890.413	0.2698089
890.586	0.26954522
890.759	0.26945169
890.933	0.2692135
891.106	0.26927815
891.279	0.26932416
891.452	0.26934205
891.625	0.26922009
891.798	0.26904901
891.971	0.26866852
892.144	0.26834113
892.317	0.26809646
892.49	0.26761004
892.663	0.2673047
892.836	0.26706295
893.009	0.26672158
893.182	0.26621131
893.355	0.26594812
893.527	0.26551776
893.7	0.26542286
893.873	0.26512678
894.046	0.2648106
894.219	0.26471193
894.391	0.26479004
894.564	0.26475322
894.737	0.26460756
894.91	0.26445862
895.082	0.26429849
895.255	0.26409905
895.428	0.26385979
895.6	0.26363934
895.773	0.26320881
895.945	0.26306044
896.118	0.26278982
896.291	0.26264482
896.463	0.26238569
896.636	0.26214297
896.808	0.26186891
896.981	0.26170492
897.153	0.26138939
897.326	0.26115162
897.498	0.26074321
897.67	0.26053746
897.843	0.26033183
898.015	0.26006705
898.187	0.25978075
898.36	0.25936986
898.532	0.25889562
898.704	0.25879318
898.877	0.25869484
899.049	0.25852889
899.221	0.25850169
899.393	0.25845982
899.566	0.25858754
899.738	0.25883768
899.91	0.25880383
900.082	0.25885452
900.254	0.25881048
900.426	0.25867602
900.598	0.25850402
900.77	0.25820697
900.942	0.25783156
901.114	0.25734435
901.286	0.256723
901.458	0.25624721
901.63	0.25572273
901.802	0.25527112
901.974	0.25486348
902.146	0.25442076
902.318	0.25420875
902.49	0.25394536
902.662	0.25365376
902.834	0.25343838
903.005	0.2532413
903.177	0.25290883
903.349	0.25271338
903.521	0.25236979
903.693	0.25204396
903.864	0.25174627
904.036	0.25149017
904.208	0.25118248
904.379	0.25106386
904.551	0.25091631
904.723	0.2506751
904.894	0.25052711
905.066	0.25033064
905.237	0.25002528
905.409	0.24959851
905.58	0.24916727
905.752	0.24875171
905.923	0.24851141
906.095	0.24809245
906.266	0.24776055
906.438	0.24755633
906.609	0.24746035
906.78	0.2473262
906.952	0.24710187
907.123	0.24664638
907.295	0.2464682
907.466	0.24622201
907.637	0.24597537
907.808	0.2455618
907.98	0.24522933
908.151	0.2448262
908.322	0.24480286
908.493	0.24446074
908.665	0.24410433
908.836	0.24376082
909.007	0.24354718
909.178	0.24330304
909.349	0.24324314
909.52	0.243033
909.691	0.24277107
909.862	0.24261644
910.033	0.24250974
910.204	0.24244864
910.375	0.24245975
910.546	0.24231238
910.717	0.24208375
910.888	0.24222177
911.059	0.24228242
911.23	0.24213006
911.401	0.24202135
911.572	0.24190801
911.742	0.24169911
911.913	0.24173229
912.084	0.24147712
912.255	0.24120002
912.426	0.24087584
912.596	0.24045353
912.767	0.24015211
912.938	0.23999586
913.108	0.23970408
913.279	0.23938722
913.45	0.23898234
913.62	0.23874574
913.791	0.23845603
913.962	0.23810092
914.132	0.23758046
914.303	0.23695256
914.473	0.2366381
914.644	0.23620703
914.814	0.2357951
914.985	0.2355511
915.155	0.23504352
915.326	0.23462079
915.496	0.23418609
915.666	0.23367586
915.837	0.23346311
916.007	0.23292254
916.177	0.23235302
916.348	0.23214999
916.518	0.23193485
916.688	0.23178376
916.858	0.23155263
917.029	0.23119573
917.199	0.23109878
917.369	0.23111232
917.539	0.23094475
917.709	0.23071171
917.88	0.23029232
918.05	0.23000375
918.22	0.22979411
918.39	0.22965046
918.56	0.22935313
918.73	0.22915656
918.9	0.22890559
919.07	0.22886215
919.24	0.22869013
919.41	0.22859832
919.58	0.22822818
919.75	0.22796751
919.92	0.22750619
920.09	0.22713743
920.26	0.22679043
920.429	0.2264951
920.599	0.22596841
920.769	0.22563168
920.939	0.22513045
921.109	0.22473261
921.278	0.22445795
921.448	0.2241328
921.618	0.22377943
921.787	0.22347738
921.957	0.22321239
922.127	0.22289104
922.296	0.22290363
922.466	0.22272027
922.636	0.22248394
922.805	0.22219805
922.975	0.2218218
923.144	0.22145518
923.314	0.22120652
923.483	0.2205932
923.653	0.22002569
923.822	0.21954071
923.992	0.21909488
924.161	0.21881382
924.331	0.21848374
924.5	0.21814545
924.669	0.2177562
924.839	0.2174934
925.008	0.21727657
925.177	0.21703517
925.347	0.21685279
925.516	0.21669608
925.685	0.2165674
925.854	0.21647509
926.023	0.21630033
926.193	0.21622554
926.362	0.21616755
926.531	0.21598065
926.7	0.2156963
926.869	0.21561504
927.038	0.21524894
927.207	0.21496994
927.376	0.2146207
927.545	0.21416056
927.715	0.21370424
927.884	0.21341111
928.052	0.21295624
928.221	0.21256556
928.39	0.21226544
928.559	0.21193471
928.728	0.21171012
928.897	0.21162946
929.066	0.21141214
929.235	0.21098139
929.404	0.21093269
929.572	0.21068729
929.741	0.21033555
929.91	0.21004516
930.079	0.20959266
930.247	0.20915142
930.416	0.20900686
930.585	0.20854502
930.753	0.20828763
930.922	0.20812371
931.091	0.208002
931.259	0.20781728
931.428	0.20797031
931.596	0.20775994
931.765	0.20782274
931.934	0.20780393
932.102	0.20736308
932.27	0.20700254
932.439	0.20663916
932.607	0.20603656
932.776	0.20590448
932.944	0.20548125
933.113	0.20506482
933.281	0.20491
933.449	0.20445316
933.618	0.2041676
933.786	0.20407411
933.954	0.20361626
934.123	0.20310666
934.291	0.20283002
934.459	0.20259953
934.627	0.20247567
934.795	0.20227218
934.964	0.20184758
935.132	0.20145715
935.3	0.20145023
935.468	0.20111707
935.636	0.20091531
935.804	0.20047353
935.972	0.20032209
936.14	0.20005387
936.308	0.19981427
936.476	0.19970183
936.644	0.19927973
936.812	0.19881957
936.98	0.19871055
937.148	0.19816435
937.316	0.19768169
937.484	0.19760338
937.652	0.1969734
937.82	0.19725212
937.987	0.19691628
938.155	0.19634379
938.323	0.1962103
938.491	0.19605356
938.658	0.19587332
938.826	0.19551551
938.994	0.19464044
939.162	0.19452426
939.329	0.19463279
939.497	0.19455922
939.665	0.19386675
939.832	0.19352582
940	0.19298446
940.167	0.19273186
940.335	0.19179823
940.502	0.19062342
940.67	0.19032791
940.837	0.19029396
941.005	0.18983166
941.172	0.19002335
941.34	0.18963248
941.507	0.19036923
941.674	0.19068331
941.842	0.18949145
942.009	0.18940854
942.177	0.18814859
942.344	0.18805472
942.511	0.18758652
942.678	0.18740807
942.846	0.18678397
943.013	0.18678338
943.18	0.18637483
943.347	0.18666097
943.514	0.18533034
943.682	0.18584758
943.849	0.18450218
944.016	0.18421188
944.183	0.18415246
944.35	0.18459597
944.517	0.18505732
944.684	0.18536056
944.851	0.18235352
945.018	0.18196214
945.185	0.18151755
945.352	0.18070563
945.519	0.17961494
945.686	0.17856097
945.853	0.17891458
946.02	0.17926006
946.187	0.17861141
946.353	0.17879192
946.52	0.1789088
946.687	0.17808176
946.854	0.1778361
947.021	0.17694196
947.187	0.17811265
947.354	0.17741554
947.521	0.17693528
947.687	0.17604163
947.854	0.17549657
948.021	0.17414366
948.187	0.17379325
948.354	0.17291957
948.52	0.17283466
948.687	0.17374037
948.854	0.17396713
949.02	0.17346007
949.187	0.1737814
949.353	0.17352462
949.52	0.17259682
949.686	0.17231534
949.852	0.1715628
950.019	0.17157705
950.185	0.17166669
950.352	0.17127862
950.518	0.17044384
950.684	0.17087624
950.851	0.17079214
951.017	0.16971683
951.183	0.16872615
951.349	0.16823313
951.516	0.16756204
951.682	0.16792048
951.848	0.16677927
952.014	0.1659558
952.18	0.16569777
952.346	0.1655133
952.512	0.16505065
952.679	0.16532974
952.845	0.1647329
953.011	0.16530863
953.177	0.16530928
953.343	0.16480906
953.509	0.16507248
953.675	0.16528815
953.841	0.16512529
954.007	0.16544624
954.172	0.16544328
954.338	0.16471935
954.504	0.16400378
954.67	0.16286435
954.836	0.16253569
955.002	0.1617003
955.167	0.16082193
955.333	0.15951789
955.499	0.15934369
955.665	0.15920575
955.83	0.15887457
955.996	0.15823976
956.162	0.15749812
956.327	0.15701925
956.493	0.15686541
956.659	0.15675415
956.824	0.1564083
956.99	0.15611433
957.155	0.15624955
957.321	0.15621345
957.486	0.15553553
957.652	0.15494212
957.817	0.15495595
957.983	0.15459248
958.148	0.15433118
958.314	0.15374817
958.479	0.15339128
958.644	0.15338254
958.81	0.15361603
958.975	0.1532364
959.14	0.15324681
959.306	0.15306408
959.471	0.15270943
959.636	0.1522813
959.801	0.15265749
959.967	0.15234322
960.132	0.15198003
960.297	0.15155217
960.462	0.1515251
960.627	0.15130881
960.792	0.15112642
960.957	0.15042793
961.123	0.15027358
961.288	0.14976226
961.453	0.14963809
961.618	0.14943016
961.783	0.14950486
961.948	0.14926847
962.113	0.14896573
962.277	0.14849991
962.442	0.14845127
962.607	0.14836328
962.772	0.14791623
962.937	0.14702094
963.102	0.14709674
963.267	0.14670954
963.431	0.14664233
963.596	0.14636213
963.761	0.14601972
963.926	0.1457684
964.09	0.14593406
964.255	0.14576123
964.42	0.14561077
964.584	0.14546315
964.749	0.14512115
964.914	0.14471328
965.078	0.144381
965.243	0.14383602
965.407	0.14333816
965.572	0.1432427
965.736	0.14296086
965.901	0.14313749
966.065	0.14343732
966.23	0.14322146
966.394	0.14350143
966.559	0.14322838
966.723	0.14311325
966.887	0.14275895
967.052	0.14231453
967.216	0.14163998
967.38	0.14101592
967.545	0.14081883
967.709	0.14128408
967.873	0.14106999
968.037	0.14104763
968.202	0.14110431
968.366	0.14122993
968.53	0.14189407
968.694	0.14140973
968.858	0.14091753
969.022	0.14056786
969.187	0.13988944
969.351	0.13948015
969.515	0.1391417
969.679	0.13851073
969.843	0.13825763
970.007	0.13794483
970.171	0.13790691
970.335	0.13813741
970.499	0.13795253
970.662	0.13790521
970.826	0.13793379
970.99	0.13808882
971.154	0.13799027
971.318	0.13784387
971.482	0.13707599
971.645	0.13694439
971.809	0.13673933
971.973	0.13606729
972.137	0.13510191
972.3	0.134805
972.464	0.13468104
972.628	0.13492701
972.791	0.13481769
972.955	0.13454153
973.119	0.1343931
973.282	0.13444104
973.446	0.13382284
973.609	0.13316759
973.773	0.13264476
973.936	0.13191162
974.1	0.13140359
974.263	0.13109901
974.427	0.131135
974.59	0.13090921
974.754	0.13070768
974.917	0.13046081
975.08	0.13002405
975.244	0.12969015
975.407	0.1295683
975.57	0.12865197
975.734	0.12827024
975.897	0.12801783
976.06	0.1276737
976.223	0.12725767
976.387	0.12697413
976.55	0.12659962
976.713	0.12649222
976.876	0.12642534
977.039	0.12610399
977.202	0.12593505
977.365	0.12578236
977.528	0.12542451
977.692	0.12485114
977.855	0.12422652
978.018	0.12360756
978.181	0.12317373
978.344	0.12272343
978.506	0.12251709
978.669	0.12244497
978.832	0.12262188
978.995	0.12285588
979.158	0.12331448
979.321	0.12343746
979.484	0.12355237
979.646	0.12378496
979.809	0.12391811
979.972	0.12355579
980.135	0.12359426
980.297	0.12321626
980.46	0.12280537
980.623	0.12251637
980.786	0.12205706
980.948	0.12140997
981.111	0.1211156
981.273	0.12071282
981.436	0.12026636
981.599	0.12007289
981.761	0.11955157
981.924	0.11989167
982.086	0.11979723
982.249	0.11983614
982.411	0.1196506
982.573	0.11965134
982.736	0.11985888
982.898	0.11985284
983.061	0.11946337
983.223	0.11897678
983.385	0.11857519
983.548	0.11882089
983.71	0.11845521
983.872	0.11768955
984.034	0.11783047
984.197	0.11716303
984.359	0.11743046
984.521	0.11730697
984.683	0.11656525
984.845	0.11631461
985.008	0.11606585
985.17	0.115806
985.332	0.11583018
985.494	0.11492734
985.656	0.11458233
985.818	0.11413053
985.98	0.1137925
986.142	0.11336781
986.304	0.11250578
986.466	0.11169158
986.628	0.11148239
986.79	0.11109347
986.952	0.11110476
987.113	0.11098541
987.275	0.11077853
987.437	0.11080457
987.599	0.1109319
987.761	0.11096356
987.922	0.11078175
988.084	0.11073189
988.246	0.11079333
988.408	0.11087332
988.569	0.11078443
988.731	0.11076174
988.893	0.11059183
989.054	0.1109337
989.216	0.11073162
989.377	0.11029591
989.539	0.11014733
989.701	0.10977734
989.862	0.10950753
990.024	0.10911171
990.185	0.10857864
990.347	0.10832687
990.508	0.1077901
990.669	0.10739657
990.831	0.1072979
990.992	0.10757204
991.154	0.1072219
991.315	0.10736116
991.476	0.10703446
991.638	0.10738402
991.799	0.10756588
991.96	0.10744619
992.121	0.10727109
992.283	0.10748325
992.444	0.10670988
992.605	0.10626211
992.766	0.10570171
992.927	0.10486479
993.088	0.10469896
993.249	0.103916
993.41	0.10296708
993.572	0.10330114
993.733	0.10348997
993.894	0.10334405
994.055	0.10278594
994.216	0.10231904
994.376	0.10167639
994.537	0.10223135
994.698	0.10185022
994.859	0.10121795
995.02	0.10109171
995.181	0.10091444
995.342	0.10072804
995.503	0.10046304
995.663	0.09977016
995.824	0.09879891
995.985	0.09936295
996.146	0.09870777
996.306	0.09880102
996.467	0.09866544
996.628	0.09875483
996.788	0.09901097
996.949	0.09980603
997.11	0.09926543
997.27	0.09901843
997.431	0.09848677
997.591	0.09767114
997.752	0.09730439
997.912	0.09718397
998.073	0.09641801
998.233	0.09634748
998.394	0.09661411
998.554	0.09710472
998.714	0.09790122
998.875	0.09762189
999.035	0.09672671
999.196	0.09662463
999.356	0.0961393
999.516	0.09558268
999.676	0.09536549
999.837	0.0941643
999.997	0.0941305
1000.157	0.09441061
1000.317	0.09342992
1000.477	0.09293241
1000.638	0.09247864
1000.798	0.09279807
1000.958	0.093359
1001.118	0.09380672
1001.278	0.09376749
1001.438	0.09438212
1001.598	0.09474386
1001.758	0.09545123
1001.918	0.09469761
1002.078	0.09377725
1002.238	0.09336562
1002.398	0.09316828
1002.558	0.09310576
1002.718	0.09260186
1002.878	0.09216447
1003.037	0.09112801
1003.197	0.0919453
1003.357	0.09157666
1003.517	0.09184339
1003.677	0.0913447
1003.836	0.09114061
1003.996	0.09090253
1004.156	0.09126361
1004.315	0.09030824
1004.475	0.08944741
1004.635	0.08931705
1004.794	0.08921623
1004.954	0.08884455
1005.114	0.08809279
1005.273	0.088781
1005.433	0.0889155
1005.592	0.08925371
1005.752	0.08809719
1005.911	0.08770465
1006.071	0.08763517
1006.23	0.08742719
1006.389	0.08646508
1006.549	0.08596293
1006.708	0.0857619
1006.868	0.08543076
1007.027	0.08617122
1007.186	0.08601663
1007.345	0.08700931
1007.505	0.08682214
1007.664	0.08673978
1007.823	0.08690913
1007.982	0.08755594
1008.142	0.0872023
1008.301	0.08726501
1008.46	0.08603534
1008.619	0.08599063
1008.778	0.08596792
1008.937	0.08603364
1009.096	0.08591157
1009.255	0.08577765
1009.414	0.08477122
1009.573	0.08511049
1009.732	0.08530181
1009.891	0.08543617
1010.05	0.08514489
1010.209	0.08483823
1010.368	0.08424252
1010.527	0.08547362
1010.686	0.08605093
1010.845	0.08606137
1011.003	0.08620239
1011.162	0.08623822
1011.321	0.08621739
1011.48	0.08659312
1011.638	0.08625491
1011.797	0.08598394
1011.956	0.08526417
1012.115	0.08526479
1012.273	0.08449756
1012.432	0.08416849
1012.59	0.08344764
1012.749	0.08284505
1012.908	0.08152333
1013.066	0.08171411
1013.225	0.08096205
1013.383	0.0811421
1013.542	0.08118545
1013.7	0.08077222
1013.859	0.08187802
1014.017	0.08320143
1014.175	0.08267865
1014.334	0.0827367
1014.492	0.08270004
1014.65	0.08247552
1014.809	0.0836493
1014.967	0.08159338
1015.125	0.0802155
1015.284	0.08064906
1015.442	0.08005035
1015.6	0.08029957
1015.758	0.07987209
1015.916	0.07847079
1016.075	0.0789226
1016.233	0.07911447
1016.391	0.07891355
1016.549	0.07929331
1016.707	0.07917118
1016.865	0.07900407
1017.023	0.07944168
1017.181	0.079528
1017.339	0.0797603
1017.497	0.07991287
1017.655	0.07990928
1017.813	0.08107788
1017.971	0.08055868
1018.129	0.08091649
1018.286	0.08094459
1018.444	0.07988962
1018.602	0.07985711
1018.76	0.08091791
1018.918	0.07906992
1019.075	0.07908425
1019.233	0.07861609
1019.391	0.07808708
1019.549	0.07991962
1019.706	0.07913171
1019.864	0.07832845
1020.022	0.07859416
1020.179	0.08022862
1020.337	0.08119893
1020.494	0.08131096
1020.652	0.07924037
1020.809	0.07890726
1020.967	0.07816724
1021.124	0.07798263
1021.282	0.07778356
1021.439	0.07614567
1021.597	0.076839
1021.754	0.07855353
1021.911	0.08064363
1022.069	0.08076689
1022.226	0.07938143
1022.384	0.07793129
1022.541	0.07843946
1022.698	0.07814035
1022.855	0.07824244
1023.013	0.07692771
1023.17	0.07712761
1023.327	0.07951964
1023.484	0.08078235
1023.641	0.08159852
1023.798	0.08192616
1023.956	0.08168911
1024.113	0.08168166
1024.27	0.08175413
1024.427	0.08045046
1024.584	0.08026633
1024.741	0.08017646
1024.898	0.08030239
1025.055	0.08057567
1025.212	0.07893513
1025.369	0.07752999
1025.525	0.07754705
1025.682	0.0779172
1025.839	0.07821438
1025.996	0.07969435
1026.153	0.07936665
1026.31	0.08295647
1026.466	0.08455323
1026.623	0.08526359
1026.78	0.08610599
1026.937	0.08560019
1027.093	0.08480287
1027.25	0.08568716
1027.407	0.08395655
1027.563	0.0833542
1027.72	0.08294412
1027.876	0.08062617
1028.033	0.08065623
1028.19	0.07922391
1028.346	0.07525733
1028.503	0.07418307
1028.659	0.07417857
1028.816	0.07244658
1028.972	0.07461419
1029.128	0.07498397
1029.285	0.07578029
1029.441	0.07969103
1029.598	0.07982426
1029.754	0.08216735
1029.91	0.0838829
1030.067	0.08173374
1030.223	0.08172339
1030.379	0.07854745
1030.535	0.08042575
1030.691	0.08042314
1030.848	0.07931763
1031.004	0.08028167
1031.16	0.08049908
1031.316	0.08005872
1031.472	0.08361346
1031.628	0.07988175
1031.784	0.08228029
1031.94	0.08138198
1032.096	0.08144183
1032.252	0.08404914
1032.408	0.08354971
1032.564	0.08208147
1032.72	0.08236327
1032.876	0.07757873
1033.032	0.07703988
1033.188	0.07812943
1033.344	0.07649564
1033.5	0.07759187
1033.655	0.07824015
1033.811	0.07865641
1033.967	0.08472516
