Data from 1_mm_pl_70pc_Absorbance__0__17-23-42-373.txt Node

Date: Wed Mar 08 17:23:42 CET 2023
User: Ange
Spectrometer: FLMT08341
Trigger mode: 0
Integration Time (sec): 1.000000E-2
Scans to average: 400
Electric dark correction enabled: true
Nonlinearity correction enabled: false
Boxcar width: 3
XAxis mode: Wavelengths
Number of Pixels in Spectrum: 3648
>>>>>Begin Spectral Data<<<<<
345.271	-0.00661927
345.487	-0.00052788
345.704	-0.01470219
345.921	-0.01440971
346.137	-0.01087201
346.354	-0.00671647
346.571	-0.00914714
346.787	0.02816569
347.004	0.00415355
347.22	-0.11411072
347.437	-0.04053489
347.653	0.00591528
347.87	-0.12471321
348.086	0.29558918
348.303	-0.22045164
348.519	0.26092127
348.736	0.2301289
348.952	0.22995128
349.169	0.23190519
349.385	0.23930023
349.601	0.23507695
349.818	0.23052261
350.034	0.22607766
350.251	0.22403571
350.467	0.22571745
350.683	0.21852989
350.9	0.21626365
351.116	0.21438694
351.332	0.21089066
351.549	0.21625133
351.765	0.21939882
351.981	0.22143797
352.197	0.22913084
352.414	0.23601522
352.63	0.23916977
352.846	0.24384777
353.062	0.24033125
353.278	0.2386909
353.495	0.24366782
353.711	0.24490975
353.927	0.24586162
354.143	0.24738073
354.359	0.24702777
354.575	0.24745176
354.792	0.25125173
355.008	0.24566697
355.224	0.24264922
355.44	0.24011433
355.656	0.2396195
355.872	0.24248166
356.088	0.25322058
356.304	0.25459321
356.52	0.25728942
356.736	0.26110761
356.952	0.26406655
357.168	0.26511316
357.384	0.26961435
357.6	0.26306769
357.816	0.26654611
358.032	0.27025275
358.248	0.27481301
358.464	0.27570884
358.679	0.27897303
358.895	0.27708377
359.111	0.28143771
359.327	0.27903489
359.543	0.28214222
359.759	0.28573527
359.974	0.28550324
360.19	0.28518575
360.406	0.28685318
360.622	0.28365654
360.838	0.28212995
361.053	0.28153331
361.269	0.2830049
361.485	0.28584522
361.701	0.28755918
361.916	0.28667697
362.132	0.28940579
362.348	0.2919845
362.563	0.29434917
362.779	0.29212527
362.995	0.29370958
363.21	0.29627369
363.426	0.2972709
363.641	0.2978166
363.857	0.30177229
364.073	0.30060783
364.288	0.29912458
364.504	0.30343862
364.719	0.30379974
364.935	0.30441027
365.15	0.30670377
365.366	0.30719783
365.581	0.3093168
365.797	0.3116418
366.012	0.307954
366.228	0.3060032
366.443	0.31017781
366.658	0.30983272
366.874	0.30733844
367.089	0.31012206
367.305	0.31194853
367.52	0.31434306
367.735	0.31590992
367.951	0.31313559
368.166	0.31595892
368.381	0.32129872
368.597	0.31900614
368.812	0.32120412
369.027	0.32352093
369.243	0.32529199
369.458	0.33240883
369.673	0.33294723
369.888	0.33317936
370.104	0.33348576
370.319	0.33421251
370.534	0.33368393
370.749	0.33420986
370.964	0.33373173
371.179	0.33336933
371.395	0.33141367
371.61	0.33442558
371.825	0.3322006
372.04	0.33260751
372.255	0.33222798
372.47	0.33006177
372.685	0.3302268
372.9	0.33121863
373.115	0.33044787
373.33	0.33290759
373.545	0.33492735
373.76	0.33693886
373.975	0.33714807
374.19	0.33668085
374.405	0.33868893
374.62	0.34263357
374.835	0.34443124
375.05	0.34483283
375.265	0.34732328
375.48	0.34886799
375.695	0.35422731
375.91	0.35246495
376.125	0.34932678
376.339	0.34694808
376.554	0.34767626
376.769	0.34713044
376.984	0.34755926
377.199	0.34759225
377.414	0.3483107
377.628	0.3515967
377.843	0.35468108
378.058	0.35564123
378.273	0.35692845
378.487	0.35801975
378.702	0.35825532
378.917	0.35987507
379.131	0.35838501
379.346	0.35604622
379.561	0.35455566
379.775	0.35432022
379.99	0.35326225
380.205	0.35137084
380.419	0.34988049
380.634	0.34843557
380.848	0.35111779
381.063	0.35246456
381.278	0.35448067
381.492	0.35383385
381.707	0.35651501
381.921	0.35660233
382.136	0.35970251
382.35	0.35840672
382.565	0.35731008
382.779	0.35767723
382.994	0.35910634
383.208	0.35764063
383.422	0.36079596
383.637	0.36003991
383.851	0.36252443
384.066	0.3640323
384.28	0.36369013
384.494	0.36464413
384.709	0.36650673
384.923	0.36683488
385.137	0.36666124
385.352	0.36683569
385.566	0.36802046
385.78	0.36838505
385.995	0.36786449
386.209	0.3664098
386.423	0.36843434
386.637	0.36955701
386.852	0.36774386
387.066	0.36697666
387.28	0.36631139
387.494	0.36805255
387.708	0.36933578
387.923	0.36756358
388.137	0.36861055
388.351	0.36987733
388.565	0.37170319
388.779	0.37221593
388.993	0.37426162
389.207	0.37531993
389.421	0.37640859
389.635	0.37574854
389.85	0.37555319
390.064	0.3754034
390.278	0.37654922
390.492	0.37587018
390.706	0.37611071
390.92	0.37557021
391.134	0.37745008
391.348	0.38046118
391.561	0.37956713
391.775	0.37906336
391.989	0.37765912
392.203	0.37819993
392.417	0.3792585
392.631	0.3805724
392.845	0.37865051
393.059	0.38098537
393.273	0.38085042
393.486	0.3808253
393.7	0.37929324
393.914	0.38012506
394.128	0.37863947
394.342	0.37880203
394.555	0.37593306
394.769	0.37624103
394.983	0.3773484
395.197	0.37859964
395.41	0.3781785
395.624	0.37876556
395.838	0.37877076
396.051	0.38179784
396.265	0.38102372
396.479	0.38124899
396.692	0.3808076
396.906	0.3797527
397.12	0.37994587
397.333	0.3807455
397.547	0.37951222
397.76	0.38101617
397.974	0.38099321
398.187	0.38163014
398.401	0.38272827
398.614	0.38243381
398.828	0.38241971
399.041	0.3823435
399.255	0.38165897
399.468	0.38152758
399.682	0.3811807
399.895	0.38194269
400.109	0.3811627
400.322	0.380765
400.536	0.37947607
400.749	0.38052487
400.962	0.38039984
401.176	0.38037055
401.389	0.37922007
401.602	0.37806565
401.816	0.37771637
402.029	0.37941315
402.242	0.37845958
402.456	0.3780344
402.669	0.3768509
402.882	0.37548443
403.095	0.37707322
403.309	0.37702381
403.522	0.3765382
403.735	0.37554527
403.948	0.37534569
404.161	0.37776508
404.375	0.37811741
404.588	0.3779758
404.801	0.37793235
405.014	0.37688434
405.227	0.37821294
405.44	0.3786219
405.653	0.37785278
405.866	0.37732276
406.079	0.37636388
406.293	0.37615706
406.506	0.37644877
406.719	0.37547153
406.932	0.37443717
407.145	0.37274334
407.358	0.37403554
407.571	0.37315076
407.784	0.37288997
407.996	0.37240774
408.209	0.37115892
408.422	0.37078746
408.635	0.37110278
408.848	0.3701164
409.061	0.36914832
409.274	0.36859488
409.487	0.36840277
409.7	0.36838698
409.912	0.36815117
410.125	0.3673636
410.338	0.36685943
410.551	0.36675543
410.764	0.36624219
410.976	0.36538244
411.189	0.36525626
411.402	0.36447428
411.615	0.36470239
411.827	0.36436965
412.04	0.364347
412.253	0.36367615
412.465	0.36282155
412.678	0.36190652
412.891	0.3623441
413.103	0.36040196
413.316	0.35961999
413.529	0.35991924
413.741	0.36020413
413.954	0.36028667
414.166	0.35990204
414.379	0.35905603
414.591	0.35925886
414.804	0.35824553
415.016	0.35697394
415.229	0.35599948
415.441	0.35486007
415.654	0.3546701
415.866	0.35391738
416.079	0.35356151
416.291	0.35290714
416.504	0.35293593
416.716	0.35230492
416.928	0.3519885
417.141	0.3508628
417.353	0.35055986
417.566	0.3490447
417.778	0.34887003
417.99	0.34736266
418.203	0.34642541
418.415	0.34592613
418.627	0.34551694
418.839	0.34470956
419.052	0.34519755
419.264	0.34413139
419.476	0.34391692
419.688	0.34324722
419.901	0.34240497
420.113	0.34149928
420.325	0.34046648
420.537	0.33900502
420.749	0.33875658
420.961	0.33813114
421.174	0.33735273
421.386	0.33600745
421.598	0.33530358
421.81	0.33454538
422.022	0.3338303
422.234	0.33323791
422.446	0.33207914
422.658	0.33106334
422.87	0.33105771
423.082	0.330339
423.294	0.3295281
423.506	0.32883993
423.718	0.32761464
423.93	0.32653022
424.142	0.32558687
424.354	0.32407788
424.566	0.32316501
424.778	0.32234461
424.99	0.32152823
425.202	0.32049298
425.414	0.31990888
425.625	0.3196969
425.837	0.31864958
426.049	0.31807571
426.261	0.31717392
426.473	0.31593936
426.684	0.31523718
426.896	0.3147546
427.108	0.31342489
427.32	0.31308021
427.531	0.31191202
427.743	0.31107515
427.955	0.31079263
428.167	0.30988338
428.378	0.30873835
428.59	0.30793938
428.802	0.30688932
429.013	0.30604523
429.225	0.30487475
429.436	0.30367767
429.648	0.30302972
429.86	0.30217608
430.071	0.30151273
430.283	0.30066922
430.494	0.29967807
430.706	0.29897229
430.917	0.29795632
431.129	0.29712894
431.34	0.29602391
431.552	0.29501677
431.763	0.29409207
431.975	0.29347156
432.186	0.29217039
432.398	0.2913272
432.609	0.28947829
432.821	0.28872284
433.032	0.28759195
433.243	0.28652332
433.455	0.28526489
433.666	0.2846547
433.877	0.28406105
434.089	0.28327452
434.3	0.28179561
434.511	0.28048782
434.723	0.27934821
434.934	0.27801497
435.145	0.2764857
435.356	0.27498827
435.568	0.2738976
435.779	0.2729626
435.99	0.27169291
436.201	0.27080684
436.412	0.26971856
436.624	0.26915299
436.835	0.26818426
437.046	0.26751
437.257	0.26661101
437.468	0.26614567
437.679	0.26520537
437.89	0.26432307
438.101	0.26332357
438.312	0.26252794
438.523	0.2614233
438.734	0.26044587
438.945	0.25938158
439.156	0.25824374
439.367	0.25735611
439.578	0.25649907
439.789	0.25514275
440	0.25431912
440.211	0.25314455
440.422	0.25217595
440.633	0.25121394
440.844	0.24996173
441.055	0.24866143
441.266	0.24788193
441.477	0.24649706
441.687	0.24548231
441.898	0.2445613
442.109	0.24335879
442.32	0.24244546
442.531	0.24119413
442.741	0.23967003
442.952	0.23878809
443.163	0.237794
443.374	0.23643191
443.584	0.23533204
443.795	0.23426973
444.006	0.23356513
444.216	0.23275085
444.427	0.2313482
444.638	0.23022181
444.848	0.22926246
445.059	0.22844939
445.27	0.22728429
445.48	0.2259545
445.691	0.22492377
445.901	0.22427695
446.112	0.22339686
446.323	0.22218875
446.533	0.22103779
446.744	0.220065
446.954	0.21906598
447.165	0.21807312
447.375	0.21709619
447.586	0.21603788
447.796	0.21523222
448.006	0.21433782
448.217	0.21353841
448.427	0.21262782
448.638	0.21140109
448.848	0.2102473
449.058	0.20912561
449.269	0.20815365
449.479	0.20706327
449.689	0.20593346
449.9	0.20492108
450.11	0.20395027
450.32	0.20320439
450.531	0.20231404
450.741	0.20121946
450.951	0.20018756
451.161	0.1992461
451.372	0.19824323
451.582	0.19757724
451.792	0.19640161
452.002	0.19540134
452.212	0.19443705
452.422	0.19366616
452.633	0.1926978
452.843	0.19208414
453.053	0.19090689
453.263	0.19014871
453.473	0.18923729
453.683	0.18858095
453.893	0.18757395
454.103	0.18686728
454.313	0.18592255
454.523	0.18525661
454.733	0.18446
454.943	0.18384702
455.153	0.18307118
455.363	0.18221205
455.573	0.18126354
455.783	0.18046324
455.993	0.17949649
456.203	0.17874498
456.413	0.17787712
456.623	0.17701686
456.833	0.17644724
457.042	0.17572943
457.252	0.17503658
457.462	0.17440908
457.672	0.17370724
457.882	0.1729693
458.091	0.17209922
458.301	0.17118888
458.511	0.17051679
458.721	0.16962761
458.931	0.16895221
459.14	0.16827752
459.35	0.16762126
459.56	0.16705823
459.769	0.16670372
459.979	0.1660079
460.189	0.1654083
460.398	0.16463058
460.608	0.16401928
460.817	0.16336965
461.027	0.16281406
461.237	0.16210979
461.446	0.16154364
461.656	0.16099317
461.865	0.16046116
462.075	0.15989409
462.284	0.15935066
462.494	0.15870476
462.703	0.15804437
462.913	0.15753573
463.122	0.15696206
463.332	0.15645362
463.541	0.15584529
463.751	0.15539827
463.96	0.15482285
464.169	0.15427504
464.379	0.15377334
464.588	0.15330906
464.797	0.15288537
465.007	0.1525892
465.216	0.15222698
465.425	0.15198823
465.635	0.15169603
465.844	0.15140337
466.053	0.15119317
466.263	0.15081117
466.472	0.15027408
466.681	0.14975742
466.89	0.14934045
467.099	0.14900962
467.309	0.14854593
467.518	0.14821565
467.727	0.14796337
467.936	0.14765964
468.145	0.14732505
468.354	0.14703022
468.563	0.14674478
468.772	0.14638039
468.982	0.14594778
469.191	0.14564873
469.4	0.14523511
469.609	0.1449743
469.818	0.1446871
470.027	0.14430336
470.236	0.14405358
470.445	0.1437871
470.654	0.14336178
470.863	0.14311292
471.072	0.14287344
471.28	0.14258146
471.489	0.1423885
471.698	0.14219559
471.907	0.14202079
472.116	0.14198667
472.325	0.14185161
472.534	0.14172095
472.743	0.14149189
472.951	0.14135844
473.16	0.14124569
473.369	0.1410945
473.578	0.14087097
473.786	0.14078967
473.995	0.14063808
474.204	0.14067128
474.413	0.14054317
474.621	0.14049473
474.83	0.1405321
475.039	0.14059235
475.247	0.14058886
475.456	0.14059795
475.665	0.14054159
475.873	0.14050143
476.082	0.14026129
476.291	0.1401698
476.499	0.14015969
476.708	0.14012097
476.916	0.14015469
477.125	0.14016961
477.333	0.1402231
477.542	0.14052316
477.75	0.14045728
477.959	0.14042073
478.167	0.14049738
478.376	0.14059422
478.584	0.14064902
478.793	0.14073982
479.001	0.14075545
479.209	0.14090474
479.418	0.14102989
479.626	0.14114561
479.834	0.14120019
480.043	0.14133088
480.251	0.1415528
480.459	0.14166733
480.668	0.14192599
480.876	0.14211176
481.084	0.14225835
481.293	0.1424677
481.501	0.14267024
481.709	0.14283925
481.917	0.14299753
482.125	0.14323125
482.334	0.1433803
482.542	0.14363745
482.75	0.14391231
482.958	0.1442233
483.166	0.14446463
483.374	0.1448393
483.583	0.14506389
483.791	0.1453799
483.999	0.14567283
484.207	0.14595153
484.415	0.14614974
484.623	0.14641015
484.831	0.1466494
485.039	0.14693287
485.247	0.1472527
485.455	0.14744701
485.663	0.1476462
485.871	0.14798917
486.079	0.14827097
486.287	0.14858258
486.495	0.1488989
486.702	0.14917384
486.91	0.14956964
487.118	0.15001575
487.326	0.15036476
487.534	0.15080243
487.742	0.15124837
487.95	0.15159801
488.157	0.15205193
488.365	0.15253013
488.573	0.15299536
488.781	0.15357133
488.988	0.15404379
489.196	0.15448723
489.404	0.15499949
489.612	0.15549477
489.819	0.156015
490.027	0.15642595
490.235	0.15677063
490.442	0.15723828
490.65	0.15761195
490.857	0.15818896
491.065	0.15870826
491.273	0.15923982
491.48	0.15979499
491.688	0.16036294
491.895	0.16096867
492.103	0.1616254
492.31	0.16208543
492.518	0.16254999
492.725	0.16297804
492.933	0.1634306
493.14	0.1638967
493.348	0.16437951
493.555	0.16487314
493.763	0.16536386
493.97	0.1659937
494.177	0.16664381
494.385	0.16732675
494.592	0.16800276
494.8	0.16855512
495.007	0.16924831
495.214	0.16986514
495.422	0.17056327
495.629	0.17115011
495.836	0.17177243
496.043	0.17245415
496.251	0.17323001
496.458	0.173846
496.665	0.1744997
496.872	0.17509811
497.08	0.17576525
497.287	0.176403
497.494	0.17706841
497.701	0.17767658
497.908	0.17836403
498.115	0.17906347
498.322	0.1797089
498.53	0.18039572
498.737	0.18111289
498.944	0.18176743
499.151	0.18241668
499.358	0.18312973
499.565	0.18394741
499.772	0.18480971
499.979	0.18567463
500.186	0.18650494
500.393	0.1872662
500.6	0.18806083
500.807	0.18888346
501.014	0.18963541
501.221	0.19037436
501.427	0.19106783
501.634	0.1917868
501.841	0.19261832
502.048	0.19340282
502.255	0.19404834
502.462	0.19474923
502.669	0.1954482
502.875	0.19621808
503.082	0.19696329
503.289	0.19766883
503.496	0.19845747
503.702	0.19935421
503.909	0.20020705
504.116	0.20112036
504.323	0.2019266
504.529	0.20278139
504.736	0.20361134
504.943	0.20446985
505.149	0.20538933
505.356	0.20629204
505.563	0.207135
505.769	0.20802288
505.976	0.20882777
506.182	0.20975873
506.389	0.21066137
506.595	0.21150938
506.802	0.21234617
507.008	0.21322264
507.215	0.21411056
507.421	0.21516549
507.628	0.21603119
507.834	0.2168948
508.041	0.21776934
508.247	0.21865769
508.454	0.21955115
508.66	0.22036485
508.866	0.22104154
509.073	0.22198255
509.279	0.22289035
509.486	0.223647
509.692	0.22449908
509.898	0.22533997
510.105	0.22630519
510.311	0.22730658
510.517	0.22822761
510.723	0.22912791
510.93	0.23005902
511.136	0.23105778
511.342	0.23205197
511.548	0.23295165
511.754	0.23389066
511.961	0.23478412
512.167	0.23570477
512.373	0.23666806
512.579	0.23754427
512.785	0.23846572
512.991	0.23947805
513.197	0.24046626
513.404	0.24146839
513.61	0.24244574
513.816	0.24337642
514.022	0.24429836
514.228	0.24524707
514.434	0.24613198
514.64	0.24704172
514.846	0.24801453
515.052	0.2489026
515.258	0.24987452
515.464	0.25091282
515.669	0.25188323
515.875	0.25287171
516.081	0.25387031
516.287	0.25486276
516.493	0.25600384
516.699	0.25705157
516.905	0.25800893
517.111	0.25893258
517.316	0.25989831
517.522	0.26082074
517.728	0.26174761
517.934	0.26268516
518.139	0.26363941
518.345	0.26463345
518.551	0.26568694
518.757	0.26659055
518.962	0.2675516
519.168	0.2685091
519.374	0.26944029
519.579	0.27042224
519.785	0.27148121
519.991	0.27249647
520.196	0.2736171
520.402	0.27467082
520.607	0.2757381
520.813	0.27682367
521.018	0.27780474
521.224	0.27866211
521.429	0.27966622
521.635	0.28060918
521.84	0.28145573
522.046	0.28236964
522.251	0.28319541
522.457	0.28416997
522.662	0.28520577
522.868	0.28615102
523.073	0.2871398
523.279	0.2882558
523.484	0.28926852
523.689	0.29031899
523.895	0.29134807
524.1	0.29233055
524.305	0.29329001
524.511	0.29430204
524.716	0.29533776
524.921	0.29635951
525.126	0.29736056
525.332	0.29836908
525.537	0.29939566
525.742	0.30042022
525.947	0.30141027
526.153	0.3022806
526.358	0.30319586
526.563	0.30411057
526.768	0.30500506
526.973	0.30598255
527.178	0.30697541
527.383	0.30796328
527.588	0.30891479
527.794	0.30982308
527.999	0.31084829
528.204	0.3118214
528.409	0.31271621
528.614	0.31373873
528.819	0.31465174
529.024	0.31558807
529.229	0.31655905
529.434	0.31754825
529.639	0.31851796
529.843	0.31944006
530.048	0.32026254
530.253	0.32111767
530.458	0.32211303
530.663	0.32308159
530.868	0.32394453
531.073	0.32479491
531.278	0.32566001
531.482	0.32653468
531.687	0.327485
531.892	0.32835579
532.097	0.32916628
532.302	0.33008772
532.506	0.33100649
532.711	0.33197848
532.916	0.332967
533.12	0.3339574
533.325	0.33495171
533.53	0.33596699
533.734	0.33687019
533.939	0.33779573
534.144	0.33872665
534.348	0.33965491
534.553	0.34054197
534.757	0.34144241
534.962	0.34234824
535.167	0.34330147
535.371	0.34414709
535.576	0.34507811
535.78	0.34590319
535.985	0.34677834
536.189	0.34758272
536.394	0.34841056
536.598	0.34927741
536.803	0.35019191
537.007	0.35096299
537.211	0.35181879
537.416	0.35260164
537.62	0.35340739
537.825	0.35424888
538.029	0.35512951
538.233	0.35600854
538.438	0.35696645
538.642	0.35778989
538.846	0.35873885
539.05	0.35961782
539.255	0.36046885
539.459	0.36129065
539.663	0.36209442
539.867	0.36283138
540.072	0.36364498
540.276	0.3644065
540.48	0.365328
540.684	0.36618985
540.888	0.36709355
541.092	0.36790143
541.297	0.3687947
541.501	0.36966465
541.705	0.37056754
541.909	0.37129047
542.113	0.37197064
542.317	0.3727349
542.521	0.37353635
542.725	0.3742943
542.929	0.37508064
543.133	0.37576167
543.337	0.3765828
543.541	0.37740576
543.745	0.37799643
543.949	0.37874264
544.153	0.37931376
544.357	0.37998438
544.56	0.38073762
544.764	0.38145207
544.968	0.38221759
545.172	0.38293587
545.376	0.3837188
545.58	0.38462147
545.783	0.38543603
545.987	0.3861267
546.191	0.3868339
546.395	0.38755336
546.598	0.38845994
546.802	0.38917103
547.006	0.38982567
547.21	0.39036985
547.413	0.39109048
547.617	0.39178511
547.821	0.39249164
548.024	0.39318727
548.228	0.39386588
548.431	0.3946271
548.635	0.39544528
548.839	0.3960699
549.042	0.39672886
549.246	0.39729942
549.449	0.39791077
549.653	0.39853472
549.856	0.39916176
550.06	0.39970916
550.263	0.40037768
550.467	0.40109872
550.67	0.40177342
550.874	0.40235183
551.077	0.40300019
551.28	0.40368857
551.484	0.40438339
551.687	0.40503278
551.891	0.40567518
552.094	0.40636259
552.297	0.40709364
552.501	0.40778568
552.704	0.40836981
552.907	0.40898315
553.11	0.40957908
553.314	0.41010194
553.517	0.41049689
553.72	0.41095818
553.923	0.41155579
554.127	0.41214853
554.33	0.41264152
554.533	0.41318787
554.736	0.41360902
554.939	0.41415852
555.142	0.41467286
555.345	0.41506125
555.549	0.41557045
555.752	0.41607274
555.955	0.41659317
556.158	0.41726115
556.361	0.41785651
556.564	0.41845081
556.767	0.41906254
556.97	0.419557
557.173	0.42015273
557.376	0.42072135
557.579	0.42120134
557.782	0.42182408
557.984	0.42240792
558.187	0.42297564
558.39	0.42346466
558.593	0.42403279
558.796	0.4245057
558.999	0.42489127
559.202	0.42536434
559.404	0.42566199
559.607	0.42606113
559.81	0.4265461
560.013	0.42690216
560.216	0.42741139
560.418	0.42801745
560.621	0.42846122
560.824	0.42907016
561.026	0.42953675
561.229	0.42995757
561.432	0.43045067
561.634	0.43080273
561.837	0.43118741
562.04	0.43152667
562.242	0.43189543
562.445	0.43221758
562.647	0.43263424
562.85	0.43291848
563.053	0.43330037
563.255	0.43367099
563.458	0.43406344
563.66	0.43438919
563.863	0.43480914
564.065	0.43512126
564.268	0.43556782
564.47	0.43596933
564.672	0.43629455
564.875	0.43664594
565.077	0.43700085
565.28	0.43730397
565.482	0.43774034
565.684	0.43806467
565.887	0.43835585
566.089	0.43871997
566.291	0.4390873
566.494	0.4394149
566.696	0.43973951
566.898	0.44004638
567.1	0.44040061
567.303	0.44079407
567.505	0.44108033
567.707	0.44130896
567.909	0.44158923
568.111	0.44194055
568.314	0.44218809
568.516	0.4424529
568.718	0.44265867
568.92	0.44297151
569.122	0.44328706
569.324	0.44354077
569.526	0.44366877
569.728	0.44393766
569.93	0.44416046
570.132	0.44442775
570.334	0.44465743
570.536	0.44479852
570.738	0.44497068
570.94	0.4451892
571.142	0.44538292
571.344	0.4454624
571.546	0.44552025
571.748	0.44571371
571.95	0.4459172
572.152	0.44619047
572.354	0.4465495
572.555	0.44689805
572.757	0.44738735
572.959	0.44772081
573.161	0.44788003
573.363	0.44807723
573.564	0.44823621
573.766	0.44820687
573.968	0.44820114
574.17	0.44804326
574.371	0.44813274
574.573	0.44828267
574.775	0.44837299
574.976	0.44846611
575.178	0.44861135
575.38	0.44866147
575.581	0.44871427
575.783	0.44881691
575.985	0.44886876
576.186	0.44898134
576.388	0.44904481
576.589	0.44907589
576.791	0.44921898
576.992	0.4493786
577.194	0.44943348
577.395	0.44946234
577.597	0.44953575
577.798	0.44959883
578	0.44971695
578.201	0.44982764
578.402	0.44988426
578.604	0.44977664
578.805	0.44982154
579.007	0.44989003
579.208	0.44996809
579.409	0.44997761
579.611	0.44985162
579.812	0.4499294
580.013	0.45010643
580.215	0.45007416
580.416	0.45003947
580.617	0.45002463
580.818	0.45010693
581.019	0.45019405
581.221	0.4502491
581.422	0.45028411
581.623	0.45042782
581.824	0.45040048
582.025	0.45039048
582.226	0.4503872
582.428	0.45034
582.629	0.4502169
582.83	0.45017032
583.031	0.4499653
583.232	0.44993025
583.433	0.44990112
583.634	0.44970977
583.835	0.44963502
584.036	0.44943756
584.237	0.44917335
584.438	0.44905758
584.639	0.44881979
584.84	0.44863435
585.041	0.44847521
585.242	0.44828053
585.442	0.44814649
585.643	0.44813998
585.844	0.44804505
586.045	0.44800263
586.246	0.4478078
586.447	0.44772857
586.647	0.44755551
586.848	0.44738433
587.049	0.44712258
587.25	0.44688025
587.45	0.44669499
587.651	0.44663391
587.852	0.44636092
588.053	0.44634801
588.253	0.44625194
588.454	0.44609508
588.655	0.44595378
588.855	0.44572921
589.056	0.44552313
589.256	0.44546828
589.457	0.44520948
589.658	0.44504693
589.858	0.44479979
590.059	0.44469644
590.259	0.44460254
590.46	0.44437183
590.66	0.44410825
590.861	0.44390123
591.061	0.44357446
591.262	0.44340301
591.462	0.44302851
591.662	0.44265757
591.863	0.44231226
592.063	0.44204943
592.264	0.44173691
592.464	0.44151728
592.664	0.44125212
592.865	0.44113067
593.065	0.44079305
593.265	0.44061846
593.465	0.44028718
593.666	0.4399796
593.866	0.43969331
594.066	0.43947055
594.266	0.43907676
594.467	0.43871567
594.667	0.43825518
594.867	0.43794033
595.067	0.43761819
595.267	0.43717333
595.467	0.43669944
595.668	0.43625527
595.868	0.43600794
596.068	0.43570136
596.268	0.43526461
596.468	0.43491301
596.668	0.43467384
596.868	0.43431306
597.068	0.43406149
597.268	0.43382204
597.468	0.43349536
597.668	0.43318144
597.868	0.43280987
598.068	0.43239693
598.268	0.43207826
598.467	0.43170739
598.667	0.43114867
598.867	0.43064715
599.067	0.43028438
599.267	0.42991031
599.467	0.42944633
599.667	0.42893999
599.866	0.42844672
600.066	0.42809344
600.266	0.42771684
600.466	0.42726579
600.665	0.42682912
600.865	0.42637021
601.065	0.42605835
601.264	0.42565744
601.464	0.4252174
601.664	0.42479945
601.863	0.42425127
602.063	0.42375987
602.263	0.42317821
602.462	0.42267165
602.662	0.4221999
602.861	0.42169557
603.061	0.4212109
603.26	0.42077639
603.46	0.42029505
603.659	0.41998915
603.859	0.41953143
604.058	0.41904087
604.258	0.41865484
604.457	0.41827577
604.657	0.41779128
604.856	0.41716803
605.056	0.41665288
605.255	0.41608005
605.454	0.41559443
605.654	0.41495671
605.853	0.41437986
606.052	0.41384373
606.252	0.41346943
606.451	0.41305834
606.65	0.41266578
606.849	0.41205816
607.049	0.41156568
607.248	0.41096461
607.447	0.41044155
607.646	0.40998451
607.845	0.40939847
608.045	0.40873907
608.244	0.40826983
608.443	0.40766464
608.642	0.40717227
608.841	0.40652994
609.04	0.40584006
609.239	0.40517845
609.438	0.40460417
609.637	0.40408475
609.836	0.40360581
610.035	0.40306092
610.234	0.40258575
610.433	0.40203079
610.632	0.40146393
610.831	0.4009433
611.03	0.40025953
611.229	0.39972107
611.428	0.39917297
611.627	0.39860541
611.826	0.39811684
612.025	0.39770335
612.224	0.39699473
612.422	0.39642781
612.621	0.39571354
612.82	0.39513702
613.019	0.39452223
613.218	0.39392333
613.416	0.39316764
613.615	0.39271269
613.814	0.39214552
614.012	0.39161277
614.211	0.39091024
614.41	0.3903392
614.608	0.38967147
614.807	0.3889722
615.006	0.38829019
615.204	0.38757591
615.403	0.3870563
615.602	0.38649661
615.8	0.38596411
615.999	0.38530039
616.197	0.38486661
616.396	0.38431047
616.594	0.38370688
616.793	0.38302916
616.991	0.38236903
617.19	0.38158898
617.388	0.38107442
617.586	0.38038268
617.785	0.37968033
617.983	0.37903956
618.182	0.37833802
618.38	0.37763158
618.578	0.37702652
618.777	0.3763278
618.975	0.3757529
619.173	0.37518521
619.372	0.37462788
619.57	0.37403752
619.768	0.3735522
619.966	0.37287451
620.165	0.37214181
620.363	0.37145162
620.561	0.37065084
620.759	0.36998252
620.957	0.36933418
621.155	0.36858788
621.354	0.36789374
621.552	0.36744551
621.75	0.36674521
621.948	0.36617618
622.146	0.36549153
622.344	0.36476606
622.542	0.36414403
622.74	0.36351908
622.938	0.36262991
623.136	0.361945
623.334	0.36135636
623.532	0.36064683
623.73	0.36004906
623.928	0.35946156
624.126	0.35880775
624.324	0.35822219
624.522	0.35746348
624.719	0.35662845
624.917	0.35600448
625.115	0.35516924
625.313	0.35447426
625.511	0.35387286
625.708	0.35310949
625.906	0.35240147
626.104	0.35176942
626.302	0.35109424
626.499	0.35049818
626.697	0.34965609
626.895	0.34870895
627.093	0.34796339
627.29	0.34732922
627.488	0.34651327
627.686	0.34573002
627.883	0.34476629
628.081	0.3438903
628.278	0.34331585
628.476	0.34258629
628.673	0.34191066
628.871	0.34130814
629.068	0.34064223
629.266	0.34007494
629.463	0.33937216
629.661	0.33857758
629.858	0.33785105
630.056	0.33703012
630.253	0.33626322
630.451	0.33550951
630.648	0.33469832
630.845	0.33400505
631.043	0.33327407
631.24	0.3326928
631.438	0.3320511
631.635	0.33133156
631.832	0.33050552
632.029	0.32988476
632.227	0.3291023
632.424	0.3283681
632.621	0.32749503
632.818	0.32665373
633.016	0.3259058
633.213	0.32521359
633.41	0.32445785
633.607	0.32382854
633.804	0.32317806
634.001	0.32243452
634.199	0.32180096
634.396	0.32106216
634.593	0.32022004
634.79	0.31957532
634.987	0.31878139
635.184	0.31799855
635.381	0.31737322
635.578	0.31667041
635.775	0.31583532
635.972	0.31520757
636.169	0.31434717
636.366	0.31369299
636.563	0.31299153
636.76	0.31215693
636.957	0.31142362
637.153	0.31078348
637.35	0.31010527
637.547	0.30946871
637.744	0.30867488
637.941	0.3079668
638.138	0.30730752
638.334	0.30650566
638.531	0.30583948
638.728	0.30517337
638.925	0.30456008
639.121	0.30392026
639.318	0.30314771
639.515	0.30231795
639.711	0.30162248
639.908	0.30076726
640.105	0.29990353
640.301	0.29900815
640.498	0.29821331
640.695	0.2975344
640.891	0.29680538
641.088	0.29611051
641.284	0.2954676
641.481	0.2948896
641.677	0.29421922
641.874	0.29343757
642.07	0.29278683
642.267	0.29220234
642.463	0.29144305
642.66	0.29078535
642.856	0.28996809
643.053	0.28918856
643.249	0.28854861
643.445	0.2877753
643.642	0.28699361
643.838	0.28630978
644.034	0.2855126
644.231	0.28469245
644.427	0.28400717
644.623	0.28325195
644.82	0.28251662
645.016	0.28171735
645.212	0.28086609
645.408	0.28017013
645.604	0.27960155
645.801	0.27886915
645.997	0.27803042
646.193	0.27730636
646.389	0.27676873
646.585	0.27618802
646.781	0.27550478
646.977	0.2748303
647.173	0.27417254
647.37	0.27360578
647.566	0.27289455
647.762	0.27219117
647.958	0.27152761
648.154	0.27078053
648.35	0.27001479
648.546	0.26924512
648.742	0.26862448
648.937	0.26784703
649.133	0.26711438
649.329	0.26641151
649.525	0.26569583
649.721	0.26499192
649.917	0.26439691
650.113	0.26357381
650.309	0.26300435
650.504	0.26222489
650.7	0.26142151
650.896	0.26073215
651.092	0.26010403
651.287	0.25937758
651.483	0.25877194
651.679	0.25809794
651.875	0.25762534
652.07	0.25709822
652.266	0.25648237
652.462	0.25584076
652.657	0.25522664
652.853	0.25460701
653.048	0.25398727
653.244	0.2532449
653.44	0.25261918
653.635	0.2518865
653.831	0.25123467
654.026	0.2506604
654.222	0.24994617
654.417	0.24929638
654.613	0.2485302
654.808	0.24762761
655.004	0.24689203
655.199	0.24607826
655.394	0.24523903
655.59	0.24459011
655.785	0.24374522
655.98	0.24309229
656.176	0.24252444
656.371	0.2420896
656.566	0.24155274
656.762	0.24091662
656.957	0.24029856
657.152	0.23979593
657.348	0.2392263
657.543	0.23870496
657.738	0.23801577
657.933	0.2373945
658.128	0.23678392
658.324	0.23615185
658.519	0.23554878
658.714	0.2349054
658.909	0.23419422
659.104	0.2335774
659.299	0.23286458
659.494	0.23218054
659.689	0.23147148
659.884	0.23072957
660.079	0.23001392
660.274	0.22929121
660.469	0.22852237
660.664	0.22787664
660.859	0.22726406
661.054	0.22669255
661.249	0.22607171
661.444	0.22548032
661.639	0.22485224
661.834	0.22427906
662.029	0.22367823
662.224	0.22311771
662.418	0.22249406
662.613	0.2218794
662.808	0.22116776
663.003	0.22060565
663.198	0.2199476
663.392	0.21922535
663.587	0.21865379
663.782	0.2179135
663.977	0.21727212
664.171	0.2167205
664.366	0.2161068
664.561	0.21555451
664.755	0.21505833
664.95	0.21441153
665.144	0.21393499
665.339	0.21353693
665.534	0.21309334
665.728	0.21258246
665.923	0.2120226
666.117	0.21141148
666.312	0.21068614
666.506	0.21002483
666.701	0.2091901
666.895	0.20841912
667.09	0.20765391
667.284	0.20706206
667.479	0.20643083
667.673	0.20591057
667.867	0.20534185
668.062	0.20487601
668.256	0.20443065
668.45	0.20414817
668.645	0.20359713
668.839	0.20314587
669.033	0.20261911
669.228	0.20210218
669.422	0.20159021
669.616	0.20105377
669.81	0.20044877
670.004	0.20000166
670.199	0.19960214
670.393	0.19917573
670.587	0.19868624
670.781	0.19810531
670.975	0.1975167
671.169	0.19683557
671.363	0.1960708
671.558	0.19535538
671.752	0.1947216
671.946	0.19420281
672.14	0.19370712
672.334	0.19305428
672.528	0.19254067
672.722	0.19199523
672.916	0.19148316
673.11	0.19089929
673.304	0.1903488
673.497	0.18967121
673.691	0.18919351
673.885	0.18862017
674.079	0.18818208
674.273	0.18756972
674.467	0.18704814
674.661	0.18646396
674.854	0.1859958
675.048	0.18555074
675.242	0.18513813
675.436	0.18466479
675.629	0.18421984
675.823	0.18369667
676.017	0.18326688
676.211	0.18279312
676.404	0.18224374
676.598	0.18166476
676.792	0.18115681
676.985	0.18063865
677.179	0.18014891
677.372	0.17958218
677.566	0.17900082
677.76	0.17844713
677.953	0.17792
678.147	0.17738212
678.34	0.17695324
678.534	0.17653833
678.727	0.17612278
678.921	0.1758228
679.114	0.17548452
679.307	0.17517756
679.501	0.17479513
679.694	0.17433571
679.888	0.1738306
680.081	0.17337491
680.274	0.1728042
680.468	0.17228946
680.661	0.17171991
680.854	0.17129237
681.048	0.17079909
681.241	0.170316
681.434	0.1698189
681.627	0.16933595
681.821	0.1688224
682.014	0.16838039
682.207	0.16776662
682.4	0.16725977
682.593	0.16682267
682.786	0.16633469
682.98	0.16586623
683.173	0.16549872
683.366	0.16505127
683.559	0.16471844
683.752	0.16436069
683.945	0.16394849
684.138	0.16355273
684.331	0.16313595
684.524	0.16267959
684.717	0.16220127
684.91	0.16174263
685.103	0.16126921
685.296	0.16070808
685.489	0.16014721
685.682	0.15966041
685.874	0.15912311
686.067	0.15859758
686.26	0.15812579
686.453	0.15768704
686.646	0.15734628
686.839	0.15711404
687.031	0.15681468
687.224	0.15651908
687.417	0.15640922
687.61	0.15610972
687.802	0.15577604
687.995	0.15545223
688.188	0.15511593
688.38	0.15480594
688.573	0.15452815
688.766	0.15415282
688.958	0.15377009
689.151	0.15341117
689.343	0.15311491
689.536	0.15269068
689.729	0.15220035
689.921	0.15176868
690.114	0.15122193
690.306	0.15082917
690.499	0.15049377
690.691	0.15016094
690.884	0.14981586
691.076	0.1495274
691.268	0.14914195
691.461	0.14879971
691.653	0.14845794
691.846	0.14811428
692.038	0.14768652
692.23	0.14725021
692.423	0.14687679
692.615	0.14659603
692.807	0.14634564
692.999	0.14604858
693.192	0.14572416
693.384	0.14545429
693.576	0.14526177
693.768	0.14505534
693.961	0.14475421
694.153	0.14449852
694.345	0.1443437
694.537	0.14414209
694.729	0.14399568
694.921	0.14373462
695.113	0.14343818
695.305	0.14309769
695.498	0.1426757
695.69	0.1422189
695.882	0.14171936
696.074	0.14117527
696.266	0.14073306
696.458	0.14038748
696.65	0.14016439
696.842	0.14006604
697.033	0.13992254
697.225	0.13974703
697.417	0.13958598
697.609	0.13936347
697.801	0.1390511
697.993	0.13867522
698.185	0.13816827
698.376	0.13764984
698.568	0.13725057
698.76	0.13687235
698.952	0.13659974
699.144	0.13635364
699.335	0.13613647
699.527	0.13595289
699.719	0.13581633
699.91	0.13567932
700.102	0.13542462
700.294	0.13521272
700.485	0.13498724
700.677	0.13474079
700.869	0.13458754
701.06	0.13443331
701.252	0.13422727
701.443	0.13411189
701.635	0.13392195
701.826	0.13370953
702.018	0.13351096
702.209	0.13328514
702.401	0.13301771
702.592	0.13284713
702.784	0.13267625
702.975	0.13251868
703.166	0.13240175
703.358	0.13221211
703.549	0.13201391
703.741	0.13180171
703.932	0.13147468
704.123	0.13119989
704.315	0.13093608
704.506	0.13071769
704.697	0.13048935
704.888	0.13036101
705.08	0.13018709
705.271	0.13009634
705.462	0.12992065
705.653	0.12965836
705.844	0.12932516
706.035	0.12914878
706.227	0.12884551
706.418	0.12860882
706.609	0.12831249
706.8	0.1280291
706.991	0.12782402
707.182	0.12777126
707.373	0.1276037
707.564	0.12750437
707.755	0.12739378
707.946	0.12733018
708.137	0.12721658
708.328	0.12706198
708.519	0.12677511
708.71	0.126495
708.901	0.12618288
709.092	0.12599564
709.283	0.12577707
709.473	0.12566018
709.664	0.12558496
709.855	0.12550333
710.046	0.12548722
710.237	0.1253573
710.427	0.12507145
710.618	0.12484638
710.809	0.12460969
711	0.1243417
711.19	0.12410229
711.381	0.1238954
711.572	0.12368484
711.762	0.12354243
711.953	0.12338912
712.144	0.12321954
712.334	0.12307904
712.525	0.12295224
712.715	0.12272158
712.906	0.1225184
713.097	0.12231787
713.287	0.12213142
713.478	0.12205214
713.668	0.12200031
713.859	0.12197038
714.049	0.12201893
714.239	0.12213251
714.43	0.12215356
714.62	0.12215032
714.811	0.12204533
715.001	0.12187635
715.191	0.12171279
715.382	0.12157808
715.572	0.12154035
715.762	0.12157478
715.953	0.12165295
716.143	0.12172896
716.333	0.12180418
716.523	0.12186937
716.714	0.12180977
716.904	0.12163868
717.094	0.12153265
717.284	0.1212991
717.474	0.12108353
717.664	0.12101538
717.855	0.1209548
718.045	0.12094706
718.235	0.12098899
718.425	0.1210218
718.615	0.12113062
718.805	0.12123433
718.995	0.12126147
719.185	0.12126356
719.375	0.12125962
719.565	0.12128177
719.755	0.12121948
719.945	0.12116505
720.135	0.12111212
720.325	0.12103914
720.515	0.12102536
720.704	0.12100424
720.894	0.12092722
721.084	0.1208423
721.274	0.12079078
721.464	0.12070811
721.654	0.12070264
721.843	0.12065594
722.033	0.12069671
722.223	0.12074961
722.413	0.120906
722.602	0.12094484
722.792	0.120943
722.982	0.12089651
723.171	0.12084732
723.361	0.120743
723.55	0.12071897
723.74	0.12061123
723.93	0.12056236
724.119	0.1206172
724.309	0.12066054
724.498	0.12064291
724.688	0.12067971
724.877	0.12061728
725.067	0.12055885
725.256	0.12054936
725.446	0.12062193
725.635	0.12064684
725.825	0.1207846
726.014	0.12086651
726.203	0.12088253
726.393	0.12089304
726.582	0.12092048
726.771	0.1208937
726.961	0.12090555
727.15	0.12089804
727.339	0.12083433
727.529	0.12091137
727.718	0.12095703
727.907	0.12089799
728.096	0.1207909
728.286	0.12058824
728.475	0.12045595
728.664	0.12037477
728.853	0.1202999
729.042	0.1202743
729.231	0.12033402
729.42	0.12038989
729.609	0.12045701
729.799	0.12041007
729.988	0.12039973
730.177	0.12029518
730.366	0.12015691
730.555	0.12002672
730.744	0.11986318
730.933	0.11974717
731.122	0.11970703
731.31	0.11969565
731.499	0.11974634
731.688	0.1198452
731.877	0.11994459
732.066	0.12018907
732.255	0.12052666
732.444	0.12079096
732.632	0.12103836
732.821	0.12128969
733.01	0.12151581
733.199	0.12168492
733.388	0.1217118
733.576	0.12164475
733.765	0.12160124
733.954	0.12148942
734.142	0.12135583
734.331	0.1212691
734.52	0.12121983
734.708	0.12121934
734.897	0.12128985
735.086	0.12137849
735.274	0.12149243
735.463	0.12163507
735.651	0.12176245
735.84	0.12199363
736.028	0.12218805
736.217	0.12232117
736.405	0.12237388
736.594	0.12251496
736.782	0.1226457
736.971	0.12272462
737.159	0.12272172
737.347	0.12272989
737.536	0.12269323
737.724	0.12274806
737.912	0.1227335
738.101	0.1228379
738.289	0.12294892
738.477	0.12309437
738.666	0.12314778
738.854	0.12324096
739.042	0.12330865
739.23	0.12334319
739.418	0.1233193
739.607	0.12335405
739.795	0.1233453
739.983	0.12344925
740.171	0.1235845
740.359	0.12377643
740.547	0.12408174
740.735	0.12428144
740.923	0.12443929
741.112	0.12461957
741.3	0.12484099
741.488	0.12511226
741.676	0.1253155
741.864	0.12538684
742.052	0.12555777
742.239	0.12561176
742.427	0.12562149
742.615	0.12559388
742.803	0.12563706
742.991	0.12565129
743.179	0.12575202
743.367	0.1257577
743.555	0.12593343
743.742	0.1261306
743.93	0.12635723
744.118	0.12643907
744.306	0.12662139
744.494	0.12676829
744.681	0.12697006
744.869	0.12715639
745.057	0.12729222
745.244	0.12739157
745.432	0.1275151
745.62	0.12758787
745.807	0.12773578
745.995	0.1279023
746.182	0.12805197
746.37	0.12821969
746.558	0.12841905
746.745	0.12862609
746.933	0.12885085
747.12	0.12899993
747.308	0.12910939
747.495	0.12918907
747.683	0.12932333
747.87	0.12944014
748.057	0.12957028
748.245	0.12962727
748.432	0.12967223
748.62	0.12978407
748.807	0.12995723
748.994	0.1301013
749.182	0.13020708
749.369	0.13032125
749.556	0.13048773
749.743	0.13073116
749.931	0.13096575
750.118	0.13123199
750.305	0.13142526
750.492	0.13162141
750.68	0.13189953
750.867	0.13224243
751.054	0.1324336
751.241	0.13258219
751.428	0.13260093
751.615	0.13271614
751.802	0.13283955
751.989	0.1328211
752.176	0.13270631
752.363	0.1326962
752.55	0.13266201
752.737	0.13273292
752.924	0.13287796
753.111	0.13312428
753.298	0.13338649
753.485	0.13373413
753.672	0.13398524
753.859	0.13425114
754.046	0.13449211
754.233	0.13463045
754.42	0.13466474
754.606	0.1346834
754.793	0.13462087
754.98	0.13469133
755.167	0.13472551
755.353	0.13485549
755.54	0.1349993
755.727	0.13524628
755.914	0.13545069
756.1	0.13576398
756.287	0.13604294
756.474	0.13629525
756.66	0.13646756
756.847	0.1365702
757.033	0.13657292
757.22	0.13668097
757.407	0.13676336
757.593	0.13685234
757.78	0.1370458
757.966	0.13724759
758.153	0.1374444
758.339	0.13762575
758.526	0.13778447
758.712	0.13786505
758.898	0.13806365
759.085	0.13830274
759.271	0.13848908
759.458	0.13881837
759.644	0.13918613
759.83	0.13953119
760.017	0.13990268
760.203	0.1402517
760.389	0.14045232
760.576	0.14070204
760.762	0.14086406
760.948	0.1409685
761.134	0.14118294
761.32	0.14141314
761.507	0.14155328
761.693	0.14182235
761.879	0.14205894
762.065	0.1423165
762.251	0.14268494
762.437	0.14303426
762.623	0.14333848
762.809	0.14363452
762.995	0.14379204
763.181	0.1440249
763.367	0.14431667
763.553	0.14450066
763.739	0.14453529
763.925	0.14455145
764.111	0.14459206
764.297	0.14480065
764.483	0.1448664
764.669	0.14494912
764.855	0.14507661
765.041	0.14526022
765.227	0.14544084
765.412	0.14560687
765.598	0.14580013
765.784	0.14612952
765.97	0.14636455
766.156	0.14670832
766.341	0.14701497
766.527	0.14730206
766.713	0.1476527
766.898	0.14795451
767.084	0.1480797
767.27	0.14815904
767.455	0.1480464
767.641	0.14808354
767.827	0.14815254
768.012	0.14821151
768.198	0.14820886
768.383	0.1484386
768.569	0.14868132
768.754	0.14908515
768.94	0.14942631
769.125	0.14981241
769.311	0.15010776
769.496	0.15045025
769.682	0.15072248
769.867	0.15103823
770.052	0.15130583
770.238	0.15147537
770.423	0.15170408
770.608	0.15194238
770.794	0.15215192
770.979	0.15231682
771.164	0.15256774
771.35	0.15271232
771.535	0.15291989
771.72	0.15305346
771.905	0.15330561
772.09	0.15343506
772.276	0.15364261
772.461	0.15380343
772.646	0.15402685
772.831	0.15433
773.016	0.1546886
773.201	0.15492133
773.386	0.15535512
773.571	0.15573165
773.756	0.15599669
773.941	0.15626878
774.126	0.15651287
774.311	0.15672798
774.496	0.15696734
774.681	0.15718619
774.866	0.15746315
775.051	0.15775529
775.236	0.15807284
775.421	0.15831986
775.606	0.15856705
775.791	0.15878626
775.976	0.15892504
776.16	0.15896545
776.345	0.15905199
776.53	0.15918169
776.715	0.15931685
776.899	0.15940092
777.084	0.15949203
777.269	0.15966233
777.454	0.15977606
777.638	0.16006398
777.823	0.16026528
778.008	0.16055232
778.192	0.1609006
778.377	0.16114297
778.561	0.16131131
778.746	0.16161175
778.931	0.16167376
779.115	0.16179643
779.3	0.16182812
779.484	0.16194564
779.669	0.16216601
779.853	0.16240715
780.037	0.16256491
780.222	0.1627905
780.406	0.16295055
780.591	0.16313471
780.775	0.16321726
780.959	0.16324934
781.144	0.16330673
781.328	0.16342945
781.512	0.1635732
781.697	0.16378422
781.881	0.16403192
782.065	0.16422209
782.249	0.16441374
782.434	0.16455765
782.618	0.16464771
782.802	0.16477055
782.986	0.16477196
783.17	0.1647153
783.354	0.16473796
783.539	0.16484938
783.723	0.16496242
783.907	0.16509052
784.091	0.16516288
784.275	0.16530741
784.459	0.16543456
784.643	0.16558083
784.827	0.16573109
785.011	0.16578093
785.195	0.16586959
785.379	0.16593885
785.563	0.16605792
785.747	0.16614683
785.93	0.16620444
786.114	0.16611994
786.298	0.16600633
786.482	0.1658971
786.666	0.16586075
786.85	0.16587623
787.033	0.16602583
787.217	0.16614199
787.401	0.16636115
787.585	0.16676814
787.768	0.16712974
787.952	0.16746379
788.136	0.16776662
788.319	0.16799753
788.503	0.16830023
788.687	0.16854322
788.87	0.16868699
789.054	0.168877
789.237	0.1690534
789.421	0.16913382
789.605	0.16923363
789.788	0.16928266
789.972	0.16937382
790.155	0.16957357
790.338	0.16970837
790.522	0.1698471
790.705	0.17009072
790.889	0.1703312
791.072	0.17063316
791.256	0.17092627
791.439	0.17113358
791.622	0.17141199
791.806	0.17179171
791.989	0.17209156
792.172	0.17239534
792.355	0.17258651
792.539	0.17273574
792.722	0.17286687
792.905	0.17298512
793.088	0.17306831
793.271	0.17318398
793.455	0.17329899
793.638	0.17345592
793.821	0.17362694
794.004	0.17385125
794.187	0.17413703
794.37	0.17440419
794.553	0.1745616
794.736	0.17470328
794.919	0.17488562
795.102	0.17503912
795.285	0.17528618
795.468	0.17544933
795.651	0.17564839
795.834	0.17595639
796.017	0.17627911
796.2	0.1766068
796.383	0.17697958
796.566	0.17727501
796.749	0.17754406
796.931	0.17774269
797.114	0.17794258
797.297	0.17811967
797.48	0.17827229
797.663	0.17844176
797.845	0.17863342
798.028	0.17892196
798.211	0.17918401
798.393	0.17957722
798.576	0.17994092
798.759	0.18023979
798.941	0.18066374
799.124	0.18109714
799.307	0.18142897
799.489	0.18177058
799.672	0.18193152
799.854	0.18199909
800.037	0.18215936
800.219	0.18216765
800.402	0.18213689
800.584	0.18214362
800.767	0.1822729
800.949	0.18247293
801.132	0.18282617
801.314	0.18306997
801.496	0.1834431
801.679	0.1837904
801.861	0.18409455
802.043	0.18431124
802.226	0.18446087
802.408	0.18449715
802.59	0.18459789
802.772	0.18457887
802.955	0.18463477
803.137	0.18468379
803.319	0.18462867
803.501	0.1845563
803.684	0.18450432
803.866	0.18448334
804.048	0.18454163
804.23	0.18463279
804.412	0.18479354
804.594	0.18498023
804.776	0.18524873
804.958	0.18556157
805.14	0.18587196
805.322	0.18606606
805.504	0.18620248
805.686	0.18619063
805.868	0.18619417
806.05	0.18627621
806.232	0.18633744
806.414	0.18641073
806.596	0.18654553
806.778	0.18656406
806.96	0.18667455
807.141	0.18679319
807.323	0.18681939
807.505	0.18683328
807.687	0.18687531
807.869	0.18687956
808.05	0.18677515
808.232	0.18666561
808.414	0.18661937
808.595	0.18659566
808.777	0.18647278
808.959	0.18634078
809.14	0.18627219
809.322	0.18646586
809.504	0.18674982
809.685	0.18699042
809.867	0.18714526
810.048	0.18734335
810.23	0.18751979
810.411	0.18766034
810.593	0.18771113
810.774	0.18774166
810.956	0.18774444
811.137	0.18772332
811.319	0.18783096
811.5	0.18789576
811.681	0.18795082
811.863	0.18797132
812.044	0.18805897
812.225	0.188247
812.407	0.18843876
812.588	0.18864067
812.769	0.18884762
812.951	0.18906044
813.132	0.18926344
813.313	0.18935055
813.494	0.18939989
813.675	0.18955601
813.857	0.1896478
814.038	0.18979261
814.219	0.18995975
814.4	0.19023431
814.581	0.19050321
814.762	0.1907045
814.943	0.19086142
815.124	0.19094622
815.305	0.19107487
815.486	0.19120843
815.667	0.19124967
815.848	0.1912881
816.029	0.19139743
816.21	0.19149182
816.391	0.19170599
816.572	0.19175768
816.753	0.19180171
816.934	0.19190526
817.115	0.19197839
817.295	0.19202472
817.476	0.19203903
817.657	0.19208962
817.838	0.19219346
818.019	0.19229935
818.199	0.19230822
818.38	0.19240256
818.561	0.19246267
818.741	0.19258789
818.922	0.19273706
819.103	0.19289455
819.283	0.19308257
819.464	0.19331156
819.645	0.19350848
819.825	0.19372153
820.006	0.19392729
820.186	0.19402739
820.367	0.19416883
820.547	0.19417647
820.728	0.19423661
820.908	0.19430654
821.089	0.19447979
821.269	0.19467723
821.45	0.19502682
821.63	0.19529824
821.81	0.19568462
821.991	0.19606298
822.171	0.19636726
822.351	0.19653619
822.532	0.19671276
822.712	0.19680446
822.892	0.19693017
823.072	0.19707362
823.253	0.19716552
823.433	0.19731122
823.613	0.19751671
823.793	0.19766795
823.973	0.19775917
824.154	0.19778983
824.334	0.19770161
824.514	0.19763687
824.694	0.19764314
824.874	0.19769783
825.054	0.19775006
825.234	0.19779544
825.414	0.19789284
825.594	0.19811807
825.774	0.19831684
825.954	0.19849022
826.134	0.19857245
826.314	0.19863718
826.494	0.19880338
826.674	0.1988788
826.854	0.19887906
827.033	0.19895533
827.213	0.19890624
827.393	0.19881165
827.573	0.19881989
827.753	0.19887945
827.932	0.19903707
828.112	0.1992212
828.292	0.19943955
828.472	0.1996131
828.651	0.19982522
828.831	0.19988875
829.011	0.19986194
829.19	0.1998622
829.37	0.19996281
829.549	0.20008879
829.729	0.20026844
829.909	0.20049202
830.088	0.20087786
830.268	0.20120479
830.447	0.20159748
830.627	0.2018131
830.806	0.20191111
830.986	0.20201605
831.165	0.2022178
831.344	0.20232464
831.524	0.20245277
831.703	0.20245807
831.883	0.20257715
832.062	0.20270078
832.241	0.20286056
832.421	0.20285222
832.6	0.2027783
832.779	0.20281404
832.958	0.20295758
833.138	0.20304737
833.317	0.20329446
833.496	0.20354086
833.675	0.20385904
833.854	0.20417945
834.034	0.20425884
834.213	0.20423042
834.392	0.20420649
834.571	0.20397575
834.75	0.20385623
834.929	0.20379354
835.108	0.2037124
835.287	0.20385651
835.466	0.20399147
835.645	0.2040741
835.824	0.20418709
836.003	0.20421141
836.182	0.20414689
836.361	0.20408359
836.54	0.20397976
836.719	0.20391075
836.897	0.20385153
837.076	0.20393112
837.255	0.20401045
837.434	0.2041775
837.613	0.20428891
837.791	0.20447085
837.97	0.20469418
838.149	0.20483685
838.328	0.20488797
838.506	0.20488943
838.685	0.20477674
838.864	0.20488614
839.042	0.20477806
839.221	0.20476346
839.4	0.20484164
839.578	0.20498628
839.757	0.20520396
839.935	0.20554845
840.114	0.20576659
840.292	0.20609548
840.471	0.2062845
840.649	0.20650019
840.828	0.20651878
841.006	0.20653713
841.185	0.20634358
841.363	0.20634216
841.541	0.20623924
841.72	0.20612864
841.898	0.20597533
842.076	0.20596657
842.255	0.20584899
842.433	0.20591001
842.611	0.20590618
842.789	0.20594784
842.968	0.20607242
843.146	0.20623009
843.324	0.20632556
843.502	0.20655512
843.68	0.20669278
843.859	0.20664086
844.037	0.20659838
844.215	0.20637235
844.393	0.20611301
844.571	0.20596603
844.749	0.2058461
844.927	0.20579535
845.105	0.20571649
845.283	0.20570631
845.461	0.20587468
845.639	0.20603891
845.817	0.20621838
845.995	0.2064307
846.173	0.20659931
846.351	0.20677032
846.529	0.20690395
846.706	0.20692752
846.884	0.20697712
847.062	0.20675025
847.24	0.20644842
847.418	0.20616123
847.595	0.20607716
847.773	0.20602102
847.951	0.20597463
848.129	0.20605282
848.306	0.20625226
848.484	0.20637342
848.662	0.20655106
848.839	0.20668171
849.017	0.20681015
849.194	0.20698222
849.372	0.20692992
849.549	0.2070151
849.727	0.20718571
849.905	0.20727363
850.082	0.20732034
850.26	0.20738529
850.437	0.20741179
850.614	0.20757333
850.792	0.20762563
850.969	0.20768741
851.147	0.20776829
851.324	0.20776497
851.501	0.20765891
851.679	0.20746413
851.856	0.20729902
852.033	0.20713776
852.211	0.20692129
852.388	0.20674051
852.565	0.20688648
852.742	0.20708091
852.92	0.20732498
853.097	0.20764634
853.274	0.20797185
853.451	0.20813397
853.628	0.20824276
853.805	0.20811734
853.982	0.20791032
854.159	0.2077566
854.336	0.20749363
854.514	0.20735253
854.691	0.20724993
854.868	0.20715111
855.045	0.20701729
855.221	0.20690272
855.398	0.20676199
855.575	0.20664611
855.752	0.206535
855.929	0.20649317
856.106	0.20644015
856.283	0.20640144
856.46	0.20648846
856.637	0.20672976
856.813	0.20687348
856.99	0.20686387
857.167	0.20695775
857.344	0.20707109
857.52	0.20725301
857.697	0.20720174
857.874	0.20697858
858.05	0.20686732
858.227	0.20675647
858.404	0.20661241
858.58	0.20649244
858.757	0.20621506
858.933	0.20618579
859.11	0.20603499
859.287	0.20577272
859.463	0.20562216
859.64	0.20550293
859.816	0.20543089
859.993	0.20542824
860.169	0.20535691
860.345	0.20533822
860.522	0.20535417
860.698	0.20529761
860.875	0.20518783
861.051	0.20500517
861.227	0.20493471
861.404	0.20496296
861.58	0.20508834
861.756	0.20537907
861.932	0.20564069
862.109	0.2057619
862.285	0.20594926
862.461	0.2061729
862.637	0.20618005
862.813	0.20625341
862.99	0.20601038
863.166	0.20573531
863.342	0.20574075
863.518	0.20561501
863.694	0.20537417
863.87	0.20515084
864.046	0.20498137
864.222	0.20496942
864.398	0.20492073
864.574	0.20462205
864.75	0.20451558
864.926	0.20453212
865.102	0.20469144
865.278	0.20461486
865.454	0.20457958
865.63	0.20457889
865.805	0.20470961
865.981	0.20481565
866.157	0.20475279
866.333	0.20456858
866.509	0.20468031
866.684	0.20472139
866.86	0.20481423
867.036	0.20478535
867.212	0.20462699
867.387	0.20453218
867.563	0.20451745
867.739	0.2042546
867.914	0.20413593
868.09	0.20392959
868.265	0.20383224
868.441	0.20373795
868.617	0.20372649
868.792	0.20356704
868.968	0.20354549
869.143	0.20350559
869.319	0.2035737
869.494	0.2035087
869.67	0.20356967
869.845	0.20348875
870.02	0.20362712
870.196	0.20379309
870.371	0.20378415
870.546	0.20366199
870.722	0.20383033
870.897	0.20382855
871.072	0.20399357
871.248	0.203899
871.423	0.20372449
871.598	0.2034781
871.773	0.20327722
871.949	0.20291789
872.124	0.20274503
872.299	0.20233523
872.474	0.20200141
872.649	0.20165363
872.824	0.20144701
872.999	0.2012917
873.174	0.20112486
873.349	0.20093091
873.524	0.20079001
873.699	0.20067265
873.874	0.20057084
874.049	0.20050199
874.224	0.20041906
874.399	0.200299
874.574	0.20007792
874.749	0.19981736
874.924	0.19975767
875.099	0.1997242
875.274	0.19965467
875.449	0.19965312
875.623	0.19955885
875.798	0.19942171
875.973	0.19931751
876.148	0.19915176
876.322	0.1988419
876.497	0.19864411
876.672	0.19824424
876.846	0.19810624
877.021	0.19794123
877.196	0.19779224
877.37	0.19770273
877.545	0.19777138
877.72	0.19774205
877.894	0.1978213
878.069	0.1976168
878.243	0.19747804
878.418	0.19746546
878.592	0.19740591
878.767	0.19723955
878.941	0.19708734
879.116	0.19690947
879.29	0.19697326
879.464	0.19714015
879.639	0.19726826
879.813	0.19734971
879.987	0.19732494
880.162	0.19715072
880.336	0.19700228
880.51	0.1968291
880.685	0.19645776
880.859	0.19619347
881.033	0.19591556
881.207	0.19582717
881.381	0.19574313
881.556	0.19573836
881.73	0.19557521
881.904	0.19559137
882.078	0.19532007
882.252	0.1950652
882.426	0.19486962
882.6	0.19476739
882.774	0.19468425
882.948	0.1948418
883.122	0.19475209
883.296	0.19479436
883.47	0.19486004
883.644	0.19475899
883.818	0.1946009
883.992	0.19439951
884.166	0.19406561
884.34	0.19378435
884.514	0.19371055
884.687	0.19348135
884.861	0.19325272
885.035	0.19314939
885.209	0.19318061
885.382	0.19320896
885.556	0.19332786
885.73	0.19338438
885.904	0.19348201
886.077	0.19353762
886.251	0.1936325
886.425	0.1936432
886.598	0.19351103
886.772	0.19340152
886.945	0.19311157
887.119	0.19290026
887.292	0.19275931
887.466	0.19266121
887.64	0.19234933
887.813	0.19223663
887.986	0.19203941
888.16	0.19203094
888.333	0.19195864
888.507	0.19197074
888.68	0.19184675
888.854	0.19187038
889.027	0.19182735
889.2	0.19195949
889.374	0.19180844
889.547	0.19166791
889.72	0.19151016
889.893	0.19126775
890.067	0.19107786
890.24	0.19081511
890.413	0.19049082
890.586	0.19026387
890.759	0.19020743
890.933	0.19012611
891.106	0.19006975
891.279	0.18990182
891.452	0.18978368
891.625	0.18958275
891.798	0.18938372
891.971	0.18911183
892.144	0.18877389
892.317	0.18852248
892.49	0.18822284
892.663	0.18800379
892.836	0.18782336
893.009	0.18755333
893.182	0.18715278
893.355	0.18684726
893.527	0.18652273
893.7	0.18654282
893.873	0.18641216
894.046	0.18630055
894.219	0.18633177
894.391	0.18641589
894.564	0.18648536
894.737	0.18644057
894.91	0.18619183
895.082	0.18586442
895.255	0.18558405
895.428	0.18531995
895.6	0.18506528
895.773	0.18465773
895.945	0.18446442
896.118	0.1841889
896.291	0.18419999
896.463	0.18407799
896.636	0.18387851
896.808	0.18374162
896.981	0.18374254
897.153	0.18354953
897.326	0.18352134
897.498	0.18326265
897.67	0.18314985
897.843	0.18319249
898.015	0.18307813
898.187	0.18282741
898.36	0.18267462
898.532	0.18243785
898.704	0.18236282
898.877	0.18225093
899.049	0.18206
899.221	0.18198676
899.393	0.18206533
899.566	0.18215296
899.738	0.18225066
899.91	0.18225433
900.082	0.18227601
900.254	0.18229555
900.426	0.18225608
900.598	0.18211815
900.77	0.18190535
900.942	0.18168261
901.114	0.18127823
901.286	0.18080605
901.458	0.18039776
901.63	0.18004253
901.802	0.17982161
901.974	0.1796143
902.146	0.17933783
902.318	0.17942596
902.49	0.17935981
902.662	0.17918648
902.834	0.17899148
903.005	0.17877135
903.177	0.17845665
903.349	0.17821242
903.521	0.17772477
903.693	0.177492
903.864	0.17734315
904.036	0.17712243
904.208	0.17692404
904.379	0.17689624
904.551	0.17688491
904.723	0.17678502
904.894	0.17649295
905.066	0.17622794
905.237	0.17591227
905.409	0.1754509
905.58	0.17502152
905.752	0.17464037
905.923	0.17436186
906.095	0.17417794
906.266	0.17393634
906.438	0.17390279
906.609	0.17397531
906.78	0.17387941
906.952	0.17376963
907.123	0.17363458
907.295	0.17353977
907.466	0.17331384
907.637	0.17292337
907.808	0.17248708
907.98	0.172167
908.151	0.17174834
908.322	0.17151738
908.493	0.17118235
908.665	0.17082526
908.836	0.17065193
909.007	0.17054741
909.178	0.1703485
909.349	0.17016559
909.52	0.16991991
909.691	0.16966178
909.862	0.16970228
910.033	0.16963783
910.204	0.16967494
910.375	0.16969999
910.546	0.16975445
910.717	0.1697393
910.888	0.16991539
911.059	0.16986632
911.23	0.16981002
911.401	0.16960754
911.572	0.16961789
911.742	0.16952434
911.913	0.16960435
912.084	0.16960783
912.255	0.1695702
912.426	0.16941822
912.596	0.16928004
912.767	0.16904338
912.938	0.16880315
913.108	0.16856374
913.279	0.16802354
913.45	0.16763596
913.62	0.16750913
913.791	0.16732558
913.962	0.1671426
914.132	0.16707685
914.303	0.16688229
914.473	0.16693631
914.644	0.16684829
914.814	0.16664284
914.985	0.16648254
915.155	0.16614077
915.326	0.16568254
915.496	0.16534415
915.666	0.16503507
915.837	0.16485855
916.007	0.16457203
916.177	0.16414028
916.348	0.16407905
916.518	0.16406304
916.688	0.16378202
916.858	0.1635394
917.029	0.16317359
917.199	0.16289238
917.369	0.16294718
917.539	0.16278565
917.709	0.1625321
917.88	0.16229454
918.05	0.16203249
918.22	0.16196646
918.39	0.16192221
918.56	0.16166244
918.73	0.16148671
918.9	0.16134465
919.07	0.16136634
919.24	0.16137831
919.41	0.16133722
919.58	0.16123466
919.75	0.16124911
919.92	0.16102968
920.09	0.16097847
920.26	0.16081947
920.429	0.1606629
920.599	0.16029719
920.769	0.15999321
920.939	0.15945041
921.109	0.15911239
921.278	0.15868174
921.448	0.15830184
921.618	0.1578898
921.787	0.15766331
921.957	0.15738203
922.127	0.15716741
922.296	0.1572293
922.466	0.15710373
922.636	0.15698715
922.805	0.15685977
922.975	0.15647265
923.144	0.15617675
923.314	0.15587194
923.483	0.15526405
923.653	0.15469644
923.822	0.15420841
923.992	0.15375445
924.161	0.15369882
924.331	0.15334731
924.5	0.15307393
924.669	0.15282399
924.839	0.15279157
925.008	0.1526077
925.177	0.15248053
925.347	0.1522714
925.516	0.15221894
925.685	0.15223783
925.854	0.152228
926.023	0.15222391
926.193	0.15230402
926.362	0.15230778
926.531	0.15205731
926.7	0.15204016
926.869	0.15185605
927.038	0.151499
927.207	0.15122289
927.376	0.15094823
927.545	0.15058243
927.715	0.15035185
927.884	0.1498609
928.052	0.14961123
928.221	0.14935689
928.39	0.14901398
928.559	0.14859207
928.728	0.14831913
928.897	0.14806511
929.066	0.14781223
929.235	0.14757102
929.404	0.14752286
929.572	0.14731901
929.741	0.14714621
929.91	0.14698258
930.079	0.14666885
930.247	0.1465188
930.416	0.14639051
930.585	0.14600262
930.753	0.14584839
930.922	0.14580819
931.091	0.14570729
931.259	0.1457251
931.428	0.1459295
931.596	0.14593726
931.765	0.14632411
931.934	0.14659969
932.102	0.14656062
932.27	0.14661785
932.439	0.14678219
932.607	0.1465561
932.776	0.14648912
932.944	0.14622319
933.113	0.14589728
933.281	0.1457455
933.449	0.14547359
933.618	0.14507811
933.786	0.14495456
933.954	0.14459334
934.123	0.14416403
934.291	0.1440151
934.459	0.1437222
934.627	0.14344852
934.795	0.14321406
934.964	0.14297615
935.132	0.14270223
935.3	0.14251614
935.468	0.14220495
935.636	0.14213855
935.804	0.1419892
935.972	0.14189231
936.14	0.14158917
936.308	0.1414368
936.476	0.14166005
936.644	0.14140357
936.812	0.14134919
936.98	0.14126113
937.148	0.14123836
937.316	0.14113596
937.484	0.14139434
937.652	0.14126553
937.82	0.1414654
937.987	0.14124597
938.155	0.14127164
938.323	0.14137642
938.491	0.14110357
938.658	0.14108155
938.826	0.14063583
938.994	0.14072854
939.162	0.14057681
939.329	0.14057043
939.497	0.140413
939.665	0.14065203
939.832	0.14062124
940	0.14027486
940.167	0.14008287
940.335	0.13945302
940.502	0.13882024
940.67	0.13861601
940.837	0.13857183
941.005	0.13803552
941.172	0.13837087
941.34	0.13799053
941.507	0.1394763
941.674	0.14008368
941.842	0.13975525
942.009	0.14050779
942.177	0.13964318
942.344	0.1402419
942.511	0.14007156
942.678	0.13988674
942.846	0.13952923
943.013	0.1403031
943.18	0.13940861
943.347	0.13996795
943.514	0.13889498
943.682	0.1394703
943.849	0.13832919
944.016	0.13785125
944.183	0.13724802
944.35	0.13667323
944.517	0.13721574
944.684	0.13741554
944.851	0.13554642
945.018	0.13529049
945.185	0.13434421
945.352	0.13301642
945.519	0.13314182
945.686	0.13161519
945.853	0.13191624
946.02	0.13168358
946.187	0.13102893
946.353	0.13222999
946.52	0.13229383
946.687	0.13138946
946.854	0.13186385
947.021	0.13100763
947.187	0.1315802
947.354	0.13090845
947.521	0.12983515
947.687	0.12996449
947.854	0.12969182
948.021	0.1287742
948.187	0.12824369
948.354	0.12809483
948.52	0.12802461
948.687	0.1282157
948.854	0.12763492
949.02	0.12703177
949.187	0.12693138
949.353	0.12682506
949.52	0.12587568
949.686	0.12572053
949.852	0.12592108
950.019	0.12552576
950.185	0.12606795
950.352	0.12578499
950.518	0.124921
950.684	0.12457048
950.851	0.12461809
951.017	0.12355898
951.183	0.12379886
951.349	0.12288065
951.516	0.12203064
951.682	0.12218347
951.848	0.12175826
952.014	0.12094302
952.18	0.1204904
952.346	0.11971355
952.512	0.11905661
952.679	0.11907738
952.845	0.11902845
953.011	0.11892954
953.177	0.11855154
953.343	0.11819787
953.509	0.11839673
953.675	0.11880316
953.841	0.11913934
954.007	0.11890459
954.172	0.11904574
954.338	0.11859333
954.504	0.11781032
954.67	0.11661834
954.836	0.11595712
955.002	0.11511478
955.167	0.11401142
955.333	0.11279253
955.499	0.11262705
955.665	0.11253332
955.83	0.11240474
955.996	0.1120172
956.162	0.11163186
956.327	0.11159227
956.493	0.11159593
956.659	0.11144489
956.824	0.11112536
956.99	0.1106199
957.155	0.11074622
957.321	0.11023426
957.486	0.10978063
957.652	0.1091478
957.817	0.10888886
957.983	0.10853429
958.148	0.10841387
958.314	0.10791461
958.479	0.10778775
958.644	0.10800536
958.81	0.10868991
958.975	0.10843275
959.14	0.10852457
959.306	0.10839417
959.471	0.10837831
959.636	0.10836293
959.801	0.10826084
959.967	0.10787638
960.132	0.10776422
960.297	0.10730851
960.462	0.10743957
960.627	0.10719079
960.792	0.10662306
960.957	0.10631608
961.123	0.10593464
961.288	0.10577684
961.453	0.10558061
961.618	0.10510122
961.783	0.10515266
961.948	0.10526922
962.113	0.10498225
962.277	0.10469262
962.442	0.10441543
962.607	0.10465181
962.772	0.10455675
962.937	0.10386351
963.102	0.1033886
963.267	0.10324427
963.431	0.10332427
963.596	0.10330676
963.761	0.10300733
963.926	0.10272504
964.09	0.10285133
964.255	0.10298721
964.42	0.102753
964.584	0.10255452
964.749	0.10216445
964.914	0.10172341
965.078	0.10154463
965.243	0.10124955
965.407	0.10116022
965.572	0.10118751
965.736	0.1010148
965.901	0.10134605
966.065	0.10183102
966.23	0.10205449
966.394	0.10211312
966.559	0.10181855
966.723	0.10170364
966.887	0.10185334
967.052	0.10120749
967.216	0.10057639
967.38	0.0998733
967.545	0.09981358
967.709	0.09987394
967.873	0.0996227
968.037	0.09919345
968.202	0.09941508
968.366	0.09942136
968.53	0.09963949
968.694	0.09919695
968.858	0.0991879
969.022	0.09888046
969.187	0.09861592
969.351	0.09842523
969.515	0.09808507
969.679	0.0980681
969.843	0.09805032
970.007	0.09772023
970.171	0.09764123
970.335	0.09744295
970.499	0.09686829
970.662	0.09696972
970.826	0.09675658
970.99	0.09668759
971.154	0.09687837
971.318	0.09673965
971.482	0.09651812
971.645	0.09666644
971.809	0.09649368
971.973	0.09606733
972.137	0.09575158
972.3	0.09501835
972.464	0.09493069
972.628	0.09506203
972.791	0.09492037
972.955	0.0946742
973.119	0.0946015
973.282	0.09442001
973.446	0.09443657
973.609	0.09417801
973.773	0.09397291
973.936	0.09363674
974.1	0.09334609
974.263	0.09313329
974.427	0.09296587
974.59	0.09246757
974.754	0.09204201
974.917	0.09171017
975.08	0.09134668
975.244	0.09103617
975.407	0.09065898
975.57	0.09044243
975.734	0.09014274
975.897	0.09009334
976.06	0.08959838
976.223	0.08955551
976.387	0.0895956
976.55	0.08910163
976.713	0.08847932
976.876	0.08853624
977.039	0.08813792
977.202	0.08802574
977.365	0.08787589
977.528	0.08774496
977.692	0.08794389
977.855	0.08786362
978.018	0.08771032
978.181	0.08772913
978.344	0.08750512
978.506	0.08720491
978.669	0.08705269
978.832	0.0867613
978.995	0.08658654
979.158	0.08620067
979.321	0.08596638
979.484	0.08590655
979.646	0.08615692
979.809	0.08614088
979.972	0.08637234
980.135	0.08661392
980.297	0.08683676
980.46	0.08698668
980.623	0.08719065
980.786	0.08666757
980.948	0.08619644
981.111	0.08587752
981.273	0.08569313
981.436	0.08534727
981.599	0.0852914
981.761	0.08476738
981.924	0.08493492
982.086	0.08481914
982.249	0.08485794
982.411	0.08456085
982.573	0.08437737
982.736	0.08432571
982.898	0.08413616
983.061	0.08403581
983.223	0.08372906
983.385	0.08321179
983.548	0.08350459
983.71	0.08360129
983.872	0.08324881
984.034	0.08354805
984.197	0.08312767
984.359	0.0832766
984.521	0.08324409
984.683	0.08271758
984.845	0.08264279
985.008	0.08228516
985.17	0.08201748
985.332	0.08201251
985.494	0.08152588
985.656	0.08141126
985.818	0.08136534
985.98	0.08098147
986.142	0.08050988
986.304	0.07981343
986.466	0.07922576
986.628	0.07914835
986.79	0.07895387
986.952	0.07853811
987.113	0.078256
987.275	0.07833785
987.437	0.0784034
987.599	0.07842899
987.761	0.07837492
987.922	0.07829084
988.084	0.07830107
988.246	0.07846312
988.408	0.07840951
988.569	0.07843014
988.731	0.07880699
988.893	0.07868027
989.054	0.07858897
989.216	0.0786128
989.377	0.07824094
989.539	0.07838989
989.701	0.07834075
989.862	0.07775332
990.024	0.07767447
990.185	0.07728739
990.347	0.07705764
990.508	0.07684488
990.669	0.07635019
990.831	0.07615795
990.992	0.07641378
991.154	0.07602021
991.315	0.07663267
991.476	0.07621922
991.638	0.0765831
991.799	0.07656957
991.96	0.07649353
992.121	0.0762811
992.283	0.07646978
992.444	0.07562745
992.605	0.07549033
992.766	0.07524263
992.927	0.07499502
993.088	0.0751771
993.249	0.07472491
993.41	0.07429623
993.572	0.07453302
993.733	0.07492634
993.894	0.07471242
994.055	0.07428582
994.216	0.07376431
994.376	0.07333488
994.537	0.07344075
994.698	0.07283148
994.859	0.0719178
995.02	0.07166357
995.181	0.07135004
995.342	0.07109725
995.503	0.07075636
995.663	0.06996626
995.824	0.07002696
995.985	0.07042531
996.146	0.06973521
996.306	0.06987594
996.467	0.069834
996.628	0.07003862
996.788	0.07084259
996.949	0.07093409
997.11	0.07060574
997.27	0.07049734
997.431	0.07039099
997.591	0.06982821
997.752	0.07025416
997.912	0.06967186
998.073	0.06944298
998.233	0.06938751
998.394	0.06997895
998.554	0.07041115
998.714	0.07085467
998.875	0.06979542
999.035	0.069181
999.196	0.06922047
999.356	0.06917138
999.516	0.06857898
999.676	0.06806303
999.837	0.06745797
999.997	0.06750381
1000.157	0.0678447
1000.317	0.06687899
1000.477	0.06682697
1000.638	0.06689024
1000.798	0.06720489
1000.958	0.06747982
1001.118	0.06792967
1001.278	0.067989
1001.438	0.06815744
1001.598	0.06791343
1001.758	0.06781916
1001.918	0.06731413
1002.078	0.06680465
1002.238	0.06666314
1002.398	0.06693389
1002.558	0.06744132
1002.718	0.06776434
1002.878	0.06751905
1003.037	0.0671015
1003.197	0.06728866
1003.357	0.06700442
1003.517	0.06700967
1003.677	0.06631177
1003.836	0.06569612
1003.996	0.06572995
1004.156	0.06569187
1004.315	0.06564027
1004.475	0.06523002
1004.635	0.06477039
1004.794	0.06480026
1004.954	0.06433202
1005.114	0.06367504
1005.273	0.0637678
1005.433	0.06301177
1005.592	0.06291404
1005.752	0.06258924
1005.911	0.06218662
1006.071	0.06261606
1006.23	0.06264158
1006.389	0.06244772
1006.549	0.06268098
1006.708	0.06281088
1006.868	0.06232852
1007.027	0.06305186
1007.186	0.06293839
1007.345	0.06348528
1007.505	0.06310406
1007.664	0.06314766
1007.823	0.06306007
1007.982	0.06287221
1008.142	0.06260836
1008.301	0.06267337
1008.46	0.06214775
1008.619	0.06231729
1008.778	0.06282573
1008.937	0.06303236
1009.096	0.06288647
1009.255	0.06234868
1009.414	0.0619382
1009.573	0.06217905
1009.732	0.06263551
1009.891	0.06192908
1010.05	0.06184405
1010.209	0.06244609
1010.368	0.06282521
1010.527	0.06269666
1010.686	0.06282773
1010.845	0.06219185
1011.003	0.06292618
1011.162	0.06264035
1011.321	0.06212589
1011.48	0.06278452
1011.638	0.06292691
1011.797	0.06313665
1011.956	0.0630794
1012.115	0.06288742
1012.273	0.06289314
1012.432	0.06311735
1012.59	0.06203698
1012.749	0.06233546
1012.908	0.06129914
1013.066	0.0620943
1013.225	0.06183712
1013.383	0.06164523
1013.542	0.06200243
1013.7	0.06165262
1013.859	0.06148145
1014.017	0.06200417
1014.175	0.06087502
1014.334	0.06066769
1014.492	0.06060778
1014.65	0.06017468
1014.809	0.06027048
1014.967	0.05933739
1015.125	0.05969315
1015.284	0.06019253
1015.442	0.0592875
1015.6	0.05978417
1015.758	0.05948646
1015.916	0.05971761
1016.075	0.05978139
1016.233	0.05904329
1016.391	0.05919157
1016.549	0.05966935
1016.707	0.05940982
1016.865	0.05986919
1017.023	0.05973458
1017.181	0.06054375
1017.339	0.06032569
1017.497	0.05985205
1017.655	0.05996739
1017.813	0.06110554
1017.971	0.06092217
1018.129	0.061326
1018.286	0.05983742
1018.444	0.06025517
1018.602	0.06044175
1018.76	0.06055598
1018.918	0.05939165
1019.075	0.05890843
1019.233	0.05846801
1019.391	0.05843182
1019.549	0.05920226
1019.706	0.05974362
1019.864	0.06076982
1020.022	0.06092324
1020.179	0.06174785
1020.337	0.06254006
1020.494	0.06388697
1020.652	0.06278413
1020.809	0.06287192
1020.967	0.06166505
1021.124	0.06128596
1021.282	0.06154735
1021.439	0.06147508
1021.597	0.06155076
1021.754	0.06222035
1021.911	0.06129568
1022.069	0.06048619
1022.226	0.05988581
1022.384	0.05919998
1022.541	0.05843165
1022.698	0.0586993
1022.855	0.05817711
1023.013	0.05853122
1023.17	0.05907477
1023.327	0.06065606
1023.484	0.06056991
1023.641	0.06063621
1023.798	0.06113165
1023.956	0.06256968
1024.113	0.06197484
1024.27	0.06266378
1024.427	0.06106707
1024.584	0.06173896
1024.741	0.062483
1024.898	0.06169791
1025.055	0.05994462
1025.212	0.05903222
1025.369	0.05731782
1025.525	0.05865449
1025.682	0.0587711
1025.839	0.05889321
1025.996	0.05982383
1026.153	0.06112009
1026.31	0.06368323
1026.466	0.06516639
1026.623	0.06614469
1026.78	0.06703654
1026.937	0.06754702
1027.093	0.06687992
1027.25	0.06658231
1027.407	0.06763634
1027.563	0.06959652
1027.72	0.06815518
1027.876	0.06645727
1028.033	0.06654287
1028.19	0.06630364
1028.346	0.06481331
1028.503	0.06248755
1028.659	0.06266362
1028.816	0.06264377
1028.972	0.064879
1029.128	0.0638255
1029.285	0.06278709
1029.441	0.06377167
1029.598	0.06394616
1029.754	0.06355884
1029.91	0.06389935
1030.067	0.06138299
1030.223	0.06273862
1030.379	0.06284333
1030.535	0.06429783
1030.691	0.06410343
1030.848	0.06294753
1031.004	0.06311751
1031.16	0.06497718
1031.316	0.06549983
1031.472	0.06901288
1031.628	0.06791411
1031.784	0.07151747
1031.94	0.07282075
1032.096	0.07421491
1032.252	0.07436994
1032.408	0.0716822
1032.564	0.07027371
1032.72	0.07304597
1032.876	0.06810811
1033.032	0.06561579
1033.188	0.06664491
1033.344	0.06593887
1033.5	0.06738659
1033.655	0.06749511
1033.811	0.06464999
1033.967	0.06830821
