Data from 1_mm_pl_30pc_Absorbance__0__17-21-37-075.txt Node

Date: Wed Mar 08 17:21:37 CET 2023
User: Ange
Spectrometer: FLMT08341
Trigger mode: 0
Integration Time (sec): 1.000000E-2
Scans to average: 400
Electric dark correction enabled: true
Nonlinearity correction enabled: false
Boxcar width: 3
XAxis mode: Wavelengths
Number of Pixels in Spectrum: 3648
>>>>>Begin Spectral Data<<<<<
345.271	0.03617971
345.487	0.02569443
345.704	0.00977794
345.921	0.01265235
346.137	0.01014511
346.354	-0.00314871
346.571	-0.02349434
346.787	-0.16544972
347.004	0.11361992
347.22	-0.06120386
347.437	-0.0029539
347.653	0.13807904
347.87	-0.155324
348.086	-0
348.303	-0.27800678
348.519	0.28472343
348.736	0.24673301
348.952	0.25570608
349.169	0.26652505
349.385	0.27390147
349.601	0.27057054
349.818	0.27121585
350.034	0.26784636
350.251	0.26984348
350.467	0.27235208
350.683	0.26525471
350.9	0.2687476
351.116	0.26591101
351.332	0.26361668
351.549	0.27409639
351.765	0.28329842
351.981	0.28837895
352.197	0.29975896
352.414	0.30861054
352.63	0.31703137
352.846	0.32556308
353.062	0.3214048
353.278	0.31518249
353.495	0.32140797
353.711	0.32455541
353.927	0.32476989
354.143	0.32677755
354.359	0.32306441
354.575	0.32068397
354.792	0.32759183
355.008	0.32298273
355.224	0.31866043
355.44	0.31632097
355.656	0.31625972
355.872	0.32256581
356.088	0.33955687
356.304	0.34373134
356.52	0.3475742
356.736	0.35111041
356.952	0.35945741
357.168	0.36206584
357.384	0.36694773
357.6	0.35743195
357.816	0.36144924
358.032	0.36644816
358.248	0.37706436
358.464	0.37778129
358.679	0.38358366
358.895	0.38518341
359.111	0.394046
359.327	0.38980437
359.543	0.3922217
359.759	0.39886369
359.974	0.39665784
360.19	0.39553782
360.406	0.39659799
360.622	0.39282135
360.838	0.3917827
361.053	0.39564154
361.269	0.39601195
361.485	0.40094228
361.701	0.40549086
361.916	0.40258422
362.132	0.40632998
362.348	0.41181775
362.563	0.41236872
362.779	0.41017115
362.995	0.41276931
363.21	0.41487228
363.426	0.41859698
363.641	0.42156702
363.857	0.4263745
364.073	0.424718
364.288	0.42366865
364.504	0.43189526
364.719	0.43361483
364.935	0.43498258
365.15	0.43620601
365.366	0.43736423
365.581	0.44534884
365.797	0.44908806
366.012	0.44409389
366.228	0.44231838
366.443	0.44990824
366.658	0.45084074
366.874	0.44868867
367.089	0.45175475
367.305	0.45422408
367.52	0.45705176
367.735	0.45935249
367.951	0.4566826
368.166	0.46187622
368.381	0.47142481
368.597	0.46765186
368.812	0.47196512
369.027	0.47608958
369.243	0.47979149
369.458	0.48821266
369.673	0.48994408
369.888	0.48872945
370.104	0.48860682
370.319	0.49250106
370.534	0.49069858
370.749	0.49231241
370.964	0.49281467
371.179	0.49276392
371.395	0.49215886
371.61	0.49883477
371.825	0.49233421
372.04	0.49601663
372.255	0.49496402
372.47	0.49134278
372.685	0.48890736
372.9	0.48989073
373.115	0.48702693
373.33	0.49222233
373.545	0.49490908
373.76	0.49940693
373.975	0.50112203
374.19	0.5034954
374.405	0.50659252
374.62	0.51562404
374.835	0.52132054
375.05	0.52068329
375.265	0.52299338
375.48	0.52794367
375.695	0.53812785
375.91	0.53674094
376.125	0.53018019
376.339	0.52422208
376.554	0.5278169
376.769	0.52937125
376.984	0.52963691
377.199	0.53042312
377.414	0.53356272
377.628	0.54144058
377.843	0.54874542
378.058	0.55147439
378.273	0.55572833
378.487	0.55819302
378.702	0.55957518
378.917	0.56240636
379.131	0.56049338
379.346	0.55429432
379.561	0.55277961
379.775	0.55097062
379.99	0.5480776
380.205	0.54369042
380.419	0.54167407
380.634	0.53921344
380.848	0.54620006
381.063	0.54767326
381.278	0.55328122
381.492	0.55372136
381.707	0.56076356
381.921	0.56267948
382.136	0.5704147
382.35	0.56901659
382.565	0.56878792
382.779	0.56876036
382.994	0.57270116
383.208	0.56911398
383.422	0.57527538
383.637	0.57591685
383.851	0.58139127
384.066	0.5857712
384.28	0.58935739
384.494	0.59104133
384.709	0.59689518
384.923	0.59750793
385.137	0.59499707
385.352	0.59511145
385.566	0.59742881
385.78	0.59765098
385.995	0.59834471
386.209	0.59697931
386.423	0.59988606
386.637	0.60431192
386.852	0.60365573
387.066	0.60340348
387.28	0.60104016
387.494	0.60545292
387.708	0.60919446
387.923	0.60869776
388.137	0.61159445
388.351	0.61482918
388.565	0.61996799
388.779	0.6240234
388.993	0.62991787
389.207	0.63057609
389.421	0.63356151
389.635	0.63238658
389.85	0.6326879
390.064	0.63260589
390.278	0.6345152
390.492	0.63427695
390.706	0.63630781
390.92	0.63722821
391.134	0.64184308
391.348	0.64936119
391.561	0.64888657
391.775	0.64739942
391.989	0.64506442
392.203	0.64787435
392.417	0.65066174
392.631	0.65364251
392.845	0.65009616
393.059	0.65506986
393.273	0.65668193
393.486	0.6555134
393.7	0.65213096
393.914	0.65410044
394.128	0.65350133
394.342	0.65411671
394.555	0.64927557
394.769	0.65074303
394.983	0.65529563
395.197	0.65967925
395.41	0.66004971
395.624	0.66201316
395.838	0.66203365
396.051	0.67039458
396.265	0.66948024
396.479	0.67104259
396.692	0.6720028
396.906	0.67153624
397.12	0.67141014
397.333	0.6757742
397.547	0.67382877
397.76	0.67840205
397.974	0.6788158
398.187	0.68096394
398.401	0.68404166
398.614	0.6853434
398.828	0.68640148
399.041	0.68711465
399.255	0.6871425
399.468	0.68801817
399.682	0.68766658
399.895	0.68979673
400.109	0.6900042
400.322	0.68890302
400.536	0.68712292
400.749	0.69123979
400.962	0.69265619
401.176	0.69269807
401.389	0.69083017
401.602	0.68771766
401.816	0.69088951
402.029	0.6945972
402.242	0.69233526
402.456	0.69206402
402.669	0.69060386
402.882	0.68777667
403.095	0.6931904
403.309	0.6922501
403.522	0.69265521
403.735	0.69226716
403.948	0.69347649
404.161	0.70040097
404.375	0.70356005
404.588	0.70405623
404.801	0.70460018
405.014	0.70442449
405.227	0.70853464
405.44	0.7093981
405.653	0.70922959
405.866	0.70789723
406.079	0.70724743
406.293	0.70771088
406.506	0.7072781
406.719	0.70532954
406.932	0.7038769
407.145	0.70111967
407.358	0.70544896
407.571	0.70346529
407.784	0.70411312
407.996	0.70617933
408.209	0.70461518
408.422	0.70382579
408.635	0.70526219
408.848	0.70379674
409.061	0.70102318
409.274	0.70009489
409.487	0.69830517
409.7	0.69911177
409.912	0.69991858
410.125	0.69898688
410.338	0.69856563
410.551	0.69995169
410.764	0.70053204
410.976	0.70099961
411.189	0.70092389
411.402	0.70001891
411.615	0.70039058
411.827	0.70078059
412.04	0.70228467
412.253	0.69974322
412.465	0.69809309
412.678	0.69670171
412.891	0.69839572
413.103	0.69427007
413.316	0.69260004
413.529	0.69356738
413.741	0.69583073
413.954	0.69721682
414.166	0.69746053
414.379	0.69573869
414.591	0.6983172
414.804	0.69741515
415.016	0.69536139
415.229	0.69302395
415.441	0.69001599
415.654	0.69062138
415.866	0.69017922
416.079	0.68988984
416.291	0.68826118
416.504	0.68976133
416.716	0.68983962
416.928	0.69029951
417.141	0.68791451
417.353	0.68780974
417.566	0.68428014
417.778	0.68478143
417.99	0.67993441
418.203	0.676899
418.415	0.67564289
418.627	0.67567017
418.839	0.67412062
419.052	0.67625454
419.264	0.67475913
419.476	0.67519291
419.688	0.67605828
419.901	0.67513068
420.113	0.67262053
420.325	0.67083655
420.537	0.66669611
420.749	0.6663814
420.961	0.66593218
421.174	0.66358395
421.386	0.66112535
421.598	0.66010532
421.81	0.65868976
422.022	0.65834885
422.234	0.65676086
422.446	0.65463472
422.658	0.65292242
422.87	0.65256981
423.082	0.65142473
423.294	0.64976308
423.506	0.64855569
423.718	0.64650216
423.93	0.64389871
424.142	0.64203713
424.354	0.63936621
424.566	0.63742265
424.778	0.63633501
424.99	0.6344115
425.202	0.63204615
425.414	0.631354
425.625	0.63110732
425.837	0.62914013
426.049	0.62791814
426.261	0.62564841
426.473	0.62334458
426.684	0.62206319
426.896	0.62104963
427.108	0.61813773
427.32	0.61773747
427.531	0.61556928
427.743	0.61390472
427.955	0.61384518
428.167	0.61140001
428.378	0.60871476
428.59	0.60707653
428.802	0.6048746
429.013	0.60248353
429.225	0.60032003
429.436	0.5973006
429.648	0.59656553
429.86	0.59504492
430.071	0.59367489
430.283	0.59152041
430.494	0.58936526
430.706	0.58783286
430.917	0.58551575
431.129	0.5834324
431.34	0.58087544
431.552	0.57903798
431.763	0.57652826
431.975	0.5750696
432.186	0.57205367
432.398	0.57003344
432.609	0.56634987
432.821	0.56483852
433.032	0.56196196
433.243	0.55969943
433.455	0.55742805
433.666	0.55613804
433.877	0.55440671
434.089	0.55213481
434.3	0.54897715
434.511	0.54597507
434.723	0.54366062
434.934	0.5406652
435.145	0.53713751
435.356	0.53396311
435.568	0.53219643
435.779	0.52972309
435.99	0.52712127
436.201	0.52448095
436.412	0.52197212
436.624	0.52050698
436.835	0.51877301
437.046	0.51667093
437.257	0.5143733
437.468	0.51329912
437.679	0.511598
437.89	0.50976899
438.101	0.5078178
438.312	0.50546146
438.523	0.50303746
438.734	0.5010583
438.945	0.49840035
439.156	0.4953325
439.367	0.493096
439.578	0.49104346
439.789	0.48792566
440	0.48573609
440.211	0.48287779
440.422	0.48055381
440.633	0.47892711
440.844	0.47586459
441.055	0.47244689
441.266	0.47079603
441.477	0.46770871
441.687	0.46556855
441.898	0.46315419
442.109	0.45995141
442.32	0.45763601
442.531	0.45472941
442.741	0.45093266
442.952	0.448525
443.163	0.44610347
443.374	0.44330432
443.584	0.44091036
443.795	0.43862447
444.006	0.43672877
444.216	0.43467249
444.427	0.43183635
444.638	0.42900877
444.848	0.42646122
445.059	0.42396078
445.27	0.42100886
445.48	0.41775108
445.691	0.41555857
445.901	0.41346583
446.112	0.41095553
446.323	0.40817071
446.533	0.40581608
446.744	0.40325212
446.954	0.40112412
447.165	0.39848559
447.375	0.39620788
447.586	0.39411081
447.796	0.39180104
448.006	0.38926797
448.217	0.3872484
448.427	0.38480747
448.638	0.38221944
448.848	0.37961205
449.058	0.37686457
449.269	0.37454389
449.479	0.37213429
449.689	0.36948194
449.9	0.36700613
450.11	0.36465485
450.32	0.36257131
450.531	0.36007438
450.741	0.35746574
450.951	0.35512525
451.161	0.3528107
451.372	0.35055485
451.582	0.34887133
451.792	0.34620787
452.002	0.34386902
452.212	0.34158052
452.422	0.33921093
452.633	0.33662648
452.843	0.33461987
453.053	0.33142956
453.263	0.32922943
453.473	0.32705786
453.683	0.32514203
453.893	0.32275001
454.103	0.32100599
454.313	0.31873062
454.523	0.31685239
454.733	0.31478978
454.943	0.31294689
455.153	0.3109666
455.363	0.30884054
455.573	0.30652108
455.783	0.30444168
455.993	0.30229278
456.203	0.30045542
456.413	0.29827254
456.623	0.29592336
456.833	0.29422311
457.042	0.29224123
457.252	0.29016028
457.462	0.28806014
457.672	0.28592123
457.882	0.28379522
458.091	0.28178929
458.301	0.2794603
458.511	0.27739176
458.721	0.27546402
458.931	0.2735072
459.14	0.27163532
459.35	0.26995798
459.56	0.26812571
459.769	0.26663127
459.979	0.26470249
460.189	0.26279667
460.398	0.26092435
460.608	0.25921909
460.817	0.25745135
461.027	0.25583659
461.237	0.25396056
461.446	0.25232359
461.656	0.25081492
461.865	0.24921054
462.075	0.24743985
462.284	0.2458808
462.494	0.24414997
462.703	0.24239964
462.913	0.24090865
463.122	0.23924636
463.332	0.23773031
463.541	0.23623632
463.751	0.23456999
463.96	0.23307653
464.169	0.23170896
464.379	0.23043831
464.588	0.22892129
464.797	0.22751562
465.007	0.22614141
465.216	0.22488194
465.425	0.22365706
465.635	0.22232882
465.844	0.22093073
466.053	0.21977106
466.263	0.21848311
466.472	0.21719539
466.681	0.21587716
466.89	0.21444646
467.099	0.21326214
467.309	0.21192692
467.518	0.21072207
467.727	0.20951221
467.936	0.2082637
468.145	0.20718072
468.354	0.2060858
468.563	0.20484946
468.772	0.20357076
468.982	0.20253295
469.191	0.20156892
469.4	0.20048692
469.609	0.19939518
469.818	0.19836648
470.027	0.19736343
470.236	0.19635389
470.445	0.19515793
470.654	0.19389193
470.863	0.19282194
471.072	0.19178844
471.28	0.19071045
471.489	0.18968342
471.698	0.18891082
471.907	0.18810052
472.116	0.18735553
472.325	0.18654509
472.534	0.18576669
472.743	0.18503622
472.951	0.18426495
473.16	0.18333103
473.369	0.18242778
473.578	0.18157356
473.786	0.18075688
473.995	0.17989469
474.204	0.17918088
474.413	0.17836523
474.621	0.17768435
474.83	0.17717126
475.039	0.17644362
475.247	0.17573961
475.456	0.17506085
475.665	0.17424177
475.873	0.17358232
476.082	0.17278622
476.291	0.17209114
476.499	0.17169705
476.708	0.17104979
476.916	0.17054978
477.125	0.17012265
477.333	0.16962158
477.542	0.16920995
477.75	0.16859275
477.959	0.16796483
478.167	0.16756823
478.376	0.16693424
478.584	0.16638966
478.793	0.16590677
479.001	0.16553321
479.209	0.16505162
479.418	0.16463955
479.626	0.1642685
479.834	0.16396903
480.043	0.16364954
480.251	0.16332737
480.459	0.16286447
480.668	0.16269163
480.876	0.16234829
481.084	0.16197255
481.293	0.16166054
481.501	0.16129275
481.709	0.16101838
481.917	0.16080782
482.125	0.16051861
482.334	0.16020907
482.542	0.16005459
482.75	0.1598934
482.958	0.15977444
483.166	0.15962828
483.374	0.15952774
483.583	0.15933244
483.791	0.15922496
483.999	0.15897809
484.207	0.15877319
484.415	0.15856966
484.623	0.15837525
484.831	0.15812913
485.039	0.15799974
485.247	0.15793803
485.455	0.15774568
485.663	0.15762305
485.871	0.15752304
486.079	0.15737374
486.287	0.1573081
486.495	0.1572052
486.702	0.15702071
486.91	0.15700248
487.118	0.15690925
487.326	0.15688416
487.534	0.15701044
487.742	0.15717182
487.95	0.15724439
488.157	0.15735072
488.365	0.15753418
488.573	0.1577301
488.781	0.1579397
488.988	0.15798578
489.196	0.15801635
489.404	0.15810758
489.612	0.15824351
489.819	0.15835635
490.027	0.15841053
490.235	0.1584287
490.442	0.15853469
490.65	0.15860862
490.857	0.15885708
491.065	0.15907183
491.273	0.15924257
491.48	0.15951058
491.688	0.15975571
491.895	0.16006256
492.103	0.16035358
492.31	0.16057136
492.518	0.16072376
492.725	0.16096006
492.933	0.16110839
493.14	0.16128154
493.348	0.16145412
493.555	0.16165288
493.763	0.16177168
493.97	0.16205839
494.177	0.16233141
494.385	0.16269179
494.592	0.16303312
494.8	0.16328465
495.007	0.1636875
495.214	0.16409471
495.422	0.16452242
495.629	0.1648669
495.836	0.16524201
496.043	0.16565915
496.251	0.16616167
496.458	0.16648511
496.665	0.16684126
496.872	0.16713656
497.08	0.16750065
497.287	0.16783483
497.494	0.16822309
497.701	0.16863712
497.908	0.16919766
498.115	0.16962965
498.322	0.17004271
498.53	0.17048078
498.737	0.17090024
498.944	0.17127897
499.151	0.17164856
499.358	0.17200893
499.565	0.17251179
499.772	0.17310016
499.979	0.17370176
500.186	0.17434516
500.393	0.17489987
500.6	0.17542866
500.807	0.17594933
501.014	0.17644136
501.221	0.17690245
501.427	0.17734632
501.634	0.17779289
501.841	0.17831864
502.048	0.17888281
502.255	0.17928477
502.462	0.17980123
502.669	0.18036336
502.875	0.18094832
503.082	0.18148141
503.289	0.1820344
503.496	0.18260116
503.702	0.18327685
503.909	0.18392608
504.116	0.18457898
504.323	0.18513321
504.529	0.18575432
504.736	0.1863558
504.943	0.18696605
505.149	0.18773395
505.356	0.18842463
505.563	0.18907802
505.769	0.18980449
505.976	0.19046895
506.182	0.19121567
506.389	0.19189279
506.595	0.19246591
506.802	0.19313031
507.008	0.19379581
507.215	0.19447007
507.421	0.19516558
507.628	0.19578434
507.834	0.19648625
508.041	0.19721369
508.247	0.19792428
508.454	0.19861747
508.66	0.19925101
508.866	0.1999132
509.073	0.20068909
509.279	0.20140514
509.486	0.2020057
509.692	0.20267771
509.898	0.20338423
510.105	0.20416817
510.311	0.2049826
510.517	0.20574047
510.723	0.20651167
510.93	0.20731082
511.136	0.20814001
511.342	0.2089008
511.548	0.2096191
511.754	0.21031881
511.961	0.21104824
512.167	0.21183094
512.373	0.21268053
512.579	0.2135094
512.785	0.21437953
512.991	0.21529522
513.197	0.21624751
513.404	0.21717624
513.61	0.21804808
513.816	0.21884115
514.022	0.21956011
514.228	0.22035037
514.434	0.221058
514.64	0.22176932
514.846	0.22250215
515.052	0.2232157
515.258	0.22400438
515.464	0.2249269
515.669	0.22576658
515.875	0.22672902
516.081	0.22767986
516.287	0.22865726
516.493	0.22968446
516.699	0.23058368
516.905	0.23141325
517.111	0.23230949
517.316	0.23317243
517.522	0.23400117
517.728	0.23484943
517.934	0.23564203
518.139	0.23653793
518.345	0.23736807
518.551	0.23824407
518.757	0.23905113
518.962	0.23988159
519.168	0.24077779
519.374	0.24164605
519.579	0.24256666
519.785	0.24365375
519.991	0.24467638
520.196	0.24574675
520.402	0.2467447
520.607	0.24767061
520.813	0.24874671
521.018	0.24968698
521.224	0.25043949
521.429	0.25134234
521.635	0.25218085
521.84	0.25305347
522.046	0.25397618
522.251	0.2547935
522.457	0.25574461
522.662	0.25680095
522.868	0.25776773
523.073	0.25875881
523.279	0.259858
523.484	0.26085769
523.689	0.26196461
523.895	0.2629958
524.1	0.26397584
524.305	0.26492898
524.511	0.26588644
524.716	0.26687715
524.921	0.26792132
525.126	0.26888689
525.332	0.2698415
525.537	0.27077528
525.742	0.27172521
525.947	0.27279236
526.153	0.27370944
526.358	0.2746181
526.563	0.27555704
526.768	0.27655942
526.973	0.27764372
527.178	0.27870349
527.383	0.27965023
527.588	0.28060563
527.794	0.28158033
527.999	0.28264856
528.204	0.28370319
528.409	0.28465278
528.614	0.28577023
528.819	0.28684948
529.024	0.28787733
529.229	0.28893971
529.434	0.28995828
529.639	0.29094803
529.843	0.2919799
530.048	0.29292666
530.253	0.29391459
530.458	0.29509015
530.663	0.29617635
530.868	0.29722811
531.073	0.29817837
531.278	0.29910107
531.482	0.30004425
531.687	0.30108866
531.892	0.30200875
532.097	0.30293135
532.302	0.30396606
532.506	0.3051369
532.711	0.30630718
532.916	0.30752708
533.12	0.30862466
533.325	0.30973524
533.53	0.31087732
533.734	0.31196691
533.939	0.31303447
534.144	0.31414042
534.348	0.31513525
534.553	0.31621774
534.757	0.31725362
534.962	0.31835992
535.167	0.31941123
535.371	0.32039671
535.576	0.32146198
535.78	0.32250268
535.985	0.32355697
536.189	0.32460113
536.394	0.32562734
536.598	0.32668876
536.803	0.32778031
537.007	0.32881073
537.211	0.32994802
537.416	0.33094673
537.62	0.33197627
537.825	0.3330152
538.029	0.33418951
538.233	0.33528836
538.438	0.33644151
538.642	0.33749477
538.846	0.33869684
539.05	0.33985778
539.255	0.3409189
539.459	0.34190964
539.663	0.34297186
539.867	0.34401935
540.072	0.34505012
540.276	0.34608143
540.48	0.34729104
540.684	0.34845419
540.888	0.34967438
541.092	0.35077343
541.297	0.35187608
541.501	0.35295817
541.705	0.35402972
541.909	0.35495052
542.113	0.35591966
542.317	0.35694629
542.521	0.35809383
542.725	0.35923835
542.929	0.36040714
543.133	0.36153242
543.337	0.36277043
543.541	0.3639964
543.745	0.36502445
543.949	0.3661174
544.153	0.36707782
544.357	0.36812307
544.56	0.36925216
544.764	0.37033354
544.968	0.37130082
545.172	0.37235721
545.376	0.37337486
545.58	0.37460541
545.783	0.37576331
545.987	0.37677964
546.191	0.37780816
546.395	0.37906665
546.598	0.38031321
546.802	0.38153424
547.006	0.38254879
547.21	0.38343098
547.413	0.38452854
547.617	0.38567869
547.821	0.3866668
548.024	0.3877076
548.228	0.38866119
548.431	0.38979624
548.635	0.39106084
548.839	0.39213525
549.042	0.39315759
549.246	0.39416085
549.449	0.39522962
549.653	0.39633011
549.856	0.3973981
550.06	0.39835009
550.263	0.3995126
550.467	0.4006447
550.67	0.40185829
550.874	0.40291929
551.077	0.40404472
551.28	0.40514963
551.484	0.40626685
551.687	0.40721146
551.891	0.40830788
552.094	0.40937046
552.297	0.41057235
552.501	0.4117834
552.704	0.41292273
552.907	0.41402695
553.11	0.41519561
553.314	0.41614065
553.517	0.41706612
553.72	0.41806286
553.923	0.41906359
554.127	0.42012095
554.33	0.42115015
554.533	0.42222491
554.736	0.42326376
554.939	0.42436636
555.142	0.42538046
555.345	0.42634571
555.549	0.42735377
555.752	0.42829281
555.955	0.42925361
556.158	0.43034036
556.361	0.43139807
556.564	0.43245174
556.767	0.4335326
556.97	0.43456124
557.173	0.4357143
557.376	0.43683621
557.579	0.43789896
557.782	0.43895962
557.984	0.44000174
558.187	0.44107931
558.39	0.44206987
558.593	0.44313507
558.796	0.44407597
558.999	0.44504142
559.202	0.4460411
559.404	0.44694921
559.607	0.44788682
559.81	0.44890659
560.013	0.44984071
560.216	0.45088736
560.418	0.45206813
560.621	0.45312777
560.824	0.45418724
561.026	0.45527845
561.229	0.45627622
561.432	0.45731752
561.634	0.45833422
561.837	0.45923975
562.04	0.46013224
562.242	0.46117759
562.445	0.4620458
562.647	0.46308751
562.85	0.46393497
563.053	0.46489454
563.255	0.46584816
563.458	0.46687292
563.66	0.46779659
563.863	0.46879045
564.065	0.46962631
564.268	0.47063538
564.47	0.47157783
564.672	0.47240277
564.875	0.4733695
565.077	0.47435702
565.28	0.47527296
565.482	0.47633784
565.684	0.47736078
565.887	0.47837145
566.089	0.47945123
566.291	0.48039209
566.494	0.48132454
566.696	0.48231589
566.898	0.48330927
567.1	0.48429613
567.303	0.48517375
567.505	0.48604195
567.707	0.4867632
567.909	0.48757331
568.111	0.4883228
568.314	0.48915177
568.516	0.48995394
568.718	0.49078474
568.92	0.49162683
569.122	0.49262268
569.324	0.49353712
569.526	0.49435075
569.728	0.49522915
569.93	0.49606277
570.132	0.4969418
570.334	0.49785239
570.536	0.4986637
570.738	0.4994569
570.94	0.50037861
571.142	0.50122935
571.344	0.50200925
571.546	0.50279844
571.748	0.50359387
571.95	0.50444992
572.152	0.50538191
572.354	0.5062781
572.555	0.50723485
572.757	0.50825825
572.959	0.50919203
573.161	0.51000741
573.363	0.51086958
573.564	0.51170226
573.766	0.51237189
573.968	0.51303023
574.17	0.51360653
574.371	0.51437019
574.573	0.51515361
574.775	0.51582964
574.976	0.51648689
575.178	0.51727046
575.38	0.51794557
575.581	0.51866293
575.783	0.51933157
575.985	0.52006807
576.186	0.52084332
576.388	0.52155847
576.589	0.52229496
576.791	0.52314872
576.992	0.52398121
577.194	0.52466999
577.395	0.52534999
577.597	0.5260329
577.798	0.52681916
578	0.52753342
578.201	0.52823102
578.402	0.52889612
578.604	0.52959159
578.805	0.5302746
579.007	0.53098496
579.208	0.53162426
579.409	0.53227707
579.611	0.53277837
579.812	0.53343559
580.013	0.53411698
580.215	0.53460732
580.416	0.53527502
580.617	0.53588644
580.818	0.53654672
581.019	0.5371839
581.221	0.53783949
581.422	0.53848253
581.623	0.53929505
581.824	0.53978011
582.025	0.54040742
582.226	0.54104876
582.428	0.54171163
582.629	0.54221649
582.83	0.54270229
583.031	0.54315923
583.232	0.54383521
583.433	0.54443131
583.634	0.54486496
583.835	0.5454427
584.036	0.54599938
584.237	0.54651877
584.438	0.5470681
584.639	0.54748045
584.84	0.54795403
585.041	0.54843202
585.242	0.54875109
585.442	0.54921318
585.643	0.54982983
585.844	0.55037017
586.045	0.55101018
586.246	0.55143587
586.447	0.5519449
586.647	0.55239682
586.848	0.55283009
587.049	0.5530956
587.25	0.55345599
587.45	0.55374933
587.651	0.55419073
587.852	0.55459456
588.053	0.55523493
588.253	0.55567222
588.454	0.55618502
588.655	0.55657969
588.855	0.55695147
589.056	0.55738275
589.256	0.55786198
589.457	0.55821866
589.658	0.55865192
589.858	0.55897018
590.059	0.55946358
590.259	0.55997193
590.46	0.56031367
590.66	0.5606657
590.861	0.5609602
591.061	0.5612289
591.262	0.56166793
591.462	0.5619473
591.662	0.56212474
591.863	0.56228019
592.063	0.56249473
592.264	0.56281352
592.464	0.5632309
592.664	0.56354236
592.865	0.56389765
593.065	0.56409249
593.265	0.5645507
593.465	0.56487827
593.666	0.56506652
593.866	0.56516838
594.066	0.56532365
594.266	0.56540827
594.467	0.56563213
594.667	0.56576126
594.867	0.56594267
595.067	0.5661191
595.267	0.56632176
595.467	0.56644893
595.668	0.56667531
595.868	0.56697666
596.068	0.5671889
596.268	0.56732528
596.468	0.56755333
596.668	0.56785732
596.868	0.56806279
597.068	0.56828025
597.268	0.56846839
597.468	0.5686377
597.668	0.56877294
597.868	0.56886588
598.068	0.56892885
598.268	0.56908855
598.467	0.56919506
598.667	0.56919594
598.867	0.5692368
599.067	0.5693745
599.267	0.56947966
599.467	0.56949521
599.667	0.56948604
599.866	0.56955178
600.066	0.56964108
600.266	0.56959194
600.466	0.56956976
600.665	0.56959201
600.865	0.56962358
601.065	0.56984726
601.264	0.56982234
601.464	0.56990994
601.664	0.57001926
601.863	0.57005559
602.063	0.57010375
602.263	0.56997345
602.462	0.56984155
602.662	0.56984675
602.861	0.56979139
603.061	0.56980858
603.26	0.56984033
603.46	0.56980089
603.659	0.56996279
603.859	0.57000356
604.058	0.56999704
604.258	0.56997235
604.457	0.57004993
604.657	0.5699434
604.856	0.56972517
605.056	0.56963323
605.255	0.56940322
605.454	0.56923379
605.654	0.56912945
605.853	0.56896877
606.052	0.56881835
606.252	0.56886335
606.451	0.56878015
606.65	0.5688221
606.849	0.56859173
607.049	0.56827972
607.248	0.56797172
607.447	0.56783094
607.646	0.56773073
607.845	0.56753456
608.045	0.56716505
608.244	0.56712499
608.443	0.56701307
608.642	0.56690726
608.841	0.5666652
609.04	0.56627926
609.239	0.56600535
609.438	0.56577462
609.637	0.56550166
609.836	0.56523896
610.035	0.56494488
610.234	0.56460379
610.433	0.56432414
610.632	0.56405929
610.831	0.56389228
611.03	0.56357786
611.229	0.56346693
611.428	0.56325175
611.627	0.56315327
611.826	0.56300002
612.025	0.56287854
612.224	0.56249698
612.422	0.56219908
612.621	0.56168708
612.82	0.56138795
613.019	0.5610506
613.218	0.56075058
613.416	0.56032326
613.615	0.56007121
613.814	0.55981024
614.012	0.55965001
614.211	0.55927106
614.41	0.55889511
614.608	0.55841585
614.807	0.55794083
615.006	0.55755462
615.204	0.5571104
615.403	0.55682947
615.602	0.55650993
615.8	0.55627648
615.999	0.55588957
616.197	0.55559785
616.396	0.55525637
616.594	0.55483422
616.793	0.55431886
616.991	0.55380181
617.19	0.55321076
617.388	0.55293971
617.586	0.55246873
617.785	0.55199578
617.983	0.55160169
618.182	0.55105522
618.38	0.55053501
618.578	0.55003009
618.777	0.54951986
618.975	0.54915345
619.173	0.54872786
619.372	0.5482541
619.57	0.54775467
619.768	0.54739886
619.966	0.54693074
620.165	0.54634147
620.363	0.5458298
620.561	0.54521762
620.759	0.54469511
620.957	0.54431565
621.155	0.54379985
621.354	0.54326962
621.552	0.54294738
621.75	0.54229452
621.948	0.54184897
622.146	0.54123034
622.344	0.5405504
622.542	0.53993153
622.74	0.5393372
622.938	0.53857391
623.136	0.53800739
623.334	0.53749625
623.532	0.53692082
623.73	0.53649564
623.928	0.53605609
624.126	0.53556061
624.324	0.53508321
624.522	0.53444029
624.719	0.53369237
624.917	0.53324124
625.115	0.5325187
625.313	0.5320119
625.511	0.53151102
625.708	0.53073437
625.906	0.53011293
626.104	0.52948645
626.302	0.52882839
626.499	0.52820615
626.697	0.527289
626.895	0.52637096
627.093	0.52575736
627.29	0.52516116
627.488	0.52446152
627.686	0.52375476
627.883	0.5229113
628.081	0.52213686
628.278	0.52166733
628.476	0.52103457
628.673	0.52040622
628.871	0.51982982
629.068	0.5191411
629.266	0.51859036
629.463	0.51796841
629.661	0.51721946
629.858	0.51640739
630.056	0.51561883
630.253	0.51483452
630.451	0.51409161
630.648	0.51326359
630.845	0.51255302
631.043	0.5117365
631.24	0.51107526
631.438	0.51033421
631.635	0.50963542
631.832	0.50880825
632.029	0.50823528
632.227	0.50739209
632.424	0.50666517
632.621	0.50580449
632.818	0.50496579
633.016	0.50410567
633.213	0.50336464
633.41	0.50248811
633.607	0.50177199
633.804	0.50102371
634.001	0.50017923
634.199	0.49943291
634.396	0.49863231
634.593	0.49772912
634.79	0.49701421
634.987	0.49619559
635.184	0.49535365
635.381	0.49471212
635.578	0.49394278
635.775	0.4930784
635.972	0.49236779
636.169	0.49141327
636.366	0.4906605
636.563	0.48984763
636.76	0.48887712
636.957	0.48799089
637.153	0.48714851
637.35	0.48639113
637.547	0.48562371
637.744	0.48465272
637.941	0.4838665
638.138	0.48308872
638.334	0.48225926
638.531	0.48157121
638.728	0.4807679
638.925	0.47998332
639.121	0.47925499
639.318	0.47827323
639.515	0.47731464
639.711	0.47645376
639.908	0.47535643
640.105	0.47430465
640.301	0.47324694
640.498	0.4722632
640.695	0.47143091
640.891	0.4705578
641.088	0.46966658
641.284	0.46884384
641.481	0.46802734
641.677	0.46715082
641.874	0.46613408
642.07	0.46518796
642.267	0.46439662
642.463	0.46342897
642.66	0.46266746
642.856	0.46166991
643.053	0.46075178
643.249	0.45992808
643.445	0.45906277
643.642	0.45806002
643.838	0.45726326
644.034	0.45631245
644.231	0.45539122
644.427	0.45453455
644.623	0.45362696
644.82	0.45272859
645.016	0.45175185
645.212	0.45060121
645.408	0.44952565
645.604	0.44864719
645.801	0.44764341
645.997	0.44654538
646.193	0.44556621
646.389	0.44474424
646.585	0.444
646.781	0.44317577
646.977	0.44234835
647.173	0.44143648
647.37	0.44074527
647.566	0.43984188
647.762	0.43889604
647.958	0.43800185
648.154	0.43693652
648.35	0.43590681
648.546	0.43490151
648.742	0.4339493
648.937	0.43281046
649.133	0.43185615
649.329	0.43082272
649.525	0.42984193
649.721	0.42879247
649.917	0.42789613
650.113	0.42670593
650.309	0.42585855
650.504	0.42476547
650.7	0.42363151
650.896	0.42260163
651.092	0.42159336
651.287	0.42053059
651.483	0.41968691
651.679	0.41867316
651.875	0.4178226
652.07	0.41702009
652.266	0.41616187
652.462	0.41526086
652.657	0.41433412
652.853	0.41329939
653.048	0.41232603
653.244	0.41125412
653.44	0.4102558
653.635	0.40916753
653.831	0.40820894
654.026	0.40733749
654.222	0.40629916
654.417	0.40532989
654.613	0.40421191
654.808	0.4029729
655.004	0.4018883
655.199	0.40073472
655.394	0.39960387
655.59	0.39859913
655.785	0.39737988
655.98	0.39637756
656.176	0.39541769
656.371	0.39469296
656.566	0.39378636
656.762	0.39279792
656.957	0.39191746
657.152	0.39119508
657.348	0.39039758
657.543	0.38962191
657.738	0.388563
657.933	0.38758068
658.128	0.38647692
658.324	0.38535418
658.519	0.3842389
658.714	0.38310845
658.909	0.38192159
659.104	0.3808184
659.299	0.37968862
659.494	0.37869266
659.689	0.37769739
659.884	0.37665597
660.079	0.37557963
660.274	0.37453751
660.469	0.37344711
660.664	0.37246681
660.859	0.37140664
661.054	0.37034414
661.249	0.3693228
661.444	0.36830375
661.639	0.36722809
661.834	0.3661996
662.029	0.36516069
662.224	0.36418679
662.418	0.36313405
662.613	0.36209211
662.808	0.36097947
663.003	0.36000447
663.198	0.35891127
663.392	0.35780653
663.587	0.35690902
663.782	0.35581575
663.977	0.35471074
664.171	0.35373622
664.366	0.35264273
664.561	0.3516844
664.755	0.35076332
664.95	0.3497315
665.144	0.34883175
665.339	0.3480491
665.534	0.3472323
665.728	0.34638817
665.923	0.34545492
666.117	0.34441894
666.312	0.34328878
666.506	0.34228666
666.701	0.34112085
666.895	0.34007768
667.09	0.33900848
667.284	0.33809912
667.479	0.33707401
667.673	0.33617075
667.867	0.33517603
668.062	0.33424359
668.256	0.3332136
668.45	0.33237408
668.645	0.33129376
668.839	0.33029668
669.033	0.32915557
669.228	0.32809553
669.422	0.32707953
669.616	0.32598582
669.81	0.32489892
670.004	0.32395688
670.199	0.32314134
670.393	0.32227677
670.587	0.3213914
670.781	0.3204303
670.975	0.31949181
671.169	0.31839263
671.363	0.31722144
671.558	0.31607629
671.752	0.31511052
671.946	0.31418194
672.14	0.31322798
672.334	0.3121651
672.528	0.31129839
672.722	0.31034486
672.916	0.30946804
673.11	0.30838696
673.304	0.30741181
673.497	0.30630325
673.691	0.30541645
673.885	0.30435462
674.079	0.30341697
674.273	0.30222329
674.467	0.30111012
674.661	0.2999562
674.854	0.29895285
675.048	0.29799583
675.242	0.2970044
675.436	0.29603771
675.629	0.29517382
675.823	0.29427789
676.017	0.29339383
676.211	0.29242018
676.404	0.29135807
676.598	0.29045147
676.792	0.28953185
676.985	0.2885631
677.179	0.28757189
677.372	0.28649819
677.566	0.28550448
677.76	0.28447021
677.953	0.28334701
678.147	0.2823067
678.34	0.28142449
678.534	0.28057343
678.727	0.27982593
678.921	0.27918596
679.114	0.27849854
679.307	0.27779261
679.501	0.2769859
679.694	0.27608875
679.888	0.27516906
680.081	0.2742697
680.274	0.27316849
680.468	0.27223181
680.661	0.271279
680.854	0.2704175
681.048	0.26944256
681.241	0.26847019
681.434	0.26747618
681.627	0.26650944
681.821	0.26544087
682.014	0.26446637
682.207	0.2633522
682.4	0.26236672
682.593	0.26148719
682.786	0.2605461
682.98	0.25958666
683.173	0.25879584
683.366	0.25795764
683.559	0.25718221
683.752	0.25641494
683.945	0.25557972
684.138	0.25475993
684.331	0.25386802
684.524	0.25289182
684.717	0.25189003
684.91	0.25097202
685.103	0.25000007
685.296	0.24892852
685.489	0.24789429
685.682	0.24694108
685.874	0.24603099
686.067	0.24500953
686.26	0.24403666
686.453	0.24312243
686.646	0.24229358
686.839	0.24151943
687.031	0.2407316
687.224	0.23991293
687.417	0.23932893
687.61	0.23853219
687.802	0.23767943
687.995	0.23686912
688.188	0.23606652
688.38	0.23524148
688.573	0.23447574
688.766	0.23364308
688.958	0.23274849
689.151	0.23188669
689.343	0.23114302
689.536	0.23023119
689.729	0.22934897
689.921	0.22841147
690.114	0.2274451
690.306	0.22670733
690.499	0.22602843
690.691	0.22520211
690.884	0.22441479
691.076	0.22367962
691.268	0.2228149
691.461	0.22196112
691.653	0.22115199
691.846	0.22030937
692.038	0.21951092
692.23	0.21867053
692.423	0.21782897
692.615	0.21713629
692.807	0.21646291
692.999	0.21570201
693.192	0.21493397
693.384	0.2141309
693.576	0.21340266
693.768	0.2127747
693.961	0.21200025
694.153	0.21122534
694.345	0.21047451
694.537	0.20976268
694.729	0.20911655
694.921	0.20842719
695.113	0.20759384
695.305	0.20682312
695.498	0.20595535
695.69	0.20509357
695.882	0.20419592
696.074	0.20331069
696.266	0.20243143
696.458	0.2015601
696.65	0.20079636
696.842	0.20017369
697.033	0.19955416
697.225	0.19885415
697.417	0.19820553
697.609	0.19754105
697.801	0.19688342
697.993	0.19615196
698.185	0.19536469
698.376	0.19451483
698.568	0.1937048
698.76	0.19288789
698.952	0.19209026
699.144	0.19136543
699.335	0.19069487
699.527	0.19001825
699.719	0.1893793
699.91	0.18875589
700.102	0.18798345
700.294	0.18731395
700.485	0.18661248
700.677	0.18586547
700.869	0.18520269
701.06	0.18451359
701.252	0.18383943
701.443	0.18328125
701.635	0.18264404
701.826	0.1820015
702.018	0.18136181
702.209	0.18076834
702.401	0.18022683
702.592	0.17969632
702.784	0.17916048
702.975	0.1786324
703.166	0.17816457
703.358	0.1776246
703.549	0.17698153
703.741	0.1762395
703.932	0.17546235
704.123	0.17475151
704.315	0.1740017
704.506	0.173271
704.697	0.17253661
704.888	0.17187857
705.08	0.1712866
705.271	0.17078347
705.462	0.17009743
705.653	0.16945084
705.844	0.16872658
706.035	0.16806092
706.227	0.16731654
706.418	0.16654976
706.609	0.16571026
706.8	0.16500651
706.991	0.16430864
707.182	0.1637742
707.373	0.16319811
707.564	0.16274001
707.755	0.16227299
707.946	0.16184702
708.137	0.16139238
708.328	0.16091084
708.519	0.16028733
708.71	0.15958442
708.901	0.15879762
709.092	0.15815047
709.283	0.15745904
709.473	0.15679109
709.664	0.15621778
709.855	0.15566329
710.046	0.15522133
710.237	0.15475393
710.427	0.15415619
710.618	0.1535982
710.809	0.15302218
711	0.15241939
711.19	0.15181618
711.381	0.15122012
711.572	0.15058767
711.762	0.1500301
711.953	0.14945516
712.144	0.14886116
712.334	0.14826448
712.525	0.14767718
712.715	0.14708483
712.906	0.14647455
713.097	0.14586986
713.287	0.14531092
713.478	0.14473377
713.668	0.14424138
713.859	0.14384284
714.049	0.14348291
714.239	0.14315523
714.43	0.14271615
714.62	0.1422582
714.811	0.1417656
715.001	0.1412705
715.191	0.14069243
715.382	0.14009815
715.572	0.13963939
715.762	0.13930764
715.953	0.13898554
716.143	0.13869635
716.333	0.13831782
716.523	0.13790764
716.714	0.1374915
716.904	0.13693327
717.094	0.13641363
717.284	0.13586953
717.474	0.13526809
717.664	0.13474302
717.855	0.13431074
718.045	0.13388308
718.235	0.13350555
718.425	0.13313378
718.615	0.13274587
718.805	0.13244183
718.995	0.13207393
719.185	0.13162106
719.375	0.13117446
719.565	0.13076224
719.755	0.13028566
719.945	0.12983196
720.135	0.12943537
720.325	0.1290604
720.515	0.1286703
720.704	0.12828751
720.894	0.12784265
721.084	0.12737133
721.274	0.12692931
721.464	0.12637998
721.654	0.125967
721.843	0.12559883
722.033	0.12523469
722.223	0.12492818
722.413	0.12471769
722.602	0.12437372
722.792	0.12406988
722.982	0.12366503
723.171	0.12318094
723.361	0.12269741
723.55	0.12227384
723.74	0.12175955
723.93	0.12136106
724.119	0.12097293
724.309	0.12057698
724.498	0.12029056
724.688	0.1200517
724.877	0.11974203
725.067	0.11944145
725.256	0.11915322
725.446	0.11896683
725.635	0.11874531
725.825	0.11847056
726.014	0.11815587
726.203	0.11783065
726.393	0.11741807
726.582	0.11702919
726.771	0.11660649
726.961	0.1162638
727.15	0.11590196
727.339	0.11551189
727.529	0.11513354
727.718	0.11474405
727.907	0.11441466
728.096	0.1139657
728.286	0.11341614
728.475	0.11295427
728.664	0.1124985
728.853	0.11210451
729.042	0.11178855
729.231	0.11140394
729.42	0.11106183
729.609	0.1106978
729.799	0.11027636
729.988	0.10986811
730.177	0.10942254
730.366	0.10897785
730.555	0.10853678
730.744	0.1081123
730.933	0.10774228
731.122	0.10737334
731.31	0.10704021
731.499	0.10669477
731.688	0.10639599
731.877	0.10611947
732.066	0.10590081
732.255	0.1057591
732.444	0.10566501
732.632	0.10558507
732.821	0.10551621
733.01	0.10536261
733.199	0.10520056
733.388	0.10495148
733.576	0.10464177
733.765	0.10429955
733.954	0.10387796
734.142	0.10343322
734.331	0.10297833
734.52	0.10260741
734.708	0.102277
734.897	0.1020596
735.086	0.10183508
735.274	0.10163057
735.463	0.10148647
735.651	0.10139066
735.84	0.1012275
736.028	0.10098819
736.217	0.10062737
736.405	0.10032224
736.594	0.10003181
736.782	0.09971028
736.971	0.09943306
737.159	0.09912805
737.347	0.09889189
737.536	0.09860461
737.724	0.09830984
737.912	0.09802002
738.101	0.09782043
738.289	0.09756594
738.477	0.09734575
738.666	0.09701394
738.854	0.09673334
739.042	0.09641965
739.23	0.09609817
739.418	0.09580814
739.607	0.09555886
739.795	0.09531902
739.983	0.09519859
740.171	0.09507901
740.359	0.09495472
740.547	0.09490167
740.735	0.09472683
740.923	0.09449172
741.112	0.0943068
741.3	0.09413712
741.488	0.09403214
741.676	0.09390475
741.864	0.09373161
742.052	0.09362878
742.239	0.09345776
742.427	0.09314807
742.615	0.09280755
742.803	0.09254594
742.991	0.0922909
743.179	0.09203317
743.367	0.09173494
743.555	0.09153478
743.742	0.09141772
743.93	0.091396
744.118	0.09124505
744.306	0.09111746
744.494	0.09099877
744.681	0.09091688
744.869	0.09088733
745.057	0.09070589
745.244	0.09047066
745.432	0.09017823
745.62	0.0899186
745.807	0.08970686
745.995	0.08949807
746.182	0.08924208
746.37	0.08909046
746.558	0.08891447
746.745	0.08876804
746.933	0.08867586
747.12	0.08858902
747.308	0.08847564
747.495	0.08831473
747.683	0.08819218
747.87	0.08809447
748.057	0.08802515
748.245	0.08784485
748.432	0.08759997
748.62	0.08741741
748.807	0.08727347
748.994	0.08714256
749.182	0.08697822
749.369	0.08679133
749.556	0.08667411
749.743	0.0866218
749.931	0.08654489
750.118	0.08643929
750.305	0.08628216
750.492	0.08615134
750.68	0.08611654
750.867	0.08612907
751.054	0.0860647
751.241	0.08590608
751.428	0.08578842
751.615	0.08566096
751.802	0.08547616
751.989	0.08515073
752.176	0.08480836
752.363	0.08449594
752.55	0.08419881
752.737	0.08397449
752.924	0.08384362
753.111	0.08380351
753.298	0.08391049
753.485	0.0839712
753.672	0.08398656
753.859	0.08395672
754.046	0.08391368
754.233	0.08379707
754.42	0.08362287
754.606	0.08328588
754.793	0.08301607
754.98	0.08282699
755.167	0.08266299
755.353	0.08259993
755.54	0.08255441
755.727	0.08256307
755.914	0.08264678
756.1	0.08267597
756.287	0.08262764
756.474	0.08258551
756.66	0.0824526
756.847	0.08230119
757.033	0.0820991
757.22	0.08190924
757.407	0.08174754
757.593	0.08160693
757.78	0.08156961
757.966	0.08149174
758.153	0.08139783
758.339	0.08119866
758.526	0.08110421
758.712	0.08098396
758.898	0.08101888
759.085	0.08097986
759.271	0.08102902
759.458	0.08109978
759.644	0.08129773
759.83	0.08132045
760.017	0.08128641
760.203	0.0812186
760.389	0.08109839
760.576	0.08089735
760.762	0.08076179
760.948	0.08061737
761.134	0.08055455
761.32	0.0805885
761.507	0.0805773
761.693	0.08069898
761.879	0.08079215
762.065	0.08079563
762.251	0.08085575
762.437	0.08096388
762.623	0.08100174
762.809	0.08099372
762.995	0.08087784
763.181	0.08078732
763.367	0.08077522
763.553	0.08066754
763.739	0.08049345
763.925	0.08022455
764.111	0.08000514
764.297	0.07983842
764.483	0.07967954
764.669	0.07953132
764.855	0.07948103
765.041	0.07944313
765.227	0.07939593
765.412	0.07927252
765.598	0.07923278
765.784	0.0792143
765.97	0.07917445
766.156	0.07913699
766.341	0.07913004
766.527	0.07921702
766.713	0.07937326
766.898	0.07947643
767.084	0.0795208
767.27	0.07943819
767.455	0.07924876
767.641	0.07912268
767.827	0.07900943
768.012	0.07887896
768.198	0.07872706
768.383	0.07864507
768.569	0.07865906
768.754	0.07877623
768.94	0.07880477
769.125	0.07886896
769.311	0.07892462
769.496	0.07905002
769.682	0.07911328
769.867	0.07920623
770.052	0.07923573
770.238	0.0791983
770.423	0.07917725
770.608	0.07914511
770.794	0.07902035
770.979	0.07899042
771.164	0.07899899
771.35	0.07888494
771.535	0.07891073
771.72	0.07891791
771.905	0.07898392
772.09	0.07896579
772.276	0.07882137
772.461	0.07864601
772.646	0.07864182
772.831	0.07858079
773.016	0.07850475
773.201	0.0784065
773.386	0.07843201
773.571	0.07854959
773.756	0.07865212
773.941	0.07873108
774.126	0.07889609
774.311	0.07904552
774.496	0.07921557
774.681	0.07926574
774.866	0.07936717
775.051	0.07948123
775.236	0.07958456
775.421	0.07952968
775.606	0.07954833
775.791	0.07945848
775.976	0.07944878
776.16	0.07929682
776.345	0.0791728
776.53	0.07908471
776.715	0.07911308
776.899	0.0790385
777.084	0.07901667
777.269	0.07905234
777.454	0.07913771
777.638	0.07925276
777.823	0.0793614
778.008	0.07943508
778.192	0.07954233
778.377	0.07961485
778.561	0.07964659
778.746	0.07961938
778.931	0.07950283
779.115	0.07935897
779.3	0.07921408
779.484	0.07911515
779.669	0.07900853
779.853	0.07892087
780.037	0.07885995
780.222	0.07880597
780.406	0.07870688
780.591	0.07860786
780.775	0.07849448
780.959	0.07842683
781.144	0.0783797
781.328	0.07841887
781.512	0.0784743
781.697	0.07857174
781.881	0.07878377
782.065	0.07894798
782.249	0.07905111
782.434	0.07911817
782.618	0.0791939
782.802	0.07927954
782.986	0.07935161
783.17	0.07927926
783.354	0.07925932
783.539	0.07933487
783.723	0.07937844
783.907	0.07937322
784.091	0.07928747
784.275	0.07915588
784.459	0.07904937
784.643	0.07890795
784.827	0.07881215
785.011	0.07867116
785.195	0.0785062
785.379	0.07839122
785.563	0.07837934
785.747	0.07830578
785.93	0.07824613
786.114	0.07808751
786.298	0.07792192
786.482	0.0778139
786.666	0.07770163
786.85	0.07759473
787.033	0.07763785
787.217	0.07757581
787.401	0.0776106
787.585	0.07764528
787.768	0.07769337
787.952	0.0777854
788.136	0.07785692
788.319	0.07784945
788.503	0.07799071
788.687	0.07802729
788.87	0.07809033
789.054	0.07811277
789.237	0.07814808
789.421	0.07817487
789.605	0.07817223
789.788	0.07808268
789.972	0.07798444
790.155	0.07794135
790.338	0.07786226
790.522	0.07777255
790.705	0.07773855
790.889	0.07773676
791.072	0.0778477
791.256	0.07801303
791.439	0.07818718
791.622	0.07841013
791.806	0.07865098
791.989	0.07882632
792.172	0.07896743
792.355	0.07897376
792.539	0.07885556
792.722	0.07877659
792.905	0.07865528
793.088	0.07857537
793.271	0.07848656
793.455	0.07846208
793.638	0.07852353
793.821	0.07871399
794.004	0.07877647
794.187	0.07891379
794.37	0.07895316
794.553	0.07895988
794.736	0.07891148
794.919	0.07889821
795.102	0.07883269
795.285	0.07896028
795.468	0.07901527
795.651	0.07905172
795.834	0.0791651
796.017	0.07931694
796.2	0.07945623
796.383	0.07961879
796.566	0.07963508
796.749	0.07959732
796.931	0.07959318
797.114	0.0795407
797.297	0.07950711
797.48	0.07941861
797.663	0.07937861
797.845	0.07935692
798.028	0.07942939
798.211	0.07951755
798.393	0.07972523
798.576	0.07992082
798.759	0.0800762
798.941	0.08029914
799.124	0.08048839
799.307	0.08060432
799.489	0.08069229
799.672	0.08064982
799.854	0.08057911
800.037	0.08059392
800.219	0.08051513
800.402	0.08039982
800.584	0.08037937
800.767	0.08048039
800.949	0.08060586
801.132	0.08070219
801.314	0.08069721
801.496	0.08073936
801.679	0.08089354
801.861	0.08099346
802.043	0.08105221
802.226	0.08106359
802.408	0.08100647
802.59	0.08103094
802.772	0.08093845
802.955	0.08090461
803.137	0.08084761
803.319	0.08069689
803.501	0.08053631
803.684	0.08046317
803.866	0.08039495
804.048	0.08042684
804.23	0.08046073
804.412	0.08056033
804.594	0.08064923
804.776	0.08082367
804.958	0.08101517
805.14	0.08122155
805.322	0.08135671
805.504	0.08135509
805.686	0.081319
805.868	0.08130568
806.05	0.08134838
806.232	0.08139287
806.414	0.08135927
806.596	0.08140394
806.778	0.08143915
806.96	0.08147063
807.141	0.08146987
807.323	0.08132784
807.505	0.08112067
807.687	0.0810016
807.869	0.08081288
808.05	0.08060069
808.232	0.08038325
808.414	0.08023064
808.595	0.08020767
808.777	0.08020633
808.959	0.08020823
809.14	0.08018304
809.322	0.08026414
809.504	0.08056454
809.685	0.08075671
809.867	0.08094556
810.048	0.08104128
810.23	0.08103301
810.411	0.08111792
810.593	0.08113241
810.774	0.08097071
810.956	0.08085852
811.137	0.08067874
811.319	0.08060878
811.5	0.08068858
811.681	0.08068324
811.863	0.08080564
812.044	0.08100314
812.225	0.0812489
812.407	0.08147266
812.588	0.08166157
812.769	0.08174514
812.951	0.08188726
813.132	0.08193552
813.313	0.08192603
813.494	0.08188206
813.675	0.08193113
813.857	0.0820403
814.038	0.08220213
814.219	0.08235754
814.4	0.08261753
814.581	0.08288906
814.762	0.08312602
814.943	0.08328519
815.124	0.08333574
815.305	0.08337769
815.486	0.08340573
815.667	0.08324305
815.848	0.08309477
816.029	0.08298249
816.21	0.08295336
816.391	0.08299187
816.572	0.08293529
816.753	0.08289401
816.934	0.08286443
817.115	0.08271987
817.295	0.08263022
817.476	0.08245939
817.657	0.08233977
817.838	0.08234357
818.019	0.08227603
818.199	0.08231115
818.38	0.08240377
818.561	0.08241158
818.741	0.08245119
818.922	0.08252982
819.103	0.0825223
819.283	0.08254878
819.464	0.08261382
819.645	0.08271178
819.825	0.08286998
820.006	0.08297623
820.186	0.08299
820.367	0.08308332
820.547	0.08310629
820.728	0.0831279
820.908	0.08309538
821.089	0.08315703
821.269	0.08332295
821.45	0.08355123
821.63	0.08360096
821.81	0.08385577
821.991	0.08398073
822.171	0.08414779
822.351	0.08416979
822.532	0.08420476
822.712	0.08422084
822.892	0.08432926
823.072	0.08426431
823.253	0.08425281
823.433	0.08426097
823.613	0.08427688
823.793	0.08420621
823.973	0.08410231
824.154	0.08403462
824.334	0.08404534
824.514	0.08407835
824.694	0.08413291
824.874	0.08425709
825.054	0.08434628
825.234	0.08446199
825.414	0.08457486
825.594	0.08467604
825.774	0.08463238
825.954	0.08462194
826.134	0.08459783
826.314	0.08469672
826.494	0.08481223
826.674	0.08479859
826.854	0.08474878
827.033	0.0848395
827.213	0.08477438
827.393	0.08464755
827.573	0.08442424
827.753	0.08423467
827.932	0.08418945
828.112	0.08414951
828.292	0.08408125
828.472	0.08401784
828.651	0.08401762
828.831	0.08399354
829.011	0.08398894
829.19	0.08403547
829.37	0.08420201
829.549	0.0844342
829.729	0.08461415
829.909	0.08483714
830.088	0.08510445
830.268	0.08533073
830.447	0.08548444
830.627	0.08549295
830.806	0.0854507
830.986	0.08546373
831.165	0.0854619
831.344	0.08546406
831.524	0.08535622
831.703	0.08533809
831.883	0.08532206
832.062	0.08534682
832.241	0.08539827
832.421	0.08542946
832.6	0.08542092
832.779	0.08556592
832.958	0.08562716
833.138	0.08583509
833.317	0.08591724
833.496	0.08607309
833.675	0.08618155
833.854	0.08634151
834.034	0.08637692
834.213	0.0864293
834.392	0.08633377
834.571	0.08632618
834.75	0.08626594
834.929	0.08625702
835.108	0.0862007
835.287	0.08624298
835.466	0.08625291
835.645	0.08626276
835.824	0.08626655
836.003	0.08630465
836.182	0.08623931
836.361	0.08612254
836.54	0.0859709
836.719	0.08585982
836.897	0.08575429
837.076	0.0857153
837.255	0.08562955
837.434	0.08558694
837.613	0.08560491
837.791	0.08565237
837.97	0.08573918
838.149	0.08578216
838.328	0.08575718
838.506	0.08572424
838.685	0.08572323
838.864	0.08574067
839.042	0.08580939
839.221	0.08587521
839.4	0.08595692
839.578	0.08606355
839.757	0.08621319
839.935	0.08644661
840.114	0.08659522
840.292	0.08670203
840.471	0.08676111
840.649	0.08686922
840.828	0.08691603
841.006	0.08692204
841.185	0.08682326
841.363	0.08673932
841.541	0.08667951
841.72	0.08659296
841.898	0.08646382
842.076	0.08632421
842.255	0.08627129
842.433	0.08628621
842.611	0.08640615
842.789	0.08638432
842.968	0.0864049
843.146	0.08644028
843.324	0.08655271
843.502	0.08659494
843.68	0.08662039
843.859	0.08646251
844.037	0.08638054
844.215	0.08620204
844.393	0.08604679
844.571	0.08594461
844.749	0.08579777
844.927	0.08565204
845.105	0.08559326
845.283	0.08571993
845.461	0.08583734
845.639	0.08591604
845.817	0.08608203
845.995	0.08634524
846.173	0.08651046
846.351	0.08661307
846.529	0.08648138
846.706	0.08640151
846.884	0.08640484
847.062	0.08612139
847.24	0.08569596
847.418	0.08539242
847.595	0.0852324
847.773	0.08521909
847.951	0.08521292
848.129	0.08527759
848.306	0.08543467
848.484	0.08564836
848.662	0.08588835
848.839	0.08609578
849.017	0.08624722
849.194	0.08637996
849.372	0.08640583
849.549	0.0864552
849.727	0.08652828
849.905	0.08658435
850.082	0.0866576
850.26	0.08671257
850.437	0.08677553
850.614	0.08683756
850.792	0.0868865
850.969	0.08693887
851.147	0.08696324
851.324	0.08680832
851.501	0.08660039
851.679	0.08639223
851.856	0.0862706
852.033	0.08611068
852.211	0.0860411
852.388	0.0859184
852.565	0.08602861
852.742	0.08619022
852.92	0.08639083
853.097	0.08660106
853.274	0.08685051
853.451	0.08686144
853.628	0.08688243
853.805	0.08686259
853.982	0.08681587
854.159	0.08664914
854.336	0.08646654
854.514	0.08629456
854.691	0.08622107
854.868	0.08615941
855.045	0.08611491
855.221	0.08600075
855.398	0.08600668
855.575	0.08592266
855.752	0.08588036
855.929	0.08595798
856.106	0.08597016
856.283	0.08597055
856.46	0.08599509
856.637	0.08603397
856.813	0.08611324
856.99	0.08614097
857.167	0.08602239
857.344	0.08604758
857.52	0.08605661
857.697	0.08602598
857.874	0.08590992
858.05	0.08585781
858.227	0.08584632
858.404	0.08579554
858.58	0.08579782
858.757	0.08568581
858.933	0.08558664
859.11	0.08545413
859.287	0.08513328
859.463	0.08485465
859.64	0.08484309
859.816	0.08474465
859.993	0.08474785
860.169	0.08479772
860.345	0.08489685
860.522	0.08506019
860.698	0.08506821
860.875	0.08497822
861.051	0.08483777
861.227	0.08467744
861.404	0.08467843
861.58	0.08467733
861.756	0.08480284
861.932	0.08498705
862.109	0.08512257
862.285	0.0852558
862.461	0.08547903
862.637	0.08555369
862.813	0.08565919
862.99	0.08562026
863.166	0.08562326
863.342	0.0855849
863.518	0.08556315
863.694	0.08549239
863.87	0.08539692
864.046	0.08543512
864.222	0.08543125
864.398	0.08540503
864.574	0.08542271
864.75	0.08550804
864.926	0.08553369
865.102	0.08555159
865.278	0.08541862
865.454	0.08549395
865.63	0.08552164
865.805	0.08548995
865.981	0.08546358
866.157	0.08541079
866.333	0.08547901
866.509	0.08557161
866.684	0.08572427
866.86	0.08583418
867.036	0.08593322
867.212	0.08585048
867.387	0.08578087
867.563	0.08569066
867.739	0.08561259
867.914	0.08540622
868.09	0.08522772
868.265	0.0850809
868.441	0.08508227
868.617	0.08504482
868.792	0.08490049
868.968	0.08481815
869.143	0.08482604
869.319	0.0848787
869.494	0.0849614
869.67	0.08499667
869.845	0.08520015
870.02	0.08543277
870.196	0.08567132
870.371	0.08566751
870.546	0.08571148
870.722	0.08587268
870.897	0.08605336
871.072	0.08597141
871.248	0.08594135
871.423	0.08569331
871.598	0.08544981
871.773	0.08518061
871.949	0.08476398
872.124	0.0844606
872.299	0.084297
872.474	0.08409504
872.649	0.08395232
872.824	0.08400521
872.999	0.08404116
873.174	0.08407417
873.349	0.08397192
873.524	0.08384708
873.699	0.08363694
873.874	0.08359331
874.049	0.08349137
874.224	0.08332276
874.399	0.08318885
874.574	0.08311652
874.749	0.08306701
874.924	0.08308173
875.099	0.08304547
875.274	0.0829682
875.449	0.08299152
875.623	0.08295362
875.798	0.08281666
875.973	0.0826796
876.148	0.08257062
876.322	0.08239098
876.497	0.08230666
876.672	0.08211886
876.846	0.08197954
877.021	0.08178353
877.196	0.08170487
877.37	0.08173209
877.545	0.08191122
877.72	0.08195904
877.894	0.08201299
878.069	0.08191832
878.243	0.08198895
878.418	0.08193655
878.592	0.08180909
878.767	0.08167207
878.941	0.08152702
879.116	0.08139037
879.29	0.08148424
879.464	0.08171186
879.639	0.08191412
879.813	0.08213995
879.987	0.08220816
880.162	0.08210281
880.336	0.08220992
880.51	0.08217081
880.685	0.08184681
880.859	0.08171589
881.033	0.0815198
881.207	0.08141263
881.381	0.0815035
881.556	0.08144256
881.73	0.08135397
881.904	0.08138416
882.078	0.0811858
882.252	0.08096476
882.426	0.08081059
882.6	0.08070088
882.774	0.08071468
882.948	0.0808966
883.122	0.0808748
883.296	0.08088513
883.47	0.08102619
883.644	0.08106478
883.818	0.08109386
883.992	0.08096468
884.166	0.0807541
884.34	0.08068011
884.514	0.08079224
884.687	0.08070074
884.861	0.08055214
885.035	0.08044282
885.209	0.08051219
885.382	0.0805765
885.556	0.08062759
885.73	0.0806586
885.904	0.08079254
886.077	0.08085555
886.251	0.08094242
886.425	0.08098277
886.598	0.08101674
886.772	0.081084
886.945	0.0810908
887.119	0.08118537
887.292	0.08131816
887.466	0.08134271
887.64	0.08131123
887.813	0.08124357
887.986	0.08111989
888.16	0.08106137
888.333	0.08091594
888.507	0.08094453
888.68	0.0810231
888.854	0.0809333
889.027	0.08085448
889.2	0.08090207
889.374	0.08081283
889.547	0.08067885
889.72	0.08055944
889.893	0.08038065
890.067	0.08028774
890.24	0.08023058
890.413	0.08007404
890.586	0.08002465
890.759	0.08007852
890.933	0.07992606
891.106	0.07977051
891.279	0.07966053
891.452	0.07962776
891.625	0.07956234
891.798	0.07943587
891.971	0.07925686
892.144	0.07908483
892.317	0.07903313
892.49	0.07890028
892.663	0.07881791
892.836	0.0786962
893.009	0.07850951
893.182	0.07821154
893.355	0.07795084
893.527	0.07779556
893.7	0.0777315
893.873	0.07759876
894.046	0.0775214
894.219	0.07750674
894.391	0.07748728
894.564	0.07767532
894.737	0.07754512
894.91	0.07742948
895.082	0.07716006
895.255	0.0769228
895.428	0.07666078
895.6	0.07664144
895.773	0.07639254
895.945	0.07633577
896.118	0.07628545
896.291	0.07630292
896.463	0.0762409
896.636	0.07627394
896.808	0.07620476
896.981	0.0763204
897.153	0.07623847
897.326	0.07620928
897.498	0.07613943
897.67	0.07619008
897.843	0.07625791
898.015	0.07620804
898.187	0.07611619
898.36	0.07616961
898.532	0.07605338
898.704	0.07614029
898.877	0.07608767
899.049	0.07602498
899.221	0.07604681
899.393	0.07611848
899.566	0.07618651
899.738	0.07636789
899.91	0.07633808
900.082	0.07654026
900.254	0.07660505
900.426	0.07669329
900.598	0.07666424
900.77	0.07656524
900.942	0.07641492
901.114	0.07626566
901.286	0.07590657
901.458	0.07567626
901.63	0.0754794
901.802	0.0753362
901.974	0.07520595
902.146	0.07504484
902.318	0.07507796
902.49	0.07508573
902.662	0.07505305
902.834	0.07499461
903.005	0.07487141
903.177	0.074739
903.349	0.07471323
903.521	0.07450086
903.693	0.07441868
903.864	0.07443783
904.036	0.07436389
904.208	0.07434242
904.379	0.0744317
904.551	0.07440167
904.723	0.07424013
904.894	0.07419213
905.066	0.07404939
905.237	0.0738552
905.409	0.07346764
905.58	0.07312285
905.752	0.07286913
905.923	0.07274148
906.095	0.07255788
906.266	0.07239621
906.438	0.07234603
906.609	0.07247016
906.78	0.07240823
906.952	0.07237644
907.123	0.0723914
907.295	0.07221395
907.466	0.07202588
907.637	0.07175727
907.808	0.0715071
907.98	0.07129054
908.151	0.07104989
908.322	0.07084218
908.493	0.07075287
908.665	0.07057065
908.836	0.0705266
909.007	0.07039867
909.178	0.07047258
909.349	0.07047336
909.52	0.07048078
909.691	0.07047339
909.862	0.07054941
910.033	0.07062072
910.204	0.07082316
910.375	0.07078375
910.546	0.07098132
910.717	0.07099529
910.888	0.0711527
911.059	0.07118596
911.23	0.0712428
911.401	0.07119484
911.572	0.0713285
911.742	0.07124934
911.913	0.07136481
912.084	0.07137137
912.255	0.07141548
912.426	0.07136238
912.596	0.0713213
912.767	0.07120371
912.938	0.07102887
913.108	0.07087866
913.279	0.07071839
913.45	0.07053297
913.62	0.0704056
913.791	0.07031233
913.962	0.07027225
914.132	0.07035651
914.303	0.07037632
914.473	0.07034127
914.644	0.07035619
914.814	0.0702679
914.985	0.07022228
915.155	0.06995266
915.326	0.06965871
915.496	0.06940777
915.666	0.06926748
915.837	0.06920008
916.007	0.06901702
916.177	0.06877815
916.348	0.06873453
916.518	0.06867919
916.688	0.06850693
916.858	0.06836003
917.029	0.06807923
917.199	0.06801648
917.369	0.06793493
917.539	0.0678977
917.709	0.06785362
917.88	0.06785761
918.05	0.06771052
918.22	0.06771361
918.39	0.06772262
918.56	0.06769311
918.73	0.06769545
918.9	0.06772446
919.07	0.0678425
919.24	0.06794909
919.41	0.06795758
919.58	0.06792045
919.75	0.06793102
919.92	0.06787051
920.09	0.06773303
920.26	0.06746632
920.429	0.0674262
920.599	0.06726875
920.769	0.06723303
920.939	0.06726075
921.109	0.06715116
921.278	0.06710391
921.448	0.06722692
921.618	0.06701818
921.787	0.06701283
921.957	0.06699783
922.127	0.06680519
922.296	0.06680071
922.466	0.06670548
922.636	0.0664331
922.805	0.06628096
922.975	0.06599454
923.144	0.06556462
923.314	0.06521823
923.483	0.06487939
923.653	0.06449592
923.822	0.06420589
923.992	0.06403379
924.161	0.06398525
924.331	0.06382479
924.5	0.06370805
924.669	0.06364161
924.839	0.06365009
925.008	0.0636687
925.177	0.06360861
925.347	0.0635578
925.516	0.06361917
925.685	0.06363497
925.854	0.06367694
926.023	0.063706
926.193	0.06373421
926.362	0.0638043
926.531	0.06387371
926.7	0.06392138
926.869	0.06402327
927.038	0.06382712
927.207	0.06383903
927.376	0.06381094
927.545	0.06373609
927.715	0.06357445
927.884	0.06347529
928.052	0.06328399
928.221	0.06319731
928.39	0.06297245
928.559	0.06271658
928.728	0.06253687
928.897	0.06248195
929.066	0.06233108
929.235	0.06229296
929.404	0.06232776
929.572	0.06224057
929.741	0.06224384
929.91	0.06217447
930.079	0.06185635
930.247	0.0617474
930.416	0.06153765
930.585	0.06130786
930.753	0.0613017
930.922	0.06126677
931.091	0.0612654
931.259	0.06142326
931.428	0.0615161
931.596	0.06175568
931.765	0.06204707
931.934	0.06216351
932.102	0.06225603
932.27	0.06238004
932.439	0.06237682
932.607	0.06226554
932.776	0.06207259
932.944	0.06179885
933.113	0.06162128
933.281	0.06133248
933.449	0.06102905
933.618	0.06094639
933.786	0.06087022
933.954	0.06090596
934.123	0.06081249
934.291	0.06082639
934.459	0.06115887
934.627	0.06135242
934.795	0.06143835
934.964	0.06150397
935.132	0.06150885
935.3	0.06148983
935.468	0.06151544
935.636	0.06125731
935.804	0.06126444
935.972	0.06119152
936.14	0.06120619
936.308	0.06116672
936.476	0.06158677
936.644	0.06176039
936.812	0.06195029
936.98	0.06191234
937.148	0.06212136
937.316	0.06232669
937.484	0.06256478
937.652	0.06238488
937.82	0.06247186
937.987	0.0626592
938.155	0.06276827
938.323	0.0629437
938.491	0.06318676
938.658	0.06328185
938.826	0.06353962
938.994	0.06387372
939.162	0.06401835
939.329	0.06446893
939.497	0.06482637
939.665	0.06473584
939.832	0.0650246
940	0.06512257
940.167	0.06510963
940.335	0.06485731
940.502	0.06456232
940.67	0.06454815
940.837	0.06468631
941.005	0.06480565
941.172	0.0656341
941.34	0.06586925
941.507	0.06676735
941.674	0.06729258
941.842	0.06711577
942.009	0.06807116
942.177	0.0680777
942.344	0.06783247
942.511	0.06778134
942.678	0.06826183
942.846	0.06831094
943.013	0.06906745
943.18	0.06819466
943.347	0.06863337
943.514	0.06820037
943.682	0.06897869
943.849	0.06822283
944.016	0.06822973
944.183	0.06812394
944.35	0.06883921
944.517	0.06899796
944.684	0.0689506
944.851	0.06713878
945.018	0.06711876
945.185	0.06714343
945.352	0.06626201
945.519	0.06602349
945.686	0.06514728
945.853	0.06503288
946.02	0.06551139
946.187	0.06470063
946.353	0.0642079
946.52	0.06374549
946.687	0.06260819
946.854	0.06243069
947.021	0.0618064
947.187	0.06204081
947.354	0.0616233
947.521	0.06146111
947.687	0.0616106
947.854	0.06164783
948.021	0.06083748
948.187	0.06098041
948.354	0.06009385
948.52	0.06015872
948.687	0.06006644
948.854	0.06023311
949.02	0.06002613
949.187	0.06054109
949.353	0.06000556
949.52	0.05975711
949.686	0.05910496
949.852	0.05896033
950.019	0.0582852
950.185	0.05765938
950.352	0.05737109
950.518	0.05728769
950.684	0.05684508
950.851	0.05695052
951.017	0.05616278
951.183	0.05606532
951.349	0.05577096
951.516	0.05523628
951.682	0.05536481
951.848	0.05487824
952.014	0.05414542
952.18	0.05386211
952.346	0.05299148
952.512	0.05284845
952.679	0.05293316
952.845	0.05233283
953.011	0.05257777
953.177	0.05242826
953.343	0.0524687
953.509	0.05237235
953.675	0.0524636
953.841	0.05248489
954.007	0.05280232
954.172	0.05232337
954.338	0.0522214
954.504	0.05156723
954.67	0.05134082
954.836	0.05121402
955.002	0.05056631
955.167	0.04983905
955.333	0.04956926
955.499	0.04939631
955.665	0.04913222
955.83	0.04897872
955.996	0.04815858
956.162	0.04753051
956.327	0.04697371
956.493	0.04651858
956.659	0.04632332
956.824	0.04636346
956.99	0.04603048
957.155	0.04603099
957.321	0.04591929
957.486	0.04563143
957.652	0.04516096
957.817	0.04492997
957.983	0.04471208
958.148	0.04479234
958.314	0.04445963
958.479	0.04452002
958.644	0.04469274
958.81	0.04535642
958.975	0.04529342
959.14	0.04546246
959.306	0.04527545
959.471	0.04566251
959.636	0.04557065
959.801	0.04571667
959.967	0.0455942
960.132	0.04560827
960.297	0.04523361
960.462	0.04512266
960.627	0.04489824
960.792	0.04438115
960.957	0.04426202
961.123	0.04388259
961.288	0.04362339
961.453	0.04320627
961.618	0.04309783
961.783	0.04292051
961.948	0.04317069
962.113	0.04282235
962.277	0.04284037
962.442	0.04306752
962.607	0.04341665
962.772	0.04345494
962.937	0.04316156
963.102	0.04288806
963.267	0.04262324
963.431	0.04265402
963.596	0.04234661
963.761	0.04235934
963.926	0.04235102
964.09	0.04225062
964.255	0.04242323
964.42	0.04259551
964.584	0.0425012
964.749	0.04230051
964.914	0.04200173
965.078	0.04202101
965.243	0.04202859
965.407	0.04192512
965.572	0.04189921
965.736	0.04185596
965.901	0.04208755
966.065	0.04221651
966.23	0.04187504
966.394	0.04216049
966.559	0.04198603
966.723	0.04215948
966.887	0.04215184
967.052	0.04211931
967.216	0.04198801
967.38	0.04186652
967.545	0.04197916
967.709	0.04217104
967.873	0.04203674
968.037	0.0418175
968.202	0.04177489
968.366	0.04192589
968.53	0.04221006
968.694	0.0419357
968.858	0.0420763
969.022	0.04184792
969.187	0.04178824
969.351	0.04175497
969.515	0.04165831
969.679	0.04162486
969.843	0.0415159
970.007	0.04131097
970.171	0.0414964
970.335	0.04130076
970.499	0.04112735
970.662	0.04112044
970.826	0.04107859
970.99	0.04116079
971.154	0.04098873
971.318	0.04081384
971.482	0.0408712
971.645	0.04102101
971.809	0.0408673
971.973	0.04049334
972.137	0.04023309
972.3	0.04027725
972.464	0.04050301
972.628	0.0404372
972.791	0.04035631
972.955	0.04042209
973.119	0.04048989
973.282	0.04043272
973.446	0.04013534
973.609	0.03969714
973.773	0.03956558
973.936	0.03926251
974.1	0.03889362
974.263	0.03870649
974.427	0.03864583
974.59	0.03838425
974.754	0.03817448
974.917	0.03824439
975.08	0.03783502
975.244	0.0376167
975.407	0.03752077
975.57	0.03734556
975.734	0.03736194
975.897	0.03739102
976.06	0.03700412
976.223	0.03690924
976.387	0.03671651
976.55	0.03624803
976.713	0.03610872
976.876	0.03608746
977.039	0.03581986
977.202	0.03586659
977.365	0.03598856
977.528	0.03616146
977.692	0.03642925
977.855	0.03619111
978.018	0.03611278
978.181	0.03603121
978.344	0.03573358
978.506	0.03563513
978.669	0.03570323
978.832	0.03579492
978.995	0.0358858
979.158	0.03582412
979.321	0.03602008
979.484	0.03630419
979.646	0.03665501
979.809	0.03663084
979.972	0.03652302
980.135	0.03675561
980.297	0.03686594
980.46	0.03699569
980.623	0.0369695
980.786	0.0365732
980.948	0.0363646
981.111	0.03639382
981.273	0.03640396
981.436	0.0362075
981.599	0.03603331
981.761	0.03592452
981.924	0.03617114
982.086	0.03616663
982.249	0.03610733
982.411	0.03590358
982.573	0.03572899
982.736	0.03553226
982.898	0.03544882
983.061	0.03522109
983.223	0.03510427
983.385	0.0351724
983.548	0.03530805
983.71	0.03555427
983.872	0.03551502
984.034	0.03580404
984.197	0.03599224
984.359	0.03603105
984.521	0.03598318
984.683	0.0356072
984.845	0.03538214
985.008	0.03569571
985.17	0.03537935
985.332	0.0351181
985.494	0.03488331
985.656	0.03464148
985.818	0.03433731
985.98	0.03433093
986.142	0.03373426
986.304	0.03322374
986.466	0.0330238
986.628	0.03287656
986.79	0.0328284
986.952	0.03330122
987.113	0.03315545
987.275	0.03325614
987.437	0.03349514
987.599	0.03343853
987.761	0.03363211
987.922	0.03361838
988.084	0.03328494
988.246	0.0335791
988.408	0.03360027
988.569	0.03423851
988.731	0.03431556
988.893	0.03398323
989.054	0.03381967
989.216	0.03405683
989.377	0.03377614
989.539	0.03374233
989.701	0.03313931
989.862	0.03291375
990.024	0.03293564
990.185	0.03274515
990.347	0.03256828
990.508	0.03260266
990.669	0.03241985
990.831	0.03239878
990.992	0.03269275
991.154	0.03263148
991.315	0.03323715
991.476	0.03293787
991.638	0.03279481
991.799	0.03288905
991.96	0.03316815
992.121	0.0332011
992.283	0.03347368
992.444	0.03300277
992.605	0.03346109
992.766	0.03342182
992.927	0.03329
993.088	0.03288162
993.249	0.03250549
993.41	0.03218025
993.572	0.03238723
993.733	0.03210912
993.894	0.0319319
994.055	0.03168172
994.216	0.03192814
994.376	0.03205447
994.537	0.03210126
994.698	0.03183913
994.859	0.03144418
995.02	0.03147196
995.181	0.03146594
995.342	0.03103195
995.503	0.03039486
995.663	0.0298148
995.824	0.02932528
995.985	0.02964757
996.146	0.029367
996.306	0.0291984
996.467	0.02900802
996.628	0.02923412
996.788	0.0300083
996.949	0.0301873
997.11	0.03008276
997.27	0.03000252
997.431	0.03011862
997.591	0.0298429
997.752	0.0300747
997.912	0.0299683
998.073	0.02990371
998.233	0.02967756
998.394	0.02985064
998.554	0.02966201
998.714	0.03008317
998.875	0.0296967
999.035	0.02901145
999.196	0.02905841
999.356	0.02915111
999.516	0.02905592
999.676	0.02956493
999.837	0.02937588
999.997	0.02939928
1000.157	0.02961273
1000.317	0.02905756
1000.477	0.02868834
1000.638	0.02862601
1000.798	0.02829197
1000.958	0.02840936
1001.118	0.02841928
1001.278	0.02847765
1001.438	0.02875867
1001.598	0.02891711
1001.758	0.02909987
1001.918	0.02895391
1002.078	0.0286314
1002.238	0.02910735
1002.398	0.02914224
1002.558	0.02953759
1002.718	0.02988029
1002.878	0.02996336
1003.037	0.02952511
1003.197	0.02990713
1003.357	0.02972943
1003.517	0.0297916
1003.677	0.02932605
1003.836	0.02875818
1003.996	0.02854247
1004.156	0.02885506
1004.315	0.0281612
1004.475	0.0273325
1004.635	0.02752407
1004.794	0.02698213
1004.954	0.02699054
1005.114	0.02673247
1005.273	0.02700056
1005.433	0.02756249
1005.592	0.02739799
1005.752	0.02663495
1005.911	0.02690666
1006.071	0.02693285
1006.23	0.02687575
1006.389	0.0263645
1006.549	0.02624818
1006.708	0.0271672
1006.868	0.02727553
1007.027	0.02782047
1007.186	0.02798854
1007.345	0.02859761
1007.505	0.02891692
1007.664	0.02864788
1007.823	0.02851169
1007.982	0.02869776
1008.142	0.02854326
1008.301	0.02850741
1008.46	0.02764791
1008.619	0.02733535
1008.778	0.02806373
1008.937	0.02828464
1009.096	0.02828407
1009.255	0.02850275
1009.414	0.02834925
1009.573	0.02854208
1009.732	0.02923046
1009.891	0.02859324
1010.05	0.02844081
1010.209	0.02863301
1010.368	0.0284259
1010.527	0.02884302
1010.686	0.02861259
1010.845	0.02892006
1011.003	0.02915665
1011.162	0.02898422
1011.321	0.02894409
1011.48	0.03001226
1011.638	0.03037041
1011.797	0.03115553
1011.956	0.02993754
1012.115	0.03057398
1012.273	0.02998826
1012.432	0.03029262
1012.59	0.02942511
1012.749	0.02887067
1012.908	0.02792843
1013.066	0.02883242
1013.225	0.02843956
1013.383	0.02881262
1013.542	0.02865501
1013.7	0.02793104
1013.859	0.0275284
1014.017	0.02902077
1014.175	0.02774571
1014.334	0.02735443
1014.492	0.02763298
1014.65	0.02709684
1014.809	0.02759851
1014.967	0.02721601
1015.125	0.02616811
1015.284	0.02731202
1015.442	0.02721503
1015.6	0.02761628
1015.758	0.02788551
1015.916	0.02797499
1016.075	0.02800788
1016.233	0.02816446
1016.391	0.02758693
1016.549	0.02805983
1016.707	0.02765934
1016.865	0.02773909
1017.023	0.0282998
1017.181	0.02894844
1017.339	0.02873896
1017.497	0.02868896
1017.655	0.02882985
1017.813	0.02945264
1017.971	0.02908881
1018.129	0.02878609
1018.286	0.02916685
1018.444	0.02954591
1018.602	0.03008812
1018.76	0.02950297
1018.918	0.02924289
1019.075	0.02877102
1019.233	0.02761873
1019.391	0.02717736
1019.549	0.02784362
1019.706	0.02804161
1019.864	0.02936271
1020.022	0.02986153
1020.179	0.03216089
1020.337	0.03428528
1020.494	0.03456708
1020.652	0.0339223
1020.809	0.03433246
1020.967	0.0333694
1021.124	0.03346379
1021.282	0.03303269
1021.439	0.03276651
1021.597	0.03253182
1021.754	0.03296343
1021.911	0.03313655
1022.069	0.03320134
1022.226	0.03158707
1022.384	0.03203198
1022.541	0.03221081
1022.698	0.03273776
1022.855	0.03278929
1023.013	0.03210669
1023.17	0.03215888
1023.327	0.03435766
1023.484	0.03255355
1023.641	0.03214796
1023.798	0.03265938
1023.956	0.03352443
1024.113	0.03379816
1024.27	0.03468167
1024.427	0.03377625
1024.584	0.03571556
1024.741	0.03589796
1024.898	0.03534952
1025.055	0.03531037
1025.212	0.03463907
1025.369	0.03445982
1025.525	0.0340664
1025.682	0.03441371
1025.839	0.0347774
1025.996	0.03664434
1026.153	0.03601661
1026.31	0.03802022
1026.466	0.0368151
1026.623	0.03786956
1026.78	0.03859795
1026.937	0.03874457
1027.093	0.03827263
1027.25	0.03891372
1027.407	0.03925066
1027.563	0.04124967
1027.72	0.04073718
1027.876	0.03810525
1028.033	0.03934501
1028.19	0.03896816
1028.346	0.03663397
1028.503	0.03587739
1028.659	0.03576102
1028.816	0.0365868
1028.972	0.03871206
1029.128	0.03759628
1029.285	0.03409163
1029.441	0.03527837
1029.598	0.0357572
1029.754	0.03600421
1029.91	0.03590659
1030.067	0.03516621
1030.223	0.03451888
1030.379	0.0362037
1030.535	0.03715214
1030.691	0.03694077
1030.848	0.03740597
1031.004	0.03635796
1031.16	0.03743247
1031.316	0.03962533
1031.472	0.04244008
1031.628	0.04397676
1031.784	0.04644948
1031.94	0.04628374
1032.096	0.04878144
1032.252	0.04848077
1032.408	0.04787282
1032.564	0.0463381
1032.72	0.04886954
1032.876	0.04522402
1033.032	0.04357712
1033.188	0.04247885
1033.344	0.04251596
1033.5	0.04221867
1033.655	0.04350664
1033.811	0.03975343
1033.967	0.04171156
