Data from 1_mm_pl_40pc_Absorbance__0__17-22-05-587.txt Node

Date: Wed Mar 08 17:22:05 CET 2023
User: Ange
Spectrometer: FLMT08341
Trigger mode: 0
Integration Time (sec): 1.000000E-2
Scans to average: 400
Electric dark correction enabled: true
Nonlinearity correction enabled: false
Boxcar width: 3
XAxis mode: Wavelengths
Number of Pixels in Spectrum: 3648
>>>>>Begin Spectral Data<<<<<
345.271	0.02452211
345.487	0.02183303
345.704	0.01440699
345.921	0.01278508
346.137	0.01922943
346.354	-0.00144399
346.571	-0.00051114
346.787	-0.02955872
347.004	0.03092944
347.22	-0.08699988
347.437	-0.00904963
347.653	0.18602267
347.87	0.00168403
348.086	0.37602803
348.303	0.11233709
348.519	0.26556824
348.736	0.24551538
348.952	0.25592795
349.169	0.26137157
349.385	0.26949942
349.601	0.26975524
349.818	0.26928836
350.034	0.26564493
350.251	0.26363773
350.467	0.26760174
350.683	0.26206357
350.9	0.2629554
351.116	0.26003527
351.332	0.25892767
351.549	0.26801474
351.765	0.27557346
351.981	0.27872404
352.197	0.28960332
352.414	0.29805173
352.63	0.3027252
352.846	0.31099637
353.062	0.30635343
353.278	0.30382966
353.495	0.30974825
353.711	0.3099373
353.927	0.3141952
354.143	0.31544175
354.359	0.31191511
354.575	0.31186252
354.792	0.31732643
355.008	0.31267659
355.224	0.31196254
355.44	0.30946125
355.656	0.30700866
355.872	0.31218423
356.088	0.32654051
356.304	0.328765
356.52	0.33167425
356.736	0.33604725
356.952	0.33928875
357.168	0.34541799
357.384	0.35015942
357.6	0.3404771
357.816	0.34719546
358.032	0.35152655
358.248	0.36108827
358.464	0.36157101
358.679	0.3644503
358.895	0.36318731
359.111	0.37236745
359.327	0.36487254
359.543	0.36703424
359.759	0.36943924
359.974	0.3693919
360.19	0.37098159
360.406	0.3733879
360.622	0.36978562
360.838	0.3708255
361.053	0.37447646
361.269	0.37261859
361.485	0.37697156
361.701	0.38086913
361.916	0.37903048
362.132	0.38022289
362.348	0.38597835
362.563	0.3895243
362.779	0.38962085
362.995	0.39294876
363.21	0.39507975
363.426	0.39778384
363.641	0.39943959
363.857	0.40204412
364.073	0.39904949
364.288	0.398721
364.504	0.40531251
364.719	0.40772696
364.935	0.40938296
365.15	0.41299268
365.366	0.41470217
365.581	0.4196409
365.797	0.42313094
366.012	0.41826677
366.228	0.41413727
366.443	0.42045529
366.658	0.42299599
366.874	0.42040001
367.089	0.42479493
367.305	0.42811234
367.52	0.43008903
367.735	0.43236607
367.951	0.42905834
368.166	0.43204286
368.381	0.44179961
368.597	0.43971055
368.812	0.4427617
369.027	0.44710868
369.243	0.45100267
369.458	0.4623441
369.673	0.46307132
369.888	0.46284939
370.104	0.46072252
370.319	0.46305665
370.534	0.46270248
370.749	0.46483364
370.964	0.46409511
371.179	0.46408099
371.395	0.46170202
371.61	0.46903534
371.825	0.46488975
372.04	0.46723452
372.255	0.46619886
372.47	0.46282218
372.685	0.4626397
372.9	0.46351714
373.115	0.4600914
373.33	0.46500608
373.545	0.46684289
373.76	0.47026906
373.975	0.4695
374.19	0.4702038
374.405	0.47472277
374.62	0.48221586
374.835	0.48526581
375.05	0.48720229
375.265	0.4898974
375.48	0.49456884
375.695	0.5024719
375.91	0.50143595
376.125	0.49609664
376.339	0.4922662
376.554	0.4924013
376.769	0.49386563
376.984	0.4943163
377.199	0.49505474
377.414	0.49625966
377.628	0.50193602
377.843	0.50779591
378.058	0.51091802
378.273	0.51289974
378.487	0.51566203
378.702	0.51660331
378.917	0.51916346
379.131	0.51877733
379.346	0.51522283
379.561	0.51394873
379.775	0.51265453
379.99	0.51124882
380.205	0.50904261
380.419	0.50574335
380.634	0.50278012
380.848	0.50697434
381.063	0.50841944
381.278	0.51396797
381.492	0.51360046
381.707	0.51927954
381.921	0.52214101
382.136	0.5303271
382.35	0.52984585
382.565	0.52980187
382.779	0.52910795
382.994	0.53196023
383.208	0.52945489
383.422	0.53499192
383.637	0.53363407
383.851	0.5377171
384.066	0.54017307
384.28	0.54376979
384.494	0.54564491
384.709	0.54926875
384.923	0.54944827
385.137	0.54908497
385.352	0.55024477
385.566	0.55381698
385.78	0.55300304
385.995	0.55251805
386.209	0.55175919
386.423	0.5553715
386.637	0.55820239
386.852	0.55566856
387.066	0.55465424
387.28	0.55244823
387.494	0.55690606
387.708	0.55839522
387.923	0.5562677
388.137	0.5587944
388.351	0.56301621
388.565	0.56695724
388.779	0.57095374
388.993	0.57556083
389.207	0.57779719
389.421	0.58060822
389.635	0.57981915
389.85	0.58046444
390.064	0.5809821
390.278	0.58266965
390.492	0.58286941
390.706	0.58520602
390.92	0.58518791
391.134	0.5892776
391.348	0.59455779
391.561	0.59302382
391.775	0.59235434
391.989	0.58926945
392.203	0.59052428
392.417	0.59347203
392.631	0.59611987
392.845	0.5935365
393.059	0.59921895
393.273	0.60051041
393.486	0.59995158
393.7	0.59838159
393.914	0.60077292
394.128	0.59918462
394.342	0.59954315
394.555	0.59514383
394.769	0.59568297
394.983	0.59931272
395.197	0.60115064
395.41	0.60066564
395.624	0.60171239
395.838	0.60217972
396.051	0.60829498
396.265	0.60770831
396.479	0.60956566
396.692	0.61135165
396.906	0.6098197
397.12	0.61009911
397.333	0.61281125
397.547	0.61134414
397.76	0.61510408
397.974	0.61499169
398.187	0.61642132
398.401	0.62028107
398.614	0.62165091
398.828	0.62184285
399.041	0.62292203
399.255	0.62218276
399.468	0.62321216
399.682	0.62283556
399.895	0.62416137
400.109	0.62436702
400.322	0.62461457
400.536	0.62154243
400.749	0.6252378
400.962	0.62544248
401.176	0.62508327
401.389	0.62406181
401.602	0.62132152
401.816	0.62252122
402.029	0.62688441
402.242	0.62449437
402.456	0.62519264
402.669	0.62410189
402.882	0.62121605
403.095	0.62609091
403.309	0.62532432
403.522	0.62490531
403.735	0.62454871
403.948	0.6239069
404.161	0.62966811
404.375	0.63193321
404.588	0.63116845
404.801	0.63235197
405.014	0.63141014
405.227	0.63443664
405.44	0.63669527
405.653	0.63610312
405.866	0.63476099
406.079	0.63428243
406.293	0.63375965
406.506	0.63453323
406.719	0.63397245
406.932	0.63209569
407.145	0.629429
407.358	0.63336461
407.571	0.63216453
407.784	0.63301622
407.996	0.63323479
408.209	0.6309952
408.422	0.63056468
408.635	0.63207209
408.848	0.63126388
409.061	0.62915383
409.274	0.6281443
409.487	0.6269445
409.7	0.62795989
409.912	0.62887026
410.125	0.62808647
410.338	0.62704485
410.551	0.62808304
410.764	0.6282778
410.976	0.62830908
411.189	0.62769313
411.402	0.62555977
411.615	0.62599855
411.827	0.62606557
412.04	0.62645957
412.253	0.62539082
412.465	0.62425813
412.678	0.6239467
412.891	0.62568517
413.103	0.6221144
413.316	0.62089542
413.529	0.62162265
413.741	0.62262862
413.954	0.62352089
414.166	0.62327929
414.379	0.6217837
414.591	0.62332383
414.804	0.62162233
415.016	0.62032499
415.229	0.61822659
415.441	0.61613387
415.654	0.61605598
415.866	0.61539838
416.079	0.61524719
416.291	0.61477461
416.504	0.61516373
416.716	0.61547304
416.928	0.6152091
417.141	0.61298117
417.353	0.61324159
417.566	0.61021704
417.778	0.60984705
417.99	0.60635649
418.203	0.60387523
418.415	0.60315678
418.627	0.60302231
418.839	0.60116812
419.052	0.60273567
419.264	0.60193819
419.476	0.60192248
419.688	0.60148004
419.901	0.60038183
420.113	0.59894967
420.325	0.59723804
420.537	0.59438661
420.749	0.59353982
420.961	0.5930864
421.174	0.59164688
421.386	0.58986012
421.598	0.58809879
421.81	0.58759048
422.022	0.5859393
422.234	0.58466603
422.446	0.58287793
422.658	0.5813097
422.87	0.58058507
423.082	0.57963641
423.294	0.57780415
423.506	0.57721353
423.718	0.57565508
423.93	0.57310726
424.142	0.57147618
424.354	0.56948053
424.566	0.56782691
424.778	0.56668065
424.99	0.56483406
425.202	0.56249041
425.414	0.5616968
425.625	0.56109587
425.837	0.55866459
426.049	0.55780527
426.261	0.55567409
426.473	0.55342162
426.684	0.55247314
426.896	0.55153056
427.108	0.54928092
427.32	0.54936629
427.531	0.54713508
427.743	0.54580687
427.955	0.54568633
428.167	0.54330285
428.378	0.54122924
428.59	0.5399658
428.802	0.53766118
429.013	0.53576106
429.225	0.53361836
429.436	0.53120263
429.648	0.53036686
429.86	0.52913534
430.071	0.52773563
430.283	0.52627747
430.494	0.52472497
430.706	0.52360876
430.917	0.52164205
431.129	0.51992354
431.34	0.51736624
431.552	0.51544194
431.763	0.51306781
431.975	0.51144521
432.186	0.50865052
432.398	0.50711708
432.609	0.50379428
432.821	0.50230016
433.032	0.50031433
433.243	0.49837311
433.455	0.49641186
433.666	0.49516599
433.877	0.49352799
434.089	0.49149231
434.3	0.48892774
434.511	0.48591578
434.723	0.48381575
434.934	0.48098137
435.145	0.47786737
435.356	0.47501737
435.568	0.47337804
435.779	0.47145283
435.99	0.46922685
436.201	0.46722106
436.412	0.46519933
436.624	0.46413745
436.835	0.46259073
437.046	0.46122871
437.257	0.45917611
437.468	0.45819467
437.679	0.45669258
437.89	0.45499107
438.101	0.45312219
438.312	0.4511874
438.523	0.44865048
438.734	0.44683027
438.945	0.44467369
439.156	0.44179483
439.367	0.43980795
439.578	0.43792185
439.789	0.43540706
440	0.43370609
440.211	0.43128037
440.422	0.42924652
440.633	0.42788709
440.844	0.42550033
441.055	0.42314341
441.266	0.42153211
441.477	0.41890038
441.687	0.41710874
441.898	0.41506607
442.109	0.4123333
442.32	0.4101562
442.531	0.40744396
442.741	0.40433405
442.952	0.40216445
443.163	0.39981828
443.374	0.39708273
443.584	0.39498914
443.795	0.39301206
444.006	0.391222
444.216	0.38932649
444.427	0.38692152
444.638	0.38463785
444.848	0.38257056
445.059	0.3803724
445.27	0.37805184
445.48	0.37538756
445.691	0.37345269
445.901	0.37170441
446.112	0.36969325
446.323	0.36740695
446.533	0.36515715
446.744	0.36274712
446.954	0.36087805
447.165	0.3586417
447.375	0.3567232
447.586	0.3546628
447.796	0.35282215
448.006	0.35081591
448.217	0.34909963
448.427	0.34701329
448.638	0.34467308
448.848	0.3423501
449.058	0.34016062
449.269	0.33796238
449.479	0.33589364
449.689	0.33372869
449.9	0.33179062
450.11	0.32977043
450.32	0.32814829
450.531	0.3261348
450.741	0.32401513
450.951	0.32218949
451.161	0.32015774
451.372	0.31807937
451.582	0.31677587
451.792	0.31444208
452.002	0.3124375
452.212	0.31036177
452.422	0.30836617
452.633	0.30636425
452.843	0.30476032
453.053	0.30192706
453.263	0.30019328
453.473	0.29825337
453.683	0.29668194
453.893	0.29452297
454.103	0.29299482
454.313	0.29107091
454.523	0.28959363
454.733	0.28758984
454.943	0.28588473
455.153	0.28411098
455.363	0.28238248
455.573	0.28026104
455.783	0.27813245
455.993	0.275991
456.203	0.2746444
456.413	0.27293119
456.623	0.27083503
456.833	0.2693814
457.042	0.26763837
457.252	0.2660868
457.462	0.26438456
457.672	0.26237904
457.882	0.26054118
458.091	0.25890003
458.301	0.25690702
458.511	0.2551715
458.721	0.25332357
458.931	0.25191209
459.14	0.25032999
459.35	0.24891578
459.56	0.24755842
459.769	0.24625172
459.979	0.24479963
460.189	0.24344057
460.398	0.24160547
460.608	0.24015206
460.817	0.23852809
461.027	0.23693752
461.237	0.23533028
461.446	0.23384168
461.656	0.23255284
461.865	0.23125188
462.075	0.22987669
462.284	0.22867867
462.494	0.22728853
462.703	0.22578646
462.913	0.22450152
463.122	0.22309908
463.332	0.22181515
463.541	0.22054608
463.751	0.21920248
463.96	0.21801923
464.169	0.216887
464.379	0.21580231
464.588	0.21453298
464.797	0.21345831
465.007	0.21232819
465.216	0.21116758
465.425	0.21012582
465.635	0.20920721
465.844	0.20808589
466.053	0.20706579
466.263	0.20606422
466.472	0.20490184
466.681	0.20384613
466.89	0.20263942
467.099	0.20140727
467.309	0.20023842
467.518	0.19929384
467.727	0.1982751
467.936	0.19727299
468.145	0.19624445
468.354	0.19545013
468.563	0.19453317
468.772	0.19356525
468.982	0.19248856
469.191	0.19163903
469.4	0.19067681
469.609	0.18981841
469.818	0.18892201
470.027	0.18804569
470.236	0.18715559
470.445	0.18638151
470.654	0.18531168
470.863	0.18448517
471.072	0.18366678
471.28	0.18271193
471.489	0.18201022
471.698	0.18135528
471.907	0.18068787
472.116	0.18007704
472.325	0.17938573
472.534	0.17863826
472.743	0.17800646
472.951	0.17721235
473.16	0.1765032
473.369	0.17579254
473.578	0.1750675
473.786	0.17451922
473.995	0.17394469
474.204	0.17341785
474.413	0.17282106
474.621	0.17225368
474.83	0.17182217
475.039	0.17139119
475.247	0.1707844
475.456	0.17031011
475.665	0.16971167
475.873	0.16921823
476.082	0.16854848
476.291	0.16801674
476.499	0.16761771
476.708	0.16708968
476.916	0.16665552
477.125	0.16635661
477.333	0.16600017
477.542	0.16577397
477.75	0.16529378
477.959	0.16484619
478.167	0.16454757
478.376	0.16413661
478.584	0.16369191
478.793	0.16331818
479.001	0.16304968
479.209	0.1627771
479.418	0.16246408
479.626	0.16221802
479.834	0.1620068
480.043	0.16180905
480.251	0.16163203
480.459	0.16126282
480.668	0.16109806
480.876	0.16089278
481.084	0.16062472
481.293	0.16044908
481.501	0.16026314
481.709	0.16014212
481.917	0.16006669
482.125	0.15991482
482.334	0.15978092
482.542	0.15972363
482.75	0.15960689
482.958	0.15952507
483.166	0.15942183
483.374	0.1593567
483.583	0.1593183
483.791	0.15924799
483.999	0.15920345
484.207	0.15911115
484.415	0.15900371
484.623	0.15889356
484.831	0.15885113
485.039	0.15875897
485.247	0.15876926
485.455	0.15866461
485.663	0.15860103
485.871	0.15865893
486.079	0.15862629
486.287	0.1586478
486.495	0.15863085
486.702	0.15860158
486.91	0.15863927
487.118	0.15869145
487.326	0.15868862
487.534	0.15884352
487.742	0.15904074
487.95	0.15919383
488.157	0.15936285
488.365	0.15963785
488.573	0.15994106
488.781	0.16023216
488.988	0.16043599
489.196	0.16060562
489.404	0.16079798
489.612	0.16106043
489.819	0.1612233
490.027	0.16137332
490.235	0.16150207
490.442	0.16165537
490.65	0.16175079
490.857	0.16207218
491.065	0.16234101
491.273	0.16263098
491.48	0.1629122
491.688	0.1632083
491.895	0.16359808
492.103	0.16397497
492.31	0.16429497
492.518	0.16449926
492.725	0.16475007
492.933	0.16499396
493.14	0.16528779
493.348	0.16554591
493.555	0.16584208
493.763	0.16604233
493.97	0.16642348
494.177	0.16685181
494.385	0.16731482
494.592	0.16775239
494.8	0.16812284
495.007	0.16860339
495.214	0.16900323
495.422	0.1694843
495.629	0.16986844
495.836	0.17025096
496.043	0.17070541
496.251	0.17120977
496.458	0.17157028
496.665	0.17207612
496.872	0.17249006
497.08	0.17295126
497.287	0.17340142
497.494	0.17386051
497.701	0.17431775
497.908	0.17492701
498.115	0.17533401
498.322	0.17577235
498.53	0.17623538
498.737	0.17671505
498.944	0.17712615
499.151	0.1775934
499.358	0.1780667
499.565	0.17870712
499.772	0.17934006
499.979	0.1799679
500.186	0.18063584
500.393	0.18130597
500.6	0.18186652
500.807	0.18240865
501.014	0.18298872
501.221	0.18353215
501.427	0.18407172
501.634	0.18460517
501.841	0.18516752
502.048	0.1857878
502.255	0.18633539
502.462	0.18689117
502.669	0.18745866
502.875	0.18807247
503.082	0.18869769
503.289	0.18924165
503.496	0.18990744
503.702	0.1905987
503.909	0.19124298
504.116	0.19196944
504.323	0.19261412
504.529	0.19327603
504.736	0.19400384
504.943	0.19468025
505.149	0.19542353
505.356	0.19618492
505.563	0.196903
505.769	0.19767829
505.976	0.19841104
506.182	0.19922781
506.389	0.19996557
506.595	0.20069288
506.802	0.20138895
507.008	0.20211566
507.215	0.20278988
507.421	0.20352988
507.628	0.20417612
507.834	0.20491204
508.041	0.20564422
508.247	0.20638253
508.454	0.20708114
508.66	0.20777324
508.866	0.208453
509.073	0.20924273
509.279	0.20998763
509.486	0.21064464
509.692	0.2113858
509.898	0.2121781
510.105	0.21304864
510.311	0.21391642
510.517	0.21473226
510.723	0.21555408
510.93	0.21640034
511.136	0.21725661
511.342	0.21807445
511.548	0.21886612
511.754	0.21957369
511.961	0.22034973
512.167	0.22117365
512.373	0.22197787
512.579	0.22283
512.785	0.2236954
512.991	0.22452171
513.197	0.22548225
513.404	0.22640255
513.61	0.22724891
513.816	0.22813606
514.022	0.22891279
514.228	0.22973064
514.434	0.23056095
514.64	0.23139017
514.846	0.23220943
515.052	0.23301589
515.258	0.23385785
515.464	0.23480385
515.669	0.23569761
515.875	0.23671156
516.081	0.23765038
516.287	0.23864984
516.493	0.23966098
516.699	0.24056305
516.905	0.24147006
517.111	0.24237253
517.316	0.24321691
517.522	0.24405058
517.728	0.2448979
517.934	0.24575865
518.139	0.24670314
518.345	0.24757736
518.551	0.24844831
518.757	0.24930409
518.962	0.25020592
519.168	0.25112834
519.374	0.25205261
519.579	0.25300507
519.785	0.25406523
519.991	0.25514294
520.196	0.2562283
520.402	0.25723651
520.607	0.25821584
520.813	0.25925869
521.018	0.26017116
521.224	0.26098934
521.429	0.26189443
521.635	0.26273471
521.84	0.26353465
522.046	0.26439252
522.251	0.26520271
522.457	0.26614733
522.662	0.26715083
522.868	0.26810685
523.073	0.26911008
523.279	0.27026844
523.484	0.27133261
523.689	0.27239811
523.895	0.27343658
524.1	0.27440477
524.305	0.27542636
524.511	0.27642508
524.716	0.27741121
524.921	0.27843887
525.126	0.27946321
525.332	0.28047484
525.537	0.28146915
525.742	0.28243074
525.947	0.28339159
526.153	0.28434533
526.358	0.28529958
526.563	0.28623323
526.768	0.28716929
526.973	0.2881929
527.178	0.28924945
527.383	0.29029274
527.588	0.29125585
527.794	0.29219485
527.999	0.29328147
528.204	0.29427354
528.409	0.29527098
528.614	0.29630372
528.819	0.29726059
529.024	0.29820989
529.229	0.29922061
529.434	0.30018985
529.639	0.30121704
529.843	0.30219958
530.048	0.30314788
530.253	0.30416587
530.458	0.30529229
530.663	0.30630714
530.868	0.30734418
531.073	0.30831976
531.278	0.30927462
531.482	0.31023771
531.687	0.31127361
531.892	0.31225897
532.097	0.31325899
532.302	0.31424708
532.506	0.31531727
532.711	0.31635541
532.916	0.31745614
533.12	0.31854521
533.325	0.31953623
533.53	0.32061007
533.734	0.32168275
533.939	0.32267601
534.144	0.32372798
534.348	0.32474044
534.553	0.32572434
534.757	0.32673378
534.962	0.32775216
535.167	0.32877289
535.371	0.32975421
535.576	0.33081901
535.78	0.33178513
535.985	0.33280647
536.189	0.33380909
536.394	0.33480728
536.598	0.33578543
536.803	0.33689981
537.007	0.33791829
537.211	0.33902875
537.416	0.34000176
537.62	0.34104947
537.825	0.34206982
538.029	0.3432153
538.233	0.34421533
538.438	0.34526687
538.642	0.34624249
538.846	0.34739888
539.05	0.34846382
539.255	0.34943103
539.459	0.35034261
539.663	0.35132745
539.867	0.3523267
540.072	0.35332253
540.276	0.35426985
540.48	0.35539512
540.684	0.35651921
540.888	0.35773264
541.092	0.35877601
541.297	0.35981622
541.501	0.36088729
541.705	0.36188676
541.909	0.36274707
542.113	0.36363249
542.317	0.3645617
542.521	0.36557473
542.725	0.36666563
542.929	0.36766649
543.133	0.36866306
543.337	0.36984723
543.541	0.37100197
543.745	0.37191914
543.949	0.37287212
544.153	0.37373933
544.357	0.37469735
544.56	0.37571294
544.764	0.3766532
544.968	0.37752373
545.172	0.37846587
545.376	0.37957897
545.58	0.38068209
545.783	0.38181466
545.987	0.38280984
546.191	0.38377161
546.395	0.38483025
546.598	0.38600233
546.802	0.38699666
547.006	0.38799396
547.21	0.38872732
547.413	0.38967575
547.617	0.39070035
547.821	0.39172301
548.024	0.39269703
548.228	0.39365708
548.431	0.39466519
548.635	0.39583094
548.839	0.39682429
549.042	0.39778588
549.246	0.39869637
549.449	0.39961437
549.653	0.40059539
549.856	0.40152619
550.06	0.40247846
550.263	0.40352443
550.467	0.40448234
550.67	0.40555413
550.874	0.40652671
551.077	0.40754703
551.28	0.40851706
551.484	0.40945035
551.687	0.41036398
551.891	0.41138997
552.094	0.41231388
552.297	0.41338571
552.501	0.41438109
552.704	0.41540494
552.907	0.41640373
553.11	0.41733699
553.314	0.41822311
553.517	0.41904155
553.72	0.41991138
553.923	0.42083129
554.127	0.42174929
554.33	0.42258808
554.533	0.42357592
554.736	0.42443822
554.939	0.42542972
555.142	0.42634711
555.345	0.42719816
555.549	0.42812114
555.752	0.42906473
555.955	0.42996168
556.158	0.43099114
556.361	0.4318974
556.564	0.43278331
556.767	0.43373377
556.97	0.43464763
557.173	0.43556856
557.376	0.4365735
557.579	0.43740494
557.782	0.43840421
557.984	0.43940385
558.187	0.44036432
558.39	0.44118961
558.593	0.44215865
558.796	0.44292564
558.999	0.44378202
559.202	0.44462431
559.404	0.4453544
559.607	0.44619726
559.81	0.44715455
560.013	0.44801406
560.216	0.44901738
560.418	0.45000223
560.621	0.45088297
560.824	0.45185528
561.026	0.45280214
561.229	0.45360866
561.432	0.45443154
561.634	0.45519672
561.837	0.45593475
562.04	0.45673723
562.242	0.45755607
562.445	0.45825328
562.647	0.45912527
562.85	0.45982093
563.053	0.460588
563.255	0.46146878
563.458	0.46230275
563.66	0.46314548
563.863	0.46400406
564.065	0.46476534
564.268	0.46563143
564.47	0.46647902
564.672	0.46720287
564.875	0.46801875
565.077	0.46873214
565.28	0.46950731
565.482	0.47037299
565.684	0.47126146
565.887	0.47205505
566.089	0.4729732
566.291	0.47382404
566.494	0.47468493
566.696	0.47545487
566.898	0.47628169
567.1	0.47711346
567.303	0.47793109
567.505	0.47860135
567.707	0.47917786
567.909	0.47981864
568.111	0.48063003
568.314	0.48129756
568.516	0.48195522
568.718	0.48271153
568.92	0.48343081
569.122	0.48421689
569.324	0.48504259
569.526	0.48555702
569.728	0.48635912
569.93	0.48705153
570.132	0.48770812
570.334	0.48846828
570.536	0.48909238
570.738	0.48970961
570.94	0.49045748
571.142	0.49107486
571.344	0.49165595
571.546	0.49229503
571.748	0.49297783
571.95	0.49367781
572.152	0.49443028
572.354	0.49522998
572.555	0.49603733
572.757	0.496916
572.959	0.49765822
573.161	0.4982628
573.363	0.4989853
573.564	0.49959695
573.766	0.50013237
573.968	0.50062937
574.17	0.50104594
574.371	0.50166231
574.573	0.50225057
574.775	0.50276156
574.976	0.50332486
575.178	0.50394043
575.38	0.50447943
575.581	0.50504945
575.783	0.50560735
575.985	0.50620817
576.186	0.50682472
576.388	0.50731048
576.589	0.50782689
576.791	0.50845892
576.992	0.50907061
577.194	0.50953297
577.395	0.51002177
577.597	0.51055437
577.798	0.5112306
578	0.51177746
578.201	0.51234707
578.402	0.51287753
578.604	0.51335182
578.805	0.51396394
579.007	0.51455099
579.208	0.51503796
579.409	0.51554728
579.611	0.51594139
579.812	0.5164347
580.013	0.51700625
580.215	0.5173204
580.416	0.51776449
580.617	0.51822644
580.818	0.51876769
581.019	0.51924701
581.221	0.51974012
581.422	0.52029672
581.623	0.52096403
581.824	0.5213647
582.025	0.52181182
582.226	0.52223575
582.428	0.52271674
582.629	0.52305041
582.83	0.52334072
583.031	0.52361922
583.232	0.52407319
583.433	0.52456809
583.634	0.5248629
583.835	0.52521552
584.036	0.52564652
584.237	0.52601286
584.438	0.52640342
584.639	0.52666311
584.84	0.52693098
585.041	0.52722102
585.242	0.52746921
585.442	0.52775909
585.643	0.52812829
585.844	0.5285128
586.045	0.52900201
586.246	0.52928428
586.447	0.52969018
586.647	0.5300192
586.848	0.53029645
587.049	0.53051987
587.25	0.53066295
587.45	0.53086711
587.651	0.53123024
587.852	0.53143594
588.053	0.53181007
588.253	0.53208921
588.454	0.53244403
588.655	0.53277388
588.855	0.53293163
589.056	0.53310678
589.256	0.53347304
589.457	0.53372552
589.658	0.53404853
589.858	0.53422459
590.059	0.53458607
590.259	0.53496972
590.46	0.53523413
590.66	0.53537
590.861	0.53556382
591.061	0.53569867
591.262	0.53595577
591.462	0.53603502
591.662	0.5360603
591.863	0.53614451
592.063	0.53636441
592.264	0.53650914
592.464	0.5366995
592.664	0.53687632
592.865	0.53714087
593.065	0.53719486
593.265	0.53737004
593.465	0.53742578
593.666	0.53747066
593.866	0.53751637
594.066	0.53757505
594.266	0.53751075
594.467	0.53762947
594.667	0.53765566
594.867	0.53769756
595.067	0.5377541
595.267	0.53780583
595.467	0.53769936
595.668	0.53773637
595.868	0.53781847
596.068	0.53790151
596.268	0.53793415
596.468	0.53801878
596.668	0.53816644
596.868	0.53827977
597.068	0.53841464
597.268	0.53858004
597.468	0.5386376
597.668	0.53870855
597.868	0.53871898
598.068	0.53871157
598.268	0.5387164
598.467	0.53866253
598.667	0.53848024
598.867	0.53834942
599.067	0.53831911
599.267	0.53827742
599.467	0.53817402
599.667	0.53808733
599.866	0.53805287
600.066	0.53809612
600.266	0.538014
600.466	0.53793335
600.665	0.53782822
600.865	0.53771475
601.065	0.53777689
601.264	0.53764412
601.464	0.53758532
601.664	0.53757304
601.863	0.53745656
602.063	0.53736791
602.263	0.53711422
602.462	0.5369409
602.662	0.53685589
602.861	0.53662389
603.061	0.53650508
603.26	0.53638163
603.46	0.53620708
603.659	0.53625261
603.859	0.53614485
604.058	0.53591059
604.258	0.53588785
604.457	0.53584092
604.657	0.53565271
604.856	0.53539853
605.056	0.53519874
605.255	0.5348942
605.454	0.53475493
605.654	0.53442163
605.853	0.53421438
606.052	0.53400796
606.252	0.53387201
606.451	0.53373482
606.65	0.53366665
606.849	0.53328416
607.049	0.53304245
607.248	0.53259521
607.447	0.53233368
607.646	0.53216493
607.845	0.53177655
608.045	0.53133052
608.244	0.53118411
608.443	0.53083273
608.642	0.53066592
608.841	0.53023262
609.04	0.52979526
609.239	0.52948581
609.438	0.52916933
609.637	0.52888336
609.836	0.52859603
610.035	0.52818876
610.234	0.52792272
610.433	0.52753316
610.632	0.52714267
610.831	0.52685368
611.03	0.52634938
611.229	0.52613061
611.428	0.5257747
611.627	0.52546562
611.826	0.52519098
612.025	0.52500292
612.224	0.52450441
612.422	0.52415982
612.621	0.52356959
612.82	0.52318021
613.019	0.52274738
613.218	0.52245366
613.416	0.52192594
613.615	0.52167269
613.814	0.52127868
614.012	0.52101888
614.211	0.52058192
614.41	0.52021832
614.608	0.51968448
614.807	0.51912999
615.006	0.51867867
615.204	0.51827586
615.403	0.51794035
615.602	0.5175585
615.8	0.51719222
615.999	0.51667818
616.197	0.51638116
616.396	0.51598801
616.594	0.51548791
616.793	0.51491288
616.991	0.51439518
617.19	0.51377202
617.388	0.51344915
617.586	0.51292943
617.785	0.51230633
617.983	0.51179741
618.182	0.51120921
618.38	0.51062353
618.578	0.51009014
618.777	0.50950033
618.975	0.50909951
619.173	0.50862536
619.372	0.5081499
619.57	0.50769453
619.768	0.50731378
619.966	0.50685779
620.165	0.50624283
620.363	0.50565396
620.561	0.50505001
620.759	0.50454054
620.957	0.50404318
621.155	0.50345598
621.354	0.50283429
621.552	0.5024278
621.75	0.50178115
621.948	0.50129107
622.146	0.50061041
622.344	0.49985289
622.542	0.49919264
622.74	0.49859581
622.938	0.49782914
623.136	0.49724937
623.334	0.49673829
623.532	0.49616203
623.73	0.49575625
623.928	0.49532253
624.126	0.49476931
624.324	0.49432311
624.522	0.49364014
624.719	0.49285921
624.917	0.49231377
625.115	0.49155868
625.313	0.49092837
625.511	0.4903565
625.708	0.48956011
625.906	0.48889765
626.104	0.48831081
626.302	0.48763628
626.499	0.48702928
626.697	0.48622654
626.895	0.4853467
627.093	0.48473232
627.29	0.4841156
627.488	0.4833627
627.686	0.48263708
627.883	0.48175859
628.081	0.48090974
628.278	0.48039535
628.476	0.47967235
628.673	0.4791028
628.871	0.47856138
629.068	0.47792001
629.266	0.47734114
629.463	0.47670004
629.661	0.47593232
629.858	0.47513593
630.056	0.474267
630.253	0.47343051
630.451	0.47265257
630.648	0.4718318
630.845	0.47114803
631.043	0.4703522
631.24	0.46978842
631.438	0.46908828
631.635	0.46837847
631.832	0.4675514
632.029	0.46692325
632.227	0.46607801
632.424	0.46532233
632.621	0.46438051
632.818	0.46351083
633.016	0.46267985
633.213	0.46191053
633.41	0.46109378
633.607	0.46037311
633.804	0.45969331
634.001	0.45892247
634.199	0.45818198
634.396	0.45744699
634.593	0.45664138
634.79	0.45596181
634.987	0.45515509
635.184	0.45423273
635.381	0.45352405
635.578	0.45275017
635.775	0.45180925
635.972	0.45103723
636.169	0.45007186
636.366	0.44936233
636.563	0.44865898
636.76	0.44774462
636.957	0.44691557
637.153	0.44613394
637.35	0.44540996
637.547	0.44467491
637.744	0.44374841
637.941	0.4429165
638.138	0.44223081
638.334	0.44145149
638.531	0.44072797
638.728	0.43994832
638.925	0.43925485
639.121	0.4385422
639.318	0.43767438
639.515	0.43664207
639.711	0.43578401
639.908	0.43471469
640.105	0.43373783
640.301	0.43264764
640.498	0.43164029
640.695	0.43081003
640.891	0.4300048
641.088	0.42912158
641.284	0.42836322
641.481	0.42753709
641.677	0.42667861
641.874	0.42571291
642.07	0.42485592
642.267	0.42412633
642.463	0.42325051
642.66	0.42254512
642.856	0.42161555
643.053	0.42071227
643.249	0.42000248
643.445	0.41914494
643.642	0.4181645
643.838	0.41741711
644.034	0.41644755
644.231	0.41553538
644.427	0.41474473
644.623	0.41379377
644.82	0.41293065
645.016	0.41198789
645.212	0.41085334
645.408	0.40988507
645.604	0.40913059
645.801	0.40824645
645.997	0.40724661
646.193	0.40633282
646.389	0.40557068
646.585	0.40485012
646.781	0.40403204
646.977	0.403156
647.173	0.40227305
647.37	0.40158865
647.566	0.40068374
647.762	0.399795
647.958	0.39897078
648.154	0.39801351
648.35	0.3970511
648.546	0.39609499
648.742	0.39527698
648.937	0.39429117
649.133	0.39342351
649.329	0.39248385
649.525	0.3915759
649.721	0.39061915
649.917	0.38977919
650.113	0.38865554
650.309	0.38782778
650.504	0.38676227
650.7	0.3856962
650.896	0.38478658
651.092	0.38396319
651.287	0.3830077
651.483	0.38219686
651.679	0.38130973
651.875	0.38059523
652.07	0.37982489
652.266	0.37899387
652.462	0.37812109
652.657	0.37729245
652.853	0.37634578
653.048	0.37544743
653.244	0.37439771
653.44	0.37348166
653.635	0.37249352
653.831	0.37155551
654.026	0.37064673
654.222	0.36969132
654.417	0.36878953
654.613	0.36781923
654.808	0.3667547
655.004	0.36573266
655.199	0.36469435
655.394	0.36367087
655.59	0.36274613
655.785	0.36160694
655.98	0.36073476
656.176	0.35982884
656.371	0.35924083
656.566	0.35848023
656.762	0.35759712
656.957	0.35681191
657.152	0.3561215
657.348	0.35531137
657.543	0.35456841
657.738	0.3535394
657.933	0.35250593
658.128	0.35149885
658.324	0.35046094
658.519	0.34943843
658.714	0.34842511
658.909	0.34732758
659.104	0.34634567
659.299	0.34540574
659.494	0.34446104
659.689	0.34350228
659.884	0.34251922
660.079	0.34148488
660.274	0.34055061
660.469	0.33949464
660.664	0.33856653
660.859	0.33766374
661.054	0.3367697
661.249	0.33591205
661.444	0.33500893
661.639	0.33403201
661.834	0.33307149
662.029	0.33210352
662.224	0.33123202
662.418	0.33023409
662.613	0.32927046
662.808	0.32833104
663.003	0.327442
663.198	0.32647868
663.392	0.32550689
663.587	0.32468654
663.782	0.32371475
663.977	0.32272343
664.171	0.32177195
664.366	0.32082759
664.561	0.31999341
664.755	0.31910964
664.95	0.31808669
665.144	0.31726137
665.339	0.31653802
665.534	0.31577695
665.728	0.3150164
665.923	0.3141536
666.117	0.31324298
666.312	0.31230225
666.506	0.31140265
666.701	0.31032741
666.895	0.30935336
667.09	0.30830425
667.284	0.3075281
667.479	0.30667094
667.673	0.3058178
667.867	0.30495756
668.062	0.3041657
668.256	0.30334398
668.45	0.30265138
668.645	0.30164635
668.839	0.30072563
669.033	0.2997803
669.228	0.29885145
669.422	0.29794329
669.616	0.29695867
669.81	0.29597793
670.004	0.29516158
670.199	0.29446904
670.393	0.29372888
670.587	0.29294431
670.781	0.29204808
670.975	0.29121882
671.169	0.29023786
671.363	0.28918907
671.558	0.28813698
671.752	0.28722885
671.946	0.28642372
672.14	0.28563159
672.334	0.28466452
672.528	0.28389319
672.722	0.2829914
672.916	0.28220734
673.11	0.28123365
673.304	0.2802691
673.497	0.2792323
673.691	0.27839095
673.885	0.27745164
674.079	0.27664792
674.273	0.27561923
674.467	0.27469532
674.661	0.27371219
674.854	0.27284242
675.048	0.27202715
675.242	0.27122817
675.436	0.270446
675.629	0.26965741
675.823	0.26880605
676.017	0.26804273
676.211	0.26722663
676.404	0.26631425
676.598	0.26543882
676.792	0.26457528
676.985	0.2636787
677.179	0.26280696
677.372	0.26186158
677.566	0.26092844
677.76	0.26003573
677.953	0.25909338
678.147	0.25815767
678.34	0.25741164
678.534	0.25663998
678.727	0.2559768
678.921	0.25539691
679.114	0.25476974
679.307	0.25415517
679.501	0.25347815
679.694	0.25269472
679.888	0.25187799
680.081	0.25105788
680.274	0.25010822
680.468	0.24927966
680.661	0.24835008
680.854	0.24757968
681.048	0.24670715
681.241	0.24585209
681.434	0.24497828
681.627	0.24408854
681.821	0.24310699
682.014	0.24232415
682.207	0.24133491
682.4	0.24047102
682.593	0.23966607
682.786	0.2387883
682.98	0.23797976
683.173	0.23725003
683.366	0.23644105
683.559	0.23575401
683.752	0.23506774
683.945	0.23436123
684.138	0.23370505
684.331	0.23293133
684.524	0.23211783
684.717	0.23124577
684.91	0.23043755
685.103	0.22959533
685.296	0.22865115
685.489	0.2277307
685.682	0.22687609
685.874	0.22607882
686.067	0.22522379
686.26	0.22436935
686.453	0.22351477
686.646	0.22280464
686.839	0.222113
687.031	0.22147677
687.224	0.22077893
687.417	0.22028595
687.61	0.21960985
687.802	0.21895088
687.995	0.21828273
688.188	0.21763457
688.38	0.21691432
688.573	0.21633115
688.766	0.21562657
688.958	0.21490175
689.151	0.21414248
689.343	0.21346959
689.536	0.21267699
689.729	0.21190929
689.921	0.21108781
690.114	0.21022974
690.306	0.20953753
690.499	0.208959
690.691	0.20826809
690.884	0.20763024
691.076	0.20699775
691.268	0.20622243
691.461	0.20546427
691.653	0.20478715
691.846	0.20408475
692.038	0.20337983
692.23	0.20258179
692.423	0.20185856
692.615	0.2012589
692.807	0.20069358
692.999	0.20002961
693.192	0.19928734
693.384	0.19863478
693.576	0.19801479
693.768	0.1974436
693.961	0.19678205
694.153	0.19618062
694.345	0.19560099
694.537	0.19507594
694.729	0.19453672
694.921	0.1939593
695.113	0.1932916
695.305	0.19257698
695.498	0.19172725
695.69	0.19099708
695.882	0.19017371
696.074	0.1893478
696.266	0.18860259
696.458	0.18785795
696.65	0.18724404
696.842	0.18674595
697.033	0.18613582
697.225	0.18558723
697.417	0.18509851
697.609	0.18454531
697.801	0.18398054
697.993	0.1833543
698.185	0.18266438
698.376	0.18192167
698.568	0.18121602
698.76	0.18048097
698.952	0.17977003
699.144	0.17912412
699.335	0.1785542
699.527	0.17800312
699.719	0.17749841
699.91	0.17693493
700.102	0.17630504
700.294	0.17578098
700.485	0.17525533
700.677	0.17463509
700.869	0.17410303
701.06	0.17355968
701.252	0.17303887
701.443	0.17254652
701.635	0.17198027
701.826	0.1714162
702.018	0.17092976
702.209	0.17043478
702.401	0.16991817
702.592	0.16948944
702.784	0.16907816
702.975	0.16869327
703.166	0.16830106
703.358	0.1677924
703.549	0.16726283
703.741	0.1666945
703.932	0.16599141
704.123	0.16536841
704.315	0.16476566
704.506	0.16416347
704.697	0.16357209
704.888	0.16304655
705.08	0.16255752
705.271	0.1622162
705.462	0.16169266
705.653	0.16107219
705.844	0.16044817
706.035	0.15988776
706.227	0.15921452
706.418	0.15859057
706.609	0.15786023
706.8	0.15727399
706.991	0.15670689
707.182	0.15627347
707.373	0.15582389
707.564	0.15546533
707.755	0.15504298
707.946	0.1547014
708.137	0.15425438
708.328	0.15380195
708.519	0.15324841
708.71	0.15257113
708.901	0.151905
709.092	0.15137211
709.283	0.15081546
709.473	0.15029491
709.664	0.1499063
709.855	0.14949009
710.046	0.14926015
710.237	0.14888798
710.427	0.14838409
710.618	0.14791392
710.809	0.14745267
711	0.14696214
711.19	0.14646154
711.381	0.14591917
711.572	0.14535386
711.762	0.14489489
711.953	0.14440799
712.144	0.14385724
712.334	0.14333835
712.525	0.14281875
712.715	0.14228441
712.906	0.14177597
713.097	0.14129728
713.287	0.14078779
713.478	0.14039298
713.668	0.13998251
713.859	0.1396454
714.049	0.13938268
714.239	0.13922219
714.43	0.13885234
714.62	0.13851875
714.811	0.13810717
715.001	0.13771416
715.191	0.13730669
715.382	0.13685644
715.572	0.13646915
715.762	0.13625516
715.953	0.13605983
716.143	0.13590689
716.333	0.13566888
716.523	0.1354215
716.714	0.13509146
716.904	0.13464478
717.094	0.13420919
717.284	0.13372575
717.474	0.13317088
717.664	0.13270649
717.855	0.13224436
718.045	0.13189209
718.235	0.13158114
718.425	0.13129167
718.615	0.13102317
718.805	0.13081907
718.995	0.13056758
719.185	0.13027406
719.375	0.12999729
719.565	0.12973197
719.755	0.12936005
719.945	0.12899501
720.135	0.12868347
720.325	0.12839196
720.515	0.12811429
720.704	0.12777309
720.894	0.1274429
721.084	0.12708799
721.274	0.12678353
721.464	0.12639859
721.654	0.12604445
721.843	0.12573008
722.033	0.12548846
722.223	0.12522377
722.413	0.12509387
722.602	0.12484886
722.792	0.12456613
722.982	0.12426745
723.171	0.12392578
723.361	0.12354086
723.55	0.12319729
723.74	0.12277674
723.93	0.12242491
724.119	0.12212086
724.309	0.12189557
724.498	0.12167883
724.688	0.12152825
724.877	0.12132754
725.067	0.12108297
725.256	0.1208585
725.446	0.12075885
725.635	0.12049397
725.825	0.1203036
726.014	0.12003696
726.203	0.11972319
726.393	0.11943958
726.582	0.11914505
726.771	0.11881015
726.961	0.1185474
727.15	0.11826782
727.339	0.11793487
727.529	0.11768908
727.718	0.11741853
727.907	0.11713286
728.096	0.1167667
728.286	0.11634722
728.475	0.11593386
728.664	0.11556389
728.853	0.11525798
729.042	0.11499697
729.231	0.11471681
729.42	0.11446166
729.609	0.11418117
729.799	0.11386063
729.988	0.11356011
730.177	0.11320048
730.366	0.11283443
730.555	0.11250246
730.744	0.11218
730.933	0.11191209
731.122	0.11167416
731.31	0.11139846
731.499	0.11112973
731.688	0.1108967
731.877	0.11069626
732.066	0.11054653
732.255	0.11050609
732.444	0.1104329
732.632	0.1104769
732.821	0.11047578
733.01	0.11037163
733.199	0.11027761
733.388	0.11010755
733.576	0.10983397
733.765	0.109548
733.954	0.10915521
734.142	0.10878994
734.331	0.10846617
734.52	0.10820261
734.708	0.10796304
734.897	0.10781777
735.086	0.10768101
735.274	0.10756414
735.463	0.10745546
735.651	0.10743088
735.84	0.10736143
736.028	0.10725983
736.217	0.10710575
736.405	0.10695537
736.594	0.10679545
736.782	0.10665034
736.971	0.10649331
737.159	0.10621718
737.347	0.10601574
737.536	0.10575141
737.724	0.10549346
737.912	0.10532472
738.101	0.10525418
738.289	0.10510333
738.477	0.10498279
738.666	0.10475011
738.854	0.10457431
739.042	0.1043935
739.23	0.10419033
739.418	0.10389693
739.607	0.10368868
739.795	0.10353455
739.983	0.10343891
740.171	0.10333812
740.359	0.10327511
740.547	0.10322834
740.735	0.10316778
740.923	0.10303987
741.112	0.10294837
741.3	0.10292053
741.488	0.10293482
741.676	0.10293816
741.864	0.10289914
742.052	0.10288482
742.239	0.10273811
742.427	0.10254132
742.615	0.10225921
742.803	0.10201954
742.991	0.10179497
743.179	0.10155318
743.367	0.10132813
743.555	0.10125619
743.742	0.10120734
743.93	0.10127665
744.118	0.10124294
744.306	0.10123287
744.494	0.10119537
744.681	0.10117989
744.869	0.10117146
745.057	0.10107724
745.244	0.10088257
745.432	0.1007053
745.62	0.10050637
745.807	0.10037514
745.995	0.10023021
746.182	0.10010486
746.37	0.10001862
746.558	0.09992466
746.745	0.09979734
746.933	0.09972648
747.12	0.09966763
747.308	0.09960925
747.495	0.09946394
747.683	0.09937204
747.87	0.09936581
748.057	0.0993793
748.245	0.09928321
748.432	0.09912242
748.62	0.09896039
748.807	0.09890105
748.994	0.0988609
749.182	0.09873553
749.369	0.09866673
749.556	0.09865916
749.743	0.09871896
749.931	0.09875196
750.118	0.09879491
750.305	0.09873412
750.492	0.09868136
750.68	0.09869586
750.867	0.09875558
751.054	0.09872484
751.241	0.09870184
751.428	0.09856275
751.615	0.09846879
751.802	0.09837187
751.989	0.09809897
752.176	0.09781346
752.363	0.09760115
752.55	0.09737035
752.737	0.09720152
752.924	0.0971599
753.111	0.09724844
753.298	0.09741633
753.485	0.09751922
753.672	0.09754596
753.859	0.09758211
754.046	0.09766135
754.233	0.0976382
754.42	0.0975116
754.606	0.09730248
754.793	0.0970943
754.98	0.09701379
755.167	0.09690507
755.353	0.09683608
755.54	0.09679384
755.727	0.09680178
755.914	0.09684513
756.1	0.09692957
756.287	0.09695716
756.474	0.09695517
756.66	0.09694144
756.847	0.09685006
757.033	0.09673185
757.22	0.09666523
757.407	0.09656801
757.593	0.09650896
757.78	0.09652862
757.966	0.09652732
758.153	0.09650112
758.339	0.09641647
758.526	0.09633961
758.712	0.09634941
758.898	0.09641287
759.085	0.09646321
759.271	0.0965502
759.458	0.09671631
759.644	0.09693921
759.83	0.09711934
760.017	0.09716757
760.203	0.09715856
760.389	0.09712253
760.576	0.09697451
760.762	0.09685604
760.948	0.09675553
761.134	0.09668617
761.32	0.09670925
761.507	0.09677862
761.693	0.09690325
761.879	0.09708303
762.065	0.09721229
762.251	0.09734559
762.437	0.09755883
762.623	0.09770359
762.809	0.09776073
762.995	0.09772693
763.181	0.09771202
763.367	0.09773863
763.553	0.0976834
763.739	0.09749736
763.925	0.09730567
764.111	0.09717168
764.297	0.09710592
764.483	0.09703146
764.669	0.09696243
764.855	0.09695497
765.041	0.09701086
765.227	0.09700687
765.412	0.09692711
765.598	0.09693189
765.784	0.09696846
765.97	0.09698728
766.156	0.09708377
766.341	0.09717582
766.527	0.0973587
766.713	0.0976197
766.898	0.09776931
767.084	0.09785105
767.27	0.09782818
767.455	0.09766893
767.641	0.09757669
767.827	0.09748555
768.012	0.09738759
768.198	0.09734454
768.383	0.09733704
768.569	0.09741628
768.754	0.0975576
768.94	0.09768486
769.125	0.09780664
769.311	0.09792236
769.496	0.09806
769.682	0.09816507
769.867	0.09827489
770.052	0.0983882
770.238	0.09837764
770.423	0.09840577
770.608	0.09841379
770.794	0.09839372
770.979	0.0983799
771.164	0.09845359
771.35	0.09841836
771.535	0.09847623
771.72	0.09851036
771.905	0.09860571
772.09	0.09855686
772.276	0.09854429
772.461	0.09845616
772.646	0.09852187
772.831	0.0985909
773.016	0.09863962
773.201	0.09866371
773.386	0.09884384
773.571	0.09899559
773.756	0.09917635
773.941	0.09927724
774.126	0.09949067
774.311	0.09969398
774.496	0.09986687
774.681	0.09998573
774.866	0.10015073
775.051	0.10032462
775.236	0.10050257
775.421	0.10050164
775.606	0.10054699
775.791	0.10049787
775.976	0.10047452
776.16	0.1004335
776.345	0.1003961
776.53	0.10038935
776.715	0.10042372
776.899	0.10043061
777.084	0.10050557
777.269	0.10063085
777.454	0.10070162
777.638	0.10081719
777.823	0.10091962
778.008	0.10106658
778.192	0.10123288
778.377	0.10133169
778.561	0.10137988
778.746	0.10140464
778.931	0.10132713
779.115	0.10125784
779.3	0.10112794
779.484	0.10102097
779.669	0.1009459
779.853	0.1008999
780.037	0.10093527
780.222	0.10097321
780.406	0.10097856
780.591	0.10102037
780.775	0.10098686
780.959	0.10098643
781.144	0.10097929
781.328	0.10101323
781.512	0.10107152
781.697	0.10118706
781.881	0.1013199
782.065	0.10153455
782.249	0.10165743
782.434	0.10178221
782.618	0.10184097
782.802	0.10194332
782.986	0.10196753
783.17	0.10195398
783.354	0.10189939
783.539	0.10198757
783.723	0.10199995
783.907	0.10199942
784.091	0.1019207
784.275	0.10185509
784.459	0.10179842
784.643	0.10175115
784.827	0.10166759
785.011	0.10154925
785.195	0.10148944
785.379	0.10145406
785.563	0.1014971
785.747	0.10149197
785.93	0.10150909
786.114	0.10137714
786.298	0.10126256
786.482	0.10109104
786.666	0.10099289
786.85	0.10091269
787.033	0.10097319
787.217	0.10090367
787.401	0.10096299
787.585	0.10106945
787.768	0.10120573
787.952	0.10135386
788.136	0.10143554
788.319	0.10149067
788.503	0.10169501
788.687	0.10189311
788.87	0.10202279
789.054	0.1020857
789.237	0.10216419
789.421	0.10219857
789.605	0.10221783
789.788	0.10217339
789.972	0.10209539
790.155	0.10210145
790.338	0.10215025
790.522	0.10212157
790.705	0.10218865
790.889	0.1022272
791.072	0.10234452
791.256	0.10248945
791.439	0.10265341
791.622	0.10284033
791.806	0.10303471
791.989	0.10319868
792.172	0.1033566
792.355	0.10337374
792.539	0.10334528
792.722	0.10330818
792.905	0.10326956
793.088	0.1033121
793.271	0.10336273
793.455	0.10343738
793.638	0.10357589
793.821	0.10374855
794.004	0.10389825
794.187	0.10413917
794.37	0.10427839
794.553	0.10429211
794.736	0.10425891
794.919	0.10426526
795.102	0.10424417
795.285	0.10428695
795.468	0.10428067
795.651	0.1043108
795.834	0.10450184
796.017	0.10467963
796.2	0.10485777
796.383	0.10510898
796.566	0.10528306
796.749	0.10536711
796.931	0.10539467
797.114	0.10537859
797.297	0.1054205
797.48	0.10548538
797.663	0.10554662
797.845	0.10558391
798.028	0.10572017
798.211	0.10587168
798.393	0.10616382
798.576	0.10641467
798.759	0.1065777
798.941	0.10678646
799.124	0.10705542
799.307	0.10724436
799.489	0.10742923
799.672	0.10738605
799.854	0.10732088
800.037	0.10731099
800.219	0.10727917
800.402	0.10715277
800.584	0.10712951
800.767	0.10718515
800.949	0.10729148
801.132	0.10742209
801.314	0.10749119
801.496	0.10761434
801.679	0.10780082
801.861	0.10791789
802.043	0.10798874
802.226	0.10804387
802.408	0.10800338
802.59	0.10801371
802.772	0.10788302
802.955	0.10793238
803.137	0.10789253
803.319	0.10782057
803.501	0.10771494
803.684	0.1076958
803.866	0.10768491
804.048	0.10781021
804.23	0.10786026
804.412	0.1080637
804.594	0.10817185
804.776	0.10842885
804.958	0.10869505
805.14	0.10896121
805.322	0.1090925
805.504	0.10912944
805.686	0.10905491
805.868	0.10910284
806.05	0.10911279
806.232	0.10910419
806.414	0.10908912
806.596	0.10915154
806.778	0.10911276
806.96	0.10914821
807.141	0.10911956
807.323	0.10904899
807.505	0.10893309
807.687	0.10887013
807.869	0.1087385
808.05	0.10860801
808.232	0.10841544
808.414	0.1082835
808.595	0.10821872
808.777	0.10814018
808.959	0.10811029
809.14	0.10806816
809.322	0.10817984
809.504	0.10844545
809.685	0.108654
809.867	0.10884161
810.048	0.10898619
810.23	0.10906274
810.411	0.10915925
810.593	0.10913078
810.774	0.10906207
810.956	0.10892546
811.137	0.10882796
811.319	0.10886895
811.5	0.10886887
811.681	0.10889115
811.863	0.10901762
812.044	0.10915815
812.225	0.10940048
812.407	0.10955562
812.588	0.10965174
812.769	0.10976088
812.951	0.1098746
813.132	0.10999375
813.313	0.10999337
813.494	0.11003209
813.675	0.11014048
813.857	0.11026683
814.038	0.1104389
814.219	0.11058796
814.4	0.11077737
814.581	0.11106068
814.762	0.11124295
814.943	0.11130483
815.124	0.11134169
815.305	0.11135927
815.486	0.11145171
815.667	0.11145215
815.848	0.11144992
816.029	0.11151003
816.21	0.11160371
816.391	0.11170819
816.572	0.11176422
816.753	0.11176387
816.934	0.1117328
817.115	0.11153523
817.295	0.11137218
817.476	0.11124589
817.657	0.11124159
817.838	0.11128646
818.019	0.11120031
818.199	0.1111605
818.38	0.11121387
818.561	0.11130083
818.741	0.11137519
818.922	0.11142525
819.103	0.11140621
819.283	0.11152243
819.464	0.11167262
819.645	0.11188685
819.825	0.11198166
820.006	0.11204264
820.186	0.1120784
820.367	0.11219121
820.547	0.11219975
820.728	0.11215512
820.908	0.11209069
821.089	0.11222578
821.269	0.11240529
821.45	0.11263631
821.63	0.11275046
821.81	0.11299987
821.991	0.1132846
822.171	0.11352299
822.351	0.11357567
822.532	0.11369766
822.712	0.11370583
822.892	0.11378221
823.072	0.11380412
823.253	0.11380029
823.433	0.11383294
823.613	0.11390168
823.793	0.11387276
823.973	0.11383477
824.154	0.11386868
824.334	0.11382867
824.514	0.11386131
824.694	0.11390384
824.874	0.11394308
825.054	0.11402812
825.234	0.11421589
825.414	0.11425323
825.594	0.11435343
825.774	0.11436352
825.954	0.11437586
826.134	0.11443296
826.314	0.11451044
826.494	0.11456498
826.674	0.11456454
826.854	0.11461655
827.033	0.11474197
827.213	0.11469946
827.393	0.11463753
827.573	0.11456209
827.753	0.11449817
827.932	0.11455128
828.112	0.11459196
828.292	0.11456756
828.472	0.11461875
828.651	0.1146364
828.831	0.11459905
829.011	0.11456154
829.19	0.11460612
829.37	0.11476635
829.549	0.11496524
829.729	0.11517594
829.909	0.11540549
830.088	0.11566401
830.268	0.11590156
830.447	0.11608419
830.627	0.11616647
830.806	0.11616374
830.986	0.11615205
831.165	0.11611269
831.344	0.11614955
831.524	0.11606104
831.703	0.11606002
831.883	0.11599614
832.062	0.11597611
832.241	0.11597756
832.421	0.11600342
832.6	0.11594457
832.779	0.11605046
832.958	0.11613661
833.138	0.11634068
833.317	0.1165505
833.496	0.11681571
833.675	0.11704037
833.854	0.11729322
834.034	0.1174205
834.213	0.11746207
834.392	0.11741891
834.571	0.11732228
834.75	0.1172171
834.929	0.11726907
835.108	0.11715333
835.287	0.11714664
835.466	0.11716724
835.645	0.11715025
835.824	0.11717963
836.003	0.11718877
836.182	0.11701856
836.361	0.11694078
836.54	0.11679002
836.719	0.11664766
836.897	0.11660049
837.076	0.116596
837.255	0.11660149
837.434	0.11667191
837.613	0.11670845
837.791	0.11684975
837.97	0.11698925
838.149	0.11697534
838.328	0.11689025
838.506	0.11682741
838.685	0.11672852
838.864	0.11675834
839.042	0.11672467
839.221	0.11678167
839.4	0.11688954
839.578	0.11708194
839.757	0.11725897
839.935	0.11751773
840.114	0.11769512
840.292	0.11790115
840.471	0.11800186
840.649	0.1181802
840.828	0.11827421
841.006	0.1183515
841.185	0.11823854
841.363	0.11820027
841.541	0.11811239
841.72	0.11799744
841.898	0.11784183
842.076	0.11775917
842.255	0.11763986
842.433	0.11769895
842.611	0.11776062
842.789	0.11779002
842.968	0.11780102
843.146	0.11784044
843.324	0.11784701
843.502	0.11794313
843.68	0.11799708
843.859	0.11792529
844.037	0.11783257
844.215	0.11769264
844.393	0.11757094
844.571	0.1175037
844.749	0.11738426
844.927	0.11728319
845.105	0.11717877
845.283	0.11722653
845.461	0.11735103
845.639	0.11743621
845.817	0.11759516
845.995	0.11776822
846.173	0.11790192
846.351	0.11796556
846.529	0.11794638
846.706	0.11792186
846.884	0.11794005
847.062	0.11764191
847.24	0.11729036
847.418	0.11700756
847.595	0.1169273
847.773	0.11686774
847.951	0.11681222
848.129	0.11680518
848.306	0.11694999
848.484	0.1171187
848.662	0.11735183
848.839	0.11755214
849.017	0.11776862
849.194	0.11790664
849.372	0.11801346
849.549	0.11811526
849.727	0.11827107
849.905	0.11833347
850.082	0.11838815
850.26	0.11838804
850.437	0.11851604
850.614	0.1185558
850.792	0.11864789
850.969	0.11863632
851.147	0.11868046
851.324	0.11856769
851.501	0.11845606
851.679	0.11824569
851.856	0.11807354
852.033	0.1178913
852.211	0.11785802
852.388	0.11772018
852.565	0.11782258
852.742	0.11799325
852.92	0.11816403
853.097	0.11848445
853.274	0.118715
853.451	0.11877167
853.628	0.11882975
853.805	0.11876975
853.982	0.11865203
854.159	0.11850035
854.336	0.11813362
854.514	0.11798749
854.691	0.11780599
854.868	0.1177578
855.045	0.11770698
855.221	0.11758599
855.398	0.11750158
855.575	0.11759112
855.752	0.11746035
855.929	0.11756653
856.106	0.11753743
856.283	0.11757293
856.46	0.11763538
856.637	0.11780049
856.813	0.11777755
856.99	0.11783071
857.167	0.11778683
857.344	0.11788902
857.52	0.11793431
857.697	0.11790083
857.874	0.11779089
858.05	0.11781758
858.227	0.11787345
858.404	0.11785551
858.58	0.11774463
858.757	0.11759604
858.933	0.11749883
859.11	0.1172619
859.287	0.11692439
859.463	0.11663831
859.64	0.11652693
859.816	0.1164311
859.993	0.1164358
860.169	0.11646388
860.345	0.11658166
860.522	0.116707
860.698	0.11667361
860.875	0.11660705
861.051	0.11650111
861.227	0.11634024
861.404	0.1163178
861.58	0.11628146
861.756	0.11645797
861.932	0.11676355
862.109	0.11686253
862.285	0.11700813
862.461	0.11724967
862.637	0.11740596
862.813	0.11755403
862.99	0.1174503
863.166	0.11732132
863.342	0.11730139
863.518	0.11722759
863.694	0.11712051
863.87	0.11692379
864.046	0.11692895
864.222	0.11700335
864.398	0.11700682
864.574	0.11693382
864.75	0.11697444
864.926	0.11699988
865.102	0.11704732
865.278	0.11685512
865.454	0.11680915
865.63	0.11682903
865.805	0.11680488
865.981	0.11675923
866.157	0.11669312
866.333	0.11667224
866.509	0.11690907
866.684	0.11698422
866.86	0.1169841
867.036	0.11713364
867.212	0.11705658
867.387	0.11687802
867.563	0.11676009
867.739	0.1165108
867.914	0.11640273
868.09	0.11621364
868.265	0.11606813
868.441	0.11597463
868.617	0.11599345
868.792	0.11587645
868.968	0.115852
869.143	0.11576429
869.319	0.11591501
869.494	0.11598643
869.67	0.11614494
869.845	0.1162539
870.02	0.11653651
870.196	0.11678952
870.371	0.11692046
870.546	0.11689427
870.722	0.11697181
870.897	0.11703506
871.072	0.11708991
871.248	0.11692637
871.423	0.11666764
871.598	0.1163202
871.773	0.11606566
871.949	0.1156993
872.124	0.11546847
872.299	0.11515532
872.474	0.11497174
872.649	0.11468026
872.824	0.11463054
872.999	0.11460143
873.174	0.11455233
873.349	0.11440085
873.524	0.11424297
873.699	0.11412288
873.874	0.1141283
874.049	0.11405286
874.224	0.11392179
874.399	0.11377375
874.574	0.11369978
874.749	0.11369571
874.924	0.11360826
875.099	0.11356222
875.274	0.11350808
875.449	0.11353492
875.623	0.11352119
875.798	0.1134238
875.973	0.11332464
876.148	0.11325605
876.322	0.1131578
876.497	0.11300508
876.672	0.11277774
876.846	0.1126149
877.021	0.1124512
877.196	0.11236567
877.37	0.11239203
877.545	0.11245338
877.72	0.11255474
877.894	0.11259468
878.069	0.1124751
878.243	0.11237964
878.418	0.11231099
878.592	0.11216249
878.767	0.11189034
878.941	0.11169307
879.116	0.11150965
879.29	0.1116098
879.464	0.11187933
879.639	0.11204498
879.813	0.11219834
879.987	0.11235598
880.162	0.1122812
880.336	0.11227283
880.51	0.11222421
880.685	0.11183016
880.859	0.11163364
881.033	0.11143026
881.207	0.11129531
881.381	0.1113687
881.556	0.11135878
881.73	0.11129065
881.904	0.11135672
882.078	0.11117668
882.252	0.11099941
882.426	0.11089465
882.6	0.11077135
882.774	0.1108297
882.948	0.11098348
883.122	0.11108894
883.296	0.11116184
883.47	0.11118249
883.644	0.11121368
883.818	0.11115326
883.992	0.11099325
884.166	0.11077545
884.34	0.11053656
884.514	0.11052891
884.687	0.11049246
884.861	0.11032582
885.035	0.11030767
885.209	0.1104246
885.382	0.11045027
885.556	0.11052145
885.73	0.11057191
885.904	0.1106616
886.077	0.11076659
886.251	0.1107007
886.425	0.11067055
886.598	0.11061532
886.772	0.11059688
886.945	0.11044586
887.119	0.11043428
887.292	0.11042802
887.466	0.11051663
887.64	0.11036782
887.813	0.11029116
887.986	0.11017615
888.16	0.11016046
888.333	0.11000763
888.507	0.10991376
888.68	0.1099898
888.854	0.10996313
889.027	0.10995365
889.2	0.11000788
889.374	0.10999226
889.547	0.10995176
889.72	0.11000006
889.893	0.10968468
890.067	0.10948964
890.24	0.10928627
890.413	0.10911692
890.586	0.10893812
890.759	0.10888566
890.933	0.10868183
891.106	0.10863437
891.279	0.10862861
891.452	0.10864238
891.625	0.10850922
891.798	0.10837757
891.971	0.10815551
892.144	0.10795534
892.317	0.10783774
892.49	0.10760492
892.663	0.10743629
892.836	0.107236
893.009	0.10697653
893.182	0.10672825
893.355	0.10641384
893.527	0.10621656
893.7	0.10617662
893.873	0.10606829
894.046	0.10604231
894.219	0.10607902
894.391	0.10608438
894.564	0.10616368
894.737	0.10603439
894.91	0.10588512
895.082	0.10552369
895.255	0.10522861
895.428	0.10496635
895.6	0.1047816
895.773	0.10458932
895.945	0.10446832
896.118	0.10430735
896.291	0.10435196
896.463	0.10436289
896.636	0.10433512
896.808	0.10441005
896.981	0.10440184
897.153	0.10439722
897.326	0.10443034
897.498	0.10438561
897.67	0.10439145
897.843	0.10441408
898.015	0.10439065
898.187	0.10438184
898.36	0.10434988
898.532	0.10415357
898.704	0.10422087
898.877	0.10419485
899.049	0.10420665
899.221	0.1041205
899.393	0.10413394
899.566	0.10417418
899.738	0.10444277
899.91	0.10433753
900.082	0.10442118
900.254	0.10447704
900.426	0.10450688
900.598	0.10448941
900.77	0.10436845
900.942	0.10413558
901.114	0.10391607
901.286	0.10351857
901.458	0.10324704
901.63	0.10294819
901.802	0.10279414
901.974	0.10261202
902.146	0.10248806
902.318	0.10250346
902.49	0.10247719
902.662	0.1023307
902.834	0.10220359
903.005	0.10190289
903.177	0.10171247
903.349	0.10142367
903.521	0.10117598
903.693	0.10110158
903.864	0.10103205
904.036	0.10097752
904.208	0.10096461
904.379	0.1009616
904.551	0.10106896
904.723	0.1009507
904.894	0.10079961
905.066	0.1006144
905.237	0.10036066
905.409	0.10004125
905.58	0.09972936
905.752	0.09944656
905.923	0.09930673
906.095	0.09907236
906.266	0.09893517
906.438	0.09884143
906.609	0.09892299
906.78	0.09891739
906.952	0.09887722
907.123	0.09884815
907.295	0.09874436
907.466	0.09861575
907.637	0.09843659
907.808	0.09816889
907.98	0.09787388
908.151	0.09755831
908.322	0.09730505
908.493	0.09715221
908.665	0.09691831
908.836	0.09676251
909.007	0.09656443
909.178	0.09654328
909.349	0.09646452
909.52	0.09637442
909.691	0.09623683
909.862	0.09623997
910.033	0.09636199
910.204	0.09656317
910.375	0.09665976
910.546	0.09677336
910.717	0.09675104
910.888	0.09692047
911.059	0.09699624
911.23	0.09689733
911.401	0.09684791
911.572	0.09678296
911.742	0.09678669
911.913	0.09692973
912.084	0.09694711
912.255	0.09688478
912.426	0.09692184
912.596	0.0967918
912.767	0.09675746
912.938	0.09661008
913.108	0.09646646
913.279	0.09625639
913.45	0.09612529
913.62	0.09608129
913.791	0.09600962
913.962	0.09586495
914.132	0.09582273
914.303	0.09575426
914.473	0.09576512
914.644	0.09559832
914.814	0.09534447
914.985	0.09520643
915.155	0.09506847
915.326	0.09480233
915.496	0.09458038
915.666	0.09437964
915.837	0.0943934
916.007	0.09422359
916.177	0.09394525
916.348	0.09371773
916.518	0.09357461
916.688	0.09338488
916.858	0.09315189
917.029	0.09289406
917.199	0.09270675
917.369	0.09271809
917.539	0.0927724
917.709	0.09283159
917.88	0.09268202
918.05	0.0925083
918.22	0.09244626
918.39	0.09254077
918.56	0.09237979
918.73	0.0922238
918.9	0.0921602
919.07	0.09230747
919.24	0.0924869
919.41	0.09243444
919.58	0.09232215
919.75	0.0923544
919.92	0.09218625
920.09	0.09201416
920.26	0.09179883
920.429	0.0916833
920.599	0.09155444
920.769	0.09148945
920.939	0.09136173
921.109	0.09133491
921.278	0.0912617
921.448	0.09119473
921.618	0.09100912
921.787	0.09084858
921.957	0.09068501
922.127	0.09045813
922.296	0.09042161
922.466	0.09024557
922.636	0.09003063
922.805	0.0896764
922.975	0.08942118
923.144	0.08915723
923.314	0.08896645
923.483	0.08864515
923.653	0.0882694
923.822	0.08795836
923.992	0.08784809
924.161	0.08781123
924.331	0.08752463
924.5	0.08733843
924.669	0.08713935
924.839	0.0870199
925.008	0.08700774
925.177	0.08688401
925.347	0.0868231
925.516	0.08684672
925.685	0.08687076
925.854	0.08679805
926.023	0.08696001
926.193	0.08701556
926.362	0.08711141
926.531	0.08695443
926.7	0.08695277
926.869	0.08694184
927.038	0.08690018
927.207	0.08674411
927.376	0.08665743
927.545	0.08648491
927.715	0.0864217
927.884	0.08627366
928.052	0.08613101
928.221	0.08596889
928.39	0.08570401
928.559	0.08545166
928.728	0.08530912
928.897	0.08515235
929.066	0.08498235
929.235	0.08474678
929.404	0.08475457
929.572	0.08475837
929.741	0.08451096
929.91	0.08432246
930.079	0.08407536
930.247	0.08391432
930.416	0.08375031
930.585	0.08341143
930.753	0.08323095
930.922	0.08328414
931.091	0.08332328
931.259	0.08329031
931.428	0.08341071
931.596	0.08368541
931.765	0.08410127
931.934	0.08436302
932.102	0.08436935
932.27	0.08433084
932.439	0.08446922
932.607	0.08435716
932.776	0.08416682
932.944	0.08381498
933.113	0.08359702
933.281	0.08345219
933.449	0.08324127
933.618	0.08314606
933.786	0.08312735
933.954	0.08316389
934.123	0.08301247
934.291	0.08297724
934.459	0.08315254
934.627	0.08328983
934.795	0.08323609
934.964	0.08316391
935.132	0.08305184
935.3	0.08304544
935.468	0.08283238
935.636	0.08270116
935.804	0.08256098
935.972	0.08257232
936.14	0.0825102
936.308	0.08242403
936.476	0.08273715
936.644	0.08286542
936.812	0.08276676
936.98	0.08293431
937.148	0.08314777
937.316	0.08315581
937.484	0.08333723
937.652	0.083363
937.82	0.08350965
937.987	0.0835515
938.155	0.08365542
938.323	0.08362873
938.491	0.08381545
938.658	0.08382205
938.826	0.08362259
938.994	0.08380199
939.162	0.08403248
939.329	0.08423047
939.497	0.08435446
939.665	0.08484569
939.832	0.08509797
940	0.08536619
940.167	0.08548412
940.335	0.08512721
940.502	0.08499445
940.67	0.08537949
940.837	0.08520427
941.005	0.08499172
941.172	0.08554744
941.34	0.08557481
941.507	0.08679705
941.674	0.08697884
941.842	0.08652215
942.009	0.08703235
942.177	0.08717519
942.344	0.08699326
942.511	0.08701836
942.678	0.08714598
942.846	0.08683805
943.013	0.08731181
943.18	0.08656078
943.347	0.08710139
943.514	0.08680016
943.682	0.08733622
943.849	0.08701251
944.016	0.08683925
944.183	0.08714217
944.35	0.08718608
944.517	0.08724467
944.684	0.08711192
944.851	0.08554022
945.018	0.08518164
945.185	0.08501945
945.352	0.08406641
945.519	0.08389953
945.686	0.08312555
945.853	0.08324907
946.02	0.08367078
946.187	0.08283298
946.353	0.08330946
946.52	0.08302982
946.687	0.08237875
946.854	0.08182002
947.021	0.08119046
947.187	0.08136658
947.354	0.08091662
947.521	0.08055037
947.687	0.08057015
947.854	0.08064143
948.021	0.08030445
948.187	0.08014511
948.354	0.07938447
948.52	0.07964507
948.687	0.08000274
948.854	0.07954127
949.02	0.07903605
949.187	0.07960757
949.353	0.07882883
949.52	0.07819197
949.686	0.07802516
949.852	0.07734487
950.019	0.07691402
950.185	0.07647345
950.352	0.07573323
950.518	0.07590505
950.684	0.07584189
950.851	0.07580619
951.017	0.07528172
951.183	0.07546384
951.349	0.07514711
951.516	0.07424683
951.682	0.07388976
951.848	0.07306939
952.014	0.07188774
952.18	0.07130339
952.346	0.07055425
952.512	0.07027951
952.679	0.07057175
952.845	0.07012804
953.011	0.07030218
953.177	0.07027745
953.343	0.06995641
953.509	0.06984091
953.675	0.06979986
953.841	0.06996736
954.007	0.07014673
954.172	0.07019031
954.338	0.06989111
954.504	0.0693891
954.67	0.06868736
954.836	0.06857761
955.002	0.06793285
955.167	0.06703899
955.333	0.06621732
955.499	0.06602357
955.665	0.06605574
955.83	0.06581275
955.996	0.06518024
956.162	0.06446973
956.327	0.06420851
956.493	0.06398256
956.659	0.06392477
956.824	0.06381647
956.99	0.06360402
957.155	0.06341148
957.321	0.06310408
957.486	0.06278775
957.652	0.06237495
957.817	0.06198646
957.983	0.0613118
958.148	0.06104863
958.314	0.06085167
958.479	0.06092299
958.644	0.06103904
958.81	0.06123801
958.975	0.06123167
959.14	0.06181182
959.306	0.06185584
959.471	0.06206532
959.636	0.0620239
959.801	0.06222304
959.967	0.06236333
960.132	0.06231663
960.297	0.06183767
960.462	0.06181615
960.627	0.06167182
960.792	0.06102463
960.957	0.06067705
961.123	0.06033751
961.288	0.06023222
961.453	0.0601046
961.618	0.05991024
961.783	0.05972213
961.948	0.06008558
962.113	0.05992214
962.277	0.05994974
962.442	0.05983055
962.607	0.05985605
962.772	0.05982685
962.937	0.0591642
963.102	0.05897316
963.267	0.05885342
963.431	0.05840754
963.596	0.05814567
963.761	0.05811886
963.926	0.05805412
964.09	0.0583586
964.255	0.05852193
964.42	0.0583266
964.584	0.05846664
964.749	0.05831854
964.914	0.05802943
965.078	0.0578532
965.243	0.0577762
965.407	0.05752109
965.572	0.05763438
965.736	0.05769512
965.901	0.05782427
966.065	0.05803652
966.23	0.05812993
966.394	0.05818408
966.559	0.05821515
966.723	0.05835473
966.887	0.05840716
967.052	0.05829336
967.216	0.05785802
967.38	0.05752214
967.545	0.05766056
967.709	0.0575022
967.873	0.0571734
968.037	0.05696373
968.202	0.05719518
968.366	0.05734211
968.53	0.05764849
968.694	0.05731784
968.858	0.05734264
969.022	0.05730535
969.187	0.0572223
969.351	0.05691549
969.515	0.05681992
969.679	0.0566069
969.843	0.05649909
970.007	0.05614928
970.171	0.05605176
970.335	0.05590329
970.499	0.05556793
970.662	0.05547519
970.826	0.05546066
970.99	0.05552473
971.154	0.05573734
971.318	0.05567102
971.482	0.05530679
971.645	0.05553185
971.809	0.0554554
971.973	0.05507827
972.137	0.05474373
972.3	0.05456428
972.464	0.05467176
972.628	0.05466667
972.791	0.05444505
972.955	0.05438647
973.119	0.05428668
973.282	0.05425865
973.446	0.05390615
973.609	0.05373559
973.773	0.05347355
973.936	0.05315196
974.1	0.05295741
974.263	0.05285999
974.427	0.0528327
974.59	0.0528426
974.754	0.05234614
974.917	0.05255927
975.08	0.05234025
975.244	0.05214815
975.407	0.05189491
975.57	0.05142578
975.734	0.05111948
975.897	0.05092363
976.06	0.05032142
976.223	0.05020959
976.387	0.04995952
976.55	0.0497426
976.713	0.04967443
976.876	0.04968253
977.039	0.04962557
977.202	0.04985833
977.365	0.04996446
977.528	0.04990505
977.692	0.04980366
977.855	0.04950971
978.018	0.04928367
978.181	0.04906256
978.344	0.04888208
978.506	0.04877456
978.669	0.04863498
978.832	0.0488304
978.995	0.04906058
979.158	0.04925967
979.321	0.04961439
979.484	0.0497538
979.646	0.050085
979.809	0.05030701
979.972	0.05037862
980.135	0.05069852
980.297	0.05072433
980.46	0.05087622
980.623	0.05086073
980.786	0.0502386
980.948	0.05009017
981.111	0.05015924
981.273	0.04978066
981.436	0.04963852
981.599	0.0493961
981.761	0.04925938
981.924	0.0496053
982.086	0.04940903
982.249	0.04920214
982.411	0.04896973
982.573	0.04885497
982.736	0.0487839
982.898	0.04859692
983.061	0.04824101
983.223	0.04828656
983.385	0.04794473
983.548	0.04831873
983.71	0.0481491
983.872	0.04804447
984.034	0.04838485
984.197	0.04835762
984.359	0.04841331
984.521	0.04837507
984.683	0.04796094
984.845	0.04802751
985.008	0.0477199
985.17	0.04739009
985.332	0.04722391
985.494	0.0469188
985.656	0.04679663
985.818	0.04666263
985.98	0.04626135
986.142	0.04607236
986.304	0.045655
986.466	0.04555551
986.628	0.04513068
986.79	0.04534609
986.952	0.04549283
987.113	0.04568696
987.275	0.04562661
987.437	0.04553812
987.599	0.04545847
987.761	0.04562312
987.922	0.04505439
988.084	0.04499665
988.246	0.04506006
988.408	0.04505268
988.569	0.04520853
988.731	0.04543886
988.893	0.04537506
989.054	0.04580155
989.216	0.04584555
989.377	0.04548804
989.539	0.04554868
989.701	0.04551732
989.862	0.04516774
990.024	0.0452577
990.185	0.0449226
990.347	0.0443568
990.508	0.0442477
990.669	0.04394205
990.831	0.0436934
990.992	0.0441198
991.154	0.04368367
991.315	0.04403246
991.476	0.0440447
991.638	0.04424028
991.799	0.04429615
991.96	0.04438772
992.121	0.04425484
992.283	0.04473383
992.444	0.04442356
992.605	0.0446526
992.766	0.04425515
992.927	0.04407812
993.088	0.04410034
993.249	0.04391752
993.41	0.0436353
993.572	0.04351667
993.733	0.04361192
993.894	0.04371613
994.055	0.04357063
994.216	0.04347504
994.376	0.04298742
994.537	0.04278848
994.698	0.04253704
994.859	0.04219313
995.02	0.04182515
995.181	0.04135448
995.342	0.04126671
995.503	0.04085331
995.663	0.04045363
995.824	0.04031122
995.985	0.04013103
996.146	0.04014723
996.306	0.04076584
996.467	0.04041643
996.628	0.04054172
996.788	0.04070602
996.949	0.04046778
997.11	0.04044318
997.27	0.04034187
997.431	0.03992508
997.591	0.03973664
997.752	0.03959445
997.912	0.03980387
998.073	0.03979702
998.233	0.03983837
998.394	0.0401067
998.554	0.04045242
998.714	0.04078733
998.875	0.04071913
999.035	0.04034118
999.196	0.04044244
999.356	0.04041709
999.516	0.03990718
999.676	0.03997226
999.837	0.03924663
999.997	0.03957898
1000.157	0.03957719
1000.317	0.0391813
1000.477	0.03887239
1000.638	0.03927211
1000.798	0.03889563
1000.958	0.03936214
1001.118	0.03945634
1001.278	0.03959307
1001.438	0.04021805
1001.598	0.04023134
1001.758	0.03992669
1001.918	0.04005863
1002.078	0.03942122
1002.238	0.03912949
1002.398	0.03903572
1002.558	0.03905088
1002.718	0.03932685
1002.878	0.03954916
1003.037	0.03907151
1003.197	0.03967529
1003.357	0.03964382
1003.517	0.0401524
1003.677	0.03963284
1003.836	0.03924079
1003.996	0.03938057
1004.156	0.03976758
1004.315	0.03937154
1004.475	0.03887639
1004.635	0.03882727
1004.794	0.03844575
1004.954	0.03791273
1005.114	0.03694863
1005.273	0.03673754
1005.433	0.03714859
1005.592	0.03747391
1005.752	0.03671444
1005.911	0.03703222
1006.071	0.03754051
1006.23	0.03823731
1006.389	0.03834077
1006.549	0.03815265
1006.708	0.03838117
1006.868	0.03849773
1007.027	0.0390227
1007.186	0.03865628
1007.345	0.03842973
1007.505	0.0381061
1007.664	0.03778924
1007.823	0.03771146
1007.982	0.03751619
1008.142	0.03738991
1008.301	0.03780662
1008.46	0.0373216
1008.619	0.03741652
1008.778	0.03767947
1008.937	0.03798474
1009.096	0.038109
1009.255	0.03768684
1009.414	0.03770102
1009.573	0.0376995
1009.732	0.03819357
1009.891	0.03808169
1010.05	0.03844812
1010.209	0.03867277
1010.368	0.03865922
1010.527	0.03916231
1010.686	0.03961755
1010.845	0.03941226
1011.003	0.0392584
1011.162	0.03836146
1011.321	0.0382974
1011.48	0.03859248
1011.638	0.03764069
1011.797	0.0386085
1011.956	0.03838007
1012.115	0.03921965
1012.273	0.03929781
1012.432	0.03933093
1012.59	0.03903955
1012.749	0.03952185
1012.908	0.03823199
1013.066	0.03821668
1013.225	0.03801622
1013.383	0.03795585
1013.542	0.03786939
1013.7	0.03744437
1013.859	0.03706221
1014.017	0.03760805
1014.175	0.03714176
1014.334	0.03675308
1014.492	0.03643737
1014.65	0.03634809
1014.809	0.03682584
1014.967	0.03577041
1015.125	0.03631502
1015.284	0.037396
1015.442	0.03774612
1015.6	0.03845655
1015.758	0.03836553
1015.916	0.03871795
1016.075	0.03925575
1016.233	0.03902434
1016.391	0.03855245
1016.549	0.03807578
1016.707	0.03790619
1016.865	0.03806249
1017.023	0.03804217
1017.181	0.03868078
1017.339	0.03775864
1017.497	0.037319
1017.655	0.038146
1017.813	0.03873655
1017.971	0.03811228
1018.129	0.03823335
1018.286	0.03799405
1018.444	0.03772728
1018.602	0.03853918
1018.76	0.03853432
1018.918	0.03849375
1019.075	0.03954727
1019.233	0.03917158
1019.391	0.03973014
1019.549	0.04114228
1019.706	0.04082509
1019.864	0.04092825
1020.022	0.04131006
1020.179	0.04228357
1020.337	0.0433312
1020.494	0.04369298
1020.652	0.04229192
1020.809	0.04298792
1020.967	0.04191321
1021.124	0.04140323
1021.282	0.04079679
1021.439	0.04076012
1021.597	0.04101878
1021.754	0.04236581
1021.911	0.04269482
1022.069	0.04287365
1022.226	0.04151013
1022.384	0.04149015
1022.541	0.04039794
1022.698	0.04167975
1022.855	0.04070573
1023.013	0.03981953
1023.17	0.04126761
1023.327	0.04329249
1023.484	0.04328238
1023.641	0.04377029
1023.798	0.04203802
1023.956	0.04513338
1024.113	0.04574062
1024.27	0.0454353
1024.427	0.04421197
1024.584	0.04479154
1024.741	0.04548621
1024.898	0.04516067
1025.055	0.04248871
1025.212	0.04136787
1025.369	0.04132706
1025.525	0.04024935
1025.682	0.03927318
1025.839	0.03914985
1025.996	0.04056363
1026.153	0.04161269
1026.31	0.04290875
1026.466	0.04138285
1026.623	0.04408133
1026.78	0.04629051
1026.937	0.04718909
1027.093	0.04698589
1027.25	0.04654908
1027.407	0.04716715
1027.563	0.0490425
1027.72	0.04899681
1027.876	0.04788759
1028.033	0.0466975
1028.19	0.04596771
1028.346	0.04496872
1028.503	0.04400011
1028.659	0.04483701
1028.816	0.04323972
1028.972	0.0437019
1029.128	0.04389569
1029.285	0.04167441
1029.441	0.04398288
1029.598	0.04533523
1029.754	0.04492837
1029.91	0.04582387
1030.067	0.04440571
1030.223	0.04500884
1030.379	0.04647906
1030.535	0.0486705
1030.691	0.04796039
1030.848	0.04811416
1031.004	0.04961788
1031.16	0.05101812
1031.316	0.05251126
1031.472	0.05522981
1031.628	0.05248916
1031.784	0.05350047
1031.94	0.05412992
1032.096	0.05366684
1032.252	0.05409544
1032.408	0.05384725
1032.564	0.05227431
1032.72	0.05331774
1032.876	0.0473695
1033.032	0.04620197
1033.188	0.04632749
1033.344	0.04580432
1033.5	0.04526494
1033.655	0.04574073
1033.811	0.04433387
1033.967	0.05238138
