Data from 1_mm_pl_100pc_Absorbance__0__17-04-17-754.txt Node

Date: Wed Mar 08 17:04:17 CET 2023
User: Ange
Spectrometer: FLMT08341
Trigger mode: 0
Integration Time (sec): 1.000000E-2
Scans to average: 400
Electric dark correction enabled: true
Nonlinearity correction enabled: false
Boxcar width: 3
XAxis mode: Wavelengths
Number of Pixels in Spectrum: 3648
>>>>>Begin Spectral Data<<<<<
345.271	0.06166382
345.487	0.05008872
345.704	0.03822198
345.921	0.02733652
346.137	0.04011022
346.354	0.01151832
346.571	-0.00591895
346.787	-0.03076329
347.004	-0.06693575
347.22	-0.16169039
347.437	-0.14393598
347.653	0.00831169
347.87	0.53188085
348.086	1.63871008
348.303	-0.13166772
348.519	0.19393975
348.736	0.1902593
348.952	0.20241923
349.169	0.20327958
349.385	0.21150219
349.601	0.21109727
349.818	0.20681275
350.034	0.20308993
350.251	0.19871645
350.467	0.19917358
350.683	0.19537328
350.9	0.19153211
351.116	0.18759514
351.332	0.1849203
351.549	0.19005546
351.765	0.19652536
351.981	0.19743954
352.197	0.20178287
352.414	0.20947535
352.63	0.21281179
352.846	0.21736283
353.062	0.21255602
353.278	0.20453724
353.495	0.206616
353.711	0.20605331
353.927	0.20319268
354.143	0.20282418
354.359	0.20212732
354.575	0.20348555
354.792	0.20946323
355.008	0.20565176
355.224	0.20413188
355.44	0.20342062
355.656	0.20205921
355.872	0.20275816
356.088	0.20831665
356.304	0.20811962
356.52	0.20859497
356.736	0.21121724
356.952	0.21250575
357.168	0.21381031
357.384	0.21627846
357.6	0.21109144
357.816	0.2131048
358.032	0.21563038
358.248	0.21695046
358.464	0.21820097
358.679	0.2187713
358.895	0.21646382
359.111	0.22013728
359.327	0.21701645
359.543	0.21712118
359.759	0.21999094
359.974	0.21774541
360.19	0.21772605
360.406	0.21897249
360.622	0.21553736
360.838	0.21461064
361.053	0.21538143
361.269	0.21418167
361.485	0.21484449
361.701	0.21482937
361.916	0.21299188
362.132	0.21472196
362.348	0.21658429
362.563	0.21670628
362.779	0.21501002
362.995	0.21632391
363.21	0.21824174
363.426	0.21927848
363.641	0.21849493
363.857	0.21986677
364.073	0.2182714
364.288	0.21739356
364.504	0.2186644
364.719	0.21818273
364.935	0.21735462
365.15	0.2185804
365.366	0.21809969
365.581	0.2200239
365.797	0.22040527
366.012	0.21867901
366.228	0.21608598
366.443	0.21855686
366.658	0.21789902
366.874	0.21612036
367.089	0.21689155
367.305	0.21822377
367.52	0.21850847
367.735	0.21975691
367.951	0.21771846
368.166	0.21842349
368.381	0.22184464
368.597	0.22101589
368.812	0.22206897
369.027	0.22312348
369.243	0.22367681
369.458	0.2267761
369.673	0.22755376
369.888	0.2260759
370.104	0.2247234
370.319	0.22503427
370.534	0.22329387
370.749	0.22346994
370.964	0.22330664
371.179	0.22267759
371.395	0.22188038
371.61	0.22399392
371.825	0.22181063
372.04	0.22327882
372.255	0.22175936
372.47	0.21967684
372.685	0.21832094
372.9	0.21880077
373.115	0.21681363
373.33	0.21677363
373.545	0.21576598
373.76	0.21660367
373.975	0.21586338
374.19	0.21475835
374.405	0.21443044
374.62	0.21544543
374.835	0.21666904
375.05	0.21663706
375.265	0.21639911
375.48	0.21621529
375.695	0.2189036
375.91	0.21735289
376.125	0.21632078
376.339	0.21327002
376.554	0.21305997
376.769	0.21271171
376.984	0.21265574
377.199	0.21269721
377.414	0.21329086
377.628	0.21337822
377.843	0.2143575
378.058	0.21396793
378.273	0.21432258
378.487	0.21388091
378.702	0.21158424
378.917	0.21044917
379.131	0.20935216
379.346	0.20757862
379.561	0.20640738
379.775	0.20565549
379.99	0.20464618
380.205	0.20331841
380.419	0.20195108
380.634	0.20053266
380.848	0.20079829
381.063	0.20022566
381.278	0.19944305
381.492	0.19818156
381.707	0.19795396
381.921	0.19701034
382.136	0.19748707
382.35	0.19614693
382.565	0.1952858
382.779	0.19473656
382.994	0.19460125
383.208	0.19363997
383.422	0.19404834
383.637	0.19194771
383.851	0.19225931
384.066	0.19151692
384.28	0.19072385
384.494	0.18975151
384.709	0.18946157
384.923	0.18915973
385.137	0.18849378
385.352	0.18716916
385.566	0.18623147
385.78	0.18544145
385.995	0.18419333
386.209	0.18313108
386.423	0.18260608
386.637	0.18218923
386.852	0.18090692
387.066	0.18063106
387.28	0.17842623
387.494	0.17847109
387.708	0.17773664
387.923	0.17586076
388.137	0.17540835
388.351	0.17504474
388.565	0.17434974
388.779	0.17411272
388.993	0.17379321
389.207	0.17337871
389.421	0.17279532
389.635	0.17124091
389.85	0.16994622
390.064	0.16898067
390.278	0.16860728
390.492	0.16741679
390.706	0.16636663
390.92	0.16553831
391.134	0.1650061
391.348	0.16553915
391.561	0.16430837
391.775	0.16258694
391.989	0.16097847
392.203	0.16023371
392.417	0.15946526
392.631	0.15914588
392.845	0.15729017
393.059	0.15686307
393.273	0.15646372
393.486	0.15544543
393.7	0.15392973
393.914	0.15304795
394.128	0.15174917
394.342	0.1508305
394.555	0.14927885
394.769	0.14795359
394.983	0.14739051
395.197	0.14655075
395.41	0.14553322
395.624	0.14438789
395.838	0.14326371
396.051	0.14290994
396.265	0.14193759
396.479	0.14135313
396.692	0.14037213
396.906	0.1396483
397.12	0.13888981
397.333	0.13840123
397.547	0.13723023
397.76	0.1369402
397.974	0.13589119
398.187	0.13570756
398.401	0.13453902
398.614	0.13387445
398.828	0.13307255
399.041	0.13220921
399.255	0.13130786
399.468	0.13057432
399.682	0.12925776
399.895	0.12893604
400.109	0.12771773
400.322	0.12667497
400.536	0.12564786
400.749	0.12489761
400.962	0.1237715
401.176	0.12317147
401.389	0.12229504
401.602	0.1214361
401.816	0.12068352
402.029	0.11978515
402.242	0.11878816
402.456	0.1180021
402.669	0.11696353
402.882	0.11544911
403.095	0.11509871
403.309	0.11430807
403.522	0.11383935
403.735	0.11276225
403.948	0.11207159
404.161	0.11175869
404.375	0.1115738
404.588	0.1107391
404.801	0.10966778
405.014	0.10837963
405.227	0.10808304
405.44	0.10712457
405.653	0.10600439
405.866	0.10496674
406.079	0.10405392
406.293	0.1034638
406.506	0.10295956
406.719	0.10197442
406.932	0.10121286
407.145	0.10027702
407.358	0.09976466
407.571	0.09888207
407.784	0.09826728
407.996	0.0977382
408.209	0.09688507
408.422	0.09653064
408.635	0.09615763
408.848	0.09533995
409.061	0.09457803
409.274	0.09374704
409.487	0.09320199
409.7	0.09263485
409.912	0.09203407
410.125	0.09144094
410.338	0.09089
410.551	0.09060694
410.764	0.09005388
410.976	0.08938313
411.189	0.08899499
411.402	0.08801956
411.615	0.08740399
411.827	0.08681154
412.04	0.08619996
412.253	0.08545809
412.465	0.08477259
412.678	0.08429068
412.891	0.08422523
413.103	0.08339965
413.316	0.08308295
413.529	0.08266237
413.741	0.08252196
413.954	0.08208307
414.166	0.08146384
414.379	0.08094977
414.591	0.0807704
414.804	0.08011522
415.016	0.07952601
415.229	0.07872285
415.441	0.07826512
415.654	0.07797271
415.866	0.07742439
416.079	0.0769464
416.291	0.0764674
416.504	0.07629655
416.716	0.07617129
416.928	0.07578946
417.141	0.07532765
417.353	0.07511782
417.566	0.07460396
417.778	0.07455554
417.99	0.07398561
418.203	0.07361675
418.415	0.073408
418.627	0.07315511
418.839	0.07273494
419.052	0.07259012
419.264	0.07206709
419.476	0.07192019
419.688	0.0715512
419.901	0.07112361
420.113	0.07069691
420.325	0.07022142
420.537	0.0698285
420.749	0.06944109
420.961	0.06916834
421.174	0.06885124
421.386	0.06842093
421.598	0.06822823
421.81	0.06820925
422.022	0.06785568
422.234	0.06781709
422.446	0.06737731
422.658	0.06711478
422.87	0.06712096
423.082	0.0669692
423.294	0.06678349
423.506	0.06667918
423.718	0.06631857
423.93	0.06616853
424.142	0.06591433
424.354	0.06560308
424.566	0.06538418
424.778	0.06519587
424.99	0.06519072
425.202	0.06510042
425.414	0.06491693
425.625	0.06485005
425.837	0.06465676
426.049	0.06465011
426.261	0.06451606
426.473	0.06436195
426.684	0.06451121
426.896	0.06468065
427.108	0.06458466
427.32	0.06459047
427.531	0.06454379
427.743	0.06455853
427.955	0.06471235
428.167	0.06434307
428.378	0.06403511
428.59	0.0642377
428.802	0.06428639
429.013	0.06427168
429.225	0.06401279
429.436	0.06383601
429.648	0.0641884
429.86	0.06444968
430.071	0.06446313
430.283	0.06469197
430.494	0.06472908
430.706	0.06500233
430.917	0.0650127
431.129	0.06502807
431.34	0.06503996
431.552	0.06489599
431.763	0.06459946
431.975	0.06453448
432.186	0.06450837
432.398	0.0646826
432.609	0.06446842
432.821	0.06446893
433.032	0.06469865
433.243	0.06486414
433.455	0.06482248
433.666	0.06480411
433.877	0.06474511
434.089	0.06471655
434.3	0.06458757
434.511	0.06444933
434.723	0.06437352
434.934	0.06436076
435.145	0.06433356
435.356	0.06439603
435.568	0.06452847
435.779	0.06452198
435.99	0.06430176
436.201	0.06447484
436.412	0.06455019
436.624	0.06467641
436.835	0.06467818
437.046	0.06473639
437.257	0.06488884
437.468	0.06525534
437.679	0.06531569
437.89	0.06546448
438.101	0.06556094
438.312	0.06579965
438.523	0.06588333
438.734	0.06612927
438.945	0.06621042
439.156	0.06633985
439.367	0.06655307
439.578	0.06685919
439.789	0.06695242
440	0.06727952
440.211	0.06739026
440.422	0.06767183
440.633	0.0678492
440.844	0.06791297
441.055	0.06800046
441.266	0.06813774
441.477	0.06819996
441.687	0.06839391
441.898	0.06857425
442.109	0.06875845
442.32	0.06878908
442.531	0.06885972
442.741	0.06891012
442.952	0.06894655
443.163	0.06903811
443.374	0.06914217
443.584	0.06915144
443.795	0.0695885
444.006	0.06985941
444.216	0.07010732
444.427	0.07022089
444.638	0.07044176
444.848	0.07065951
445.059	0.07103207
445.27	0.07123106
445.48	0.07135894
445.691	0.07161362
445.901	0.07215552
446.112	0.07239162
446.323	0.07262678
446.533	0.07280471
446.744	0.07307291
446.954	0.07330043
447.165	0.07353423
447.375	0.07358711
447.586	0.07380108
447.796	0.07412253
448.006	0.07447404
448.217	0.07469472
448.427	0.07502668
448.638	0.07527444
448.848	0.07567732
449.058	0.07591729
449.269	0.07613145
449.479	0.07636863
449.689	0.07662083
449.9	0.07690149
450.11	0.0770951
450.32	0.07726185
450.531	0.07772959
450.741	0.07788391
450.951	0.07819548
451.161	0.07848074
451.372	0.07865785
451.582	0.07907587
451.792	0.07933515
452.002	0.07942273
452.212	0.07971737
452.422	0.0798778
452.633	0.08011608
452.843	0.08048397
453.053	0.080646
453.263	0.08088859
453.473	0.08118407
453.683	0.08139772
453.893	0.08182503
454.103	0.08209189
454.313	0.08239335
454.523	0.08286261
454.733	0.08323631
454.943	0.08361628
455.153	0.0839647
455.363	0.08411953
455.573	0.08436582
455.783	0.08455475
455.993	0.08472616
456.203	0.08506286
456.413	0.08532831
456.623	0.08565624
456.833	0.08606328
457.042	0.08642552
457.252	0.08685749
457.462	0.08729974
457.672	0.08763491
457.882	0.08786801
458.091	0.08823945
458.301	0.088549
458.511	0.08890383
458.721	0.08922888
458.931	0.08954732
459.14	0.08990758
459.35	0.09028271
459.56	0.09061855
459.769	0.09107015
459.979	0.0915047
460.189	0.09182454
460.398	0.09207969
460.608	0.09247951
460.817	0.0928435
461.027	0.0933252
461.237	0.09357392
461.446	0.09384984
461.656	0.09417611
461.865	0.09461161
462.075	0.09493242
462.284	0.09540348
462.494	0.09567758
462.703	0.09598556
462.913	0.09642733
463.122	0.09695449
463.332	0.0973257
463.541	0.09768851
463.751	0.09808652
463.96	0.09838556
464.169	0.09883216
464.379	0.0991914
464.588	0.09947275
464.797	0.09991585
465.007	0.10037146
465.216	0.10071864
465.425	0.10123083
465.635	0.10171767
465.844	0.10217342
466.053	0.10267331
466.263	0.10313661
466.472	0.10347117
466.681	0.10393188
466.89	0.10430018
467.099	0.10469276
467.309	0.10511132
467.518	0.10558151
467.727	0.10597822
467.936	0.10637832
468.145	0.10683088
468.354	0.10734745
468.563	0.10781085
468.772	0.10818336
468.982	0.10859314
469.191	0.10917133
469.4	0.10965081
469.609	0.11018916
469.818	0.11068969
470.027	0.11125455
470.236	0.11179324
470.445	0.11225112
470.654	0.11258953
470.863	0.11313197
471.072	0.11361574
471.28	0.11404664
471.489	0.11445976
471.698	0.11499207
471.907	0.11553638
472.116	0.11615786
472.325	0.11675708
472.534	0.1173259
472.743	0.11795548
472.951	0.11862528
473.16	0.11930442
473.369	0.11983385
473.578	0.12036436
473.786	0.12092304
473.995	0.12144811
474.204	0.12211937
474.413	0.12266027
474.621	0.12328813
474.83	0.12404626
475.039	0.12469633
475.247	0.12534165
475.456	0.12597442
475.665	0.12654969
475.873	0.12721231
476.082	0.12776762
476.291	0.12833534
476.499	0.12908107
476.708	0.12973336
476.916	0.13045934
477.125	0.13112762
477.333	0.13179798
477.542	0.13250227
477.75	0.13307439
477.959	0.13363587
478.167	0.13433971
478.376	0.13496151
478.584	0.13568619
478.793	0.13635109
479.001	0.13703829
479.209	0.13777404
479.418	0.13856911
479.626	0.13920001
479.834	0.13998389
480.043	0.14075286
480.251	0.1415179
480.459	0.14233003
480.668	0.14314794
480.876	0.14379614
481.084	0.14451028
481.293	0.14527499
481.501	0.14591076
481.709	0.14673966
481.917	0.14752807
482.125	0.14835142
482.334	0.14917175
482.542	0.15011323
482.75	0.15095729
482.958	0.15192941
483.166	0.15287207
483.374	0.1537263
483.583	0.15455328
483.791	0.1555256
483.999	0.15638452
484.207	0.15718657
484.415	0.15803853
484.623	0.15869082
484.831	0.15948938
485.039	0.16030475
485.247	0.16108306
485.455	0.16189924
485.663	0.16275165
485.871	0.16361038
486.079	0.16451455
486.287	0.16537003
486.495	0.16623385
486.702	0.1670259
486.91	0.16787916
487.118	0.16877731
487.326	0.169584
487.534	0.17056889
487.742	0.17147725
487.95	0.17240087
488.157	0.1733663
488.365	0.17440682
488.573	0.17543752
488.781	0.1765745
488.988	0.17762077
489.196	0.17866566
489.404	0.17968816
489.612	0.18078271
489.819	0.18189615
490.027	0.1829943
490.235	0.18390564
490.442	0.18490446
490.65	0.18589506
490.857	0.18706311
491.065	0.18824335
491.273	0.18927716
491.48	0.19031027
491.688	0.19140995
491.895	0.19258477
492.103	0.19380626
492.31	0.19484079
492.518	0.19583271
492.725	0.1968743
492.933	0.19788403
493.14	0.19900005
493.348	0.20006495
493.555	0.20109546
493.763	0.20208985
493.97	0.20324969
494.177	0.20442583
494.385	0.20563627
494.592	0.20679156
494.8	0.20782926
495.007	0.20900087
495.214	0.21015229
495.422	0.2113103
495.629	0.21241602
495.836	0.2135843
496.043	0.21481377
496.251	0.21610875
496.458	0.21731438
496.665	0.21853385
496.872	0.21972908
497.08	0.22092893
497.287	0.22214166
497.494	0.22335645
497.701	0.22458794
497.908	0.22579956
498.115	0.22695095
498.322	0.22808897
498.53	0.22927884
498.737	0.23043264
498.944	0.23162989
499.151	0.2327769
499.358	0.23403252
499.565	0.23534866
499.772	0.23671581
499.979	0.23807077
500.186	0.23943624
500.393	0.24069912
500.6	0.24198231
500.807	0.24330476
501.014	0.24464096
501.221	0.24593585
501.427	0.2472447
501.634	0.24862142
501.841	0.24990887
502.048	0.25125489
502.255	0.25241321
502.462	0.25370976
502.669	0.25506577
502.875	0.25641701
503.082	0.25762619
503.289	0.25889815
503.496	0.26022936
503.702	0.26161338
503.909	0.26297022
504.116	0.26432172
504.323	0.26563798
504.529	0.26699759
504.736	0.26838204
504.943	0.26973121
505.149	0.27120205
505.356	0.272659
505.563	0.27409373
505.769	0.27555859
505.976	0.27698218
506.182	0.278589
506.389	0.28002364
506.595	0.28150703
506.802	0.28289372
507.008	0.28424183
507.215	0.28559328
507.421	0.28707138
507.628	0.28833535
507.834	0.28975698
508.041	0.29108153
508.247	0.29245831
508.454	0.29388987
508.66	0.29522562
508.866	0.2964903
509.073	0.29799399
509.279	0.29943681
509.486	0.30080933
509.692	0.30220116
509.898	0.30357764
510.105	0.30504364
510.311	0.30654807
510.517	0.30798795
510.723	0.30947425
510.93	0.31094355
511.136	0.31247836
511.342	0.31389153
511.548	0.31532396
511.754	0.31675641
511.961	0.3181245
512.167	0.31945077
512.373	0.32080428
512.579	0.32218411
512.785	0.32371689
512.991	0.32516171
513.197	0.32663769
513.404	0.32815258
513.61	0.32971215
513.816	0.33121188
514.022	0.3326906
514.228	0.33407813
514.434	0.33549054
514.64	0.33688821
514.846	0.33835127
515.052	0.33972002
515.258	0.34110464
515.464	0.34247212
515.669	0.34386467
515.875	0.34530954
516.081	0.34674319
516.287	0.3482097
516.493	0.3497401
516.699	0.35125713
516.905	0.35274205
517.111	0.35423418
517.316	0.35574319
517.522	0.3571802
517.728	0.35861926
517.934	0.36002218
518.139	0.36144402
518.345	0.36281355
518.551	0.36427364
518.757	0.36556229
518.962	0.36696168
519.168	0.36830911
519.374	0.36965118
519.579	0.37099612
519.785	0.37257036
519.991	0.37401931
520.196	0.37554519
520.402	0.37700097
520.607	0.37844817
520.813	0.37991638
521.018	0.38129124
521.224	0.38242213
521.429	0.38374602
521.635	0.38517766
521.84	0.38642288
522.046	0.38779535
522.251	0.38907231
522.457	0.39040781
522.662	0.391936
522.868	0.39336038
523.073	0.39459537
523.279	0.39614162
523.484	0.39739647
523.689	0.39889344
523.895	0.40040035
524.1	0.40169777
524.305	0.40304377
524.511	0.40441219
524.716	0.40572396
524.921	0.40714457
525.126	0.40847637
525.332	0.40981431
525.537	0.41117482
525.742	0.41247833
525.947	0.41384707
526.153	0.41506532
526.358	0.41631602
526.563	0.4175475
526.768	0.41877427
526.973	0.42008077
527.178	0.42142407
527.383	0.42266927
527.588	0.42391938
527.794	0.42517977
527.999	0.42641051
528.204	0.42767612
528.409	0.42883292
528.614	0.43008255
528.819	0.43126657
529.024	0.43242109
529.229	0.43357979
529.434	0.43490834
529.639	0.43609628
529.843	0.43737709
530.048	0.43855368
530.253	0.43977109
530.458	0.4411062
530.663	0.44236933
530.868	0.44350769
531.073	0.44461902
531.278	0.44566397
531.482	0.44675034
531.687	0.44791742
531.892	0.44909846
532.097	0.45012995
532.302	0.45126634
532.506	0.4524246
532.711	0.45355631
532.916	0.45471238
533.12	0.45583509
533.325	0.45681992
533.53	0.45801585
533.734	0.45911653
533.939	0.46021682
534.144	0.46134717
534.348	0.46238211
534.553	0.46337447
534.757	0.4643518
534.962	0.46536038
535.167	0.46636237
535.371	0.46727658
535.576	0.46835048
535.78	0.46927514
535.985	0.47030686
536.189	0.47134452
536.394	0.47244328
536.598	0.47339709
536.803	0.47447651
537.007	0.47538503
537.211	0.47650639
537.416	0.47745004
537.62	0.47837368
537.825	0.4792416
538.029	0.48036153
538.233	0.48124549
538.438	0.48226005
538.642	0.48316304
538.846	0.48414887
539.05	0.48508256
539.255	0.48587783
539.459	0.48664558
539.663	0.48750371
539.867	0.48830764
540.072	0.48914568
540.276	0.48994505
540.48	0.4909275
540.684	0.49185088
540.888	0.49279781
541.092	0.49368937
541.297	0.49450514
541.501	0.49524088
541.705	0.49612293
541.909	0.49680553
542.113	0.49746768
542.317	0.49811062
542.521	0.49878271
542.725	0.49948162
542.929	0.50018711
543.133	0.50085566
543.337	0.50163345
543.541	0.50240628
543.745	0.50300277
543.949	0.5037605
544.153	0.50437918
544.357	0.50510987
544.56	0.50579951
544.764	0.50643363
544.968	0.50703415
545.172	0.50764901
545.376	0.50830676
545.58	0.50906899
545.783	0.50983171
545.987	0.51039282
546.191	0.5109393
546.395	0.51165923
546.598	0.51252282
546.802	0.51321265
547.006	0.51375775
547.21	0.51406875
547.413	0.51469191
547.617	0.51529634
547.821	0.51581189
548.024	0.51625887
548.228	0.51660287
548.431	0.5171364
548.635	0.51774182
548.839	0.51818839
549.042	0.51872644
549.246	0.51905702
549.449	0.51951014
549.653	0.52004352
549.856	0.52041847
550.06	0.52084089
550.263	0.52137992
550.467	0.52185591
550.67	0.52253445
550.874	0.52299254
551.077	0.5235772
551.28	0.5241485
551.484	0.52464889
551.687	0.52505965
551.891	0.52555014
552.094	0.52585349
552.297	0.52626771
552.501	0.52657594
552.704	0.52691526
552.907	0.52724911
553.11	0.52754028
553.314	0.52780961
553.517	0.52806924
553.72	0.52839314
553.923	0.52873314
554.127	0.52916129
554.33	0.52938723
554.533	0.52971402
554.736	0.52984643
554.939	0.53009392
555.142	0.53024976
555.345	0.5303301
555.549	0.53045551
555.752	0.53070012
555.955	0.53092696
556.158	0.53127932
556.361	0.53156198
556.564	0.53173646
556.767	0.53205434
556.97	0.53222163
557.173	0.53251543
557.376	0.53270003
557.579	0.53274091
557.782	0.5328393
557.984	0.53306117
558.187	0.53317785
558.39	0.53320585
558.593	0.53334121
558.796	0.53338697
558.999	0.53348098
559.202	0.53365266
559.404	0.5336544
559.607	0.53376771
559.81	0.53399932
560.013	0.53403899
560.216	0.53416492
560.418	0.53443487
560.621	0.53460718
560.824	0.53479973
561.026	0.53487134
561.229	0.53484339
561.432	0.53486697
561.634	0.53490022
561.837	0.53475738
562.04	0.53468453
562.242	0.53465458
562.445	0.53459257
562.647	0.53463541
562.85	0.53449471
563.053	0.53430705
563.255	0.53432554
563.458	0.53423967
563.66	0.53412857
563.863	0.53412697
564.065	0.53397292
564.268	0.53389522
564.47	0.53381899
564.672	0.53361751
564.875	0.53350307
565.077	0.53335977
565.28	0.53318899
565.482	0.53313302
565.684	0.53307324
565.887	0.53307319
566.089	0.53299511
566.291	0.53286525
566.494	0.53279074
566.696	0.53260801
566.898	0.53245947
567.1	0.53231884
567.303	0.53211168
567.505	0.53191564
567.707	0.53166369
567.909	0.53140006
568.111	0.53119417
568.314	0.53086742
568.516	0.53058516
568.718	0.53034237
568.92	0.53011631
569.122	0.52983116
569.324	0.52954923
569.526	0.52919702
569.728	0.52900471
569.93	0.52877573
570.132	0.52848183
570.334	0.52817589
570.536	0.52791283
570.738	0.52756559
570.94	0.52732747
571.142	0.52700757
571.344	0.52655091
571.546	0.52613255
571.748	0.52578564
571.95	0.52531427
572.152	0.52494111
572.354	0.52456708
572.555	0.52422157
572.757	0.52402732
572.959	0.52366781
573.161	0.52322745
573.363	0.52289924
573.564	0.52256576
573.766	0.5221139
573.968	0.5215995
574.17	0.52094982
574.371	0.52052518
574.573	0.52014113
574.775	0.51966693
574.976	0.51912063
575.178	0.51861117
575.38	0.51809527
575.581	0.51756554
575.783	0.51707417
575.985	0.51650932
576.186	0.51611214
576.388	0.51560323
576.589	0.51508976
576.791	0.5146057
576.992	0.51411886
577.194	0.51357524
577.395	0.51296798
577.597	0.51229257
577.798	0.51177115
578	0.5112584
578.201	0.51074535
578.402	0.5101908
578.604	0.5095997
578.805	0.50908929
579.007	0.50860188
579.208	0.50808959
579.409	0.50745086
579.611	0.50674371
579.812	0.50615263
580.013	0.50548979
580.215	0.50474031
580.416	0.50409002
580.617	0.50332515
580.818	0.50277022
581.019	0.50207538
581.221	0.50136766
581.422	0.50072194
581.623	0.50014457
581.824	0.49926985
582.025	0.49862463
582.226	0.497927
582.428	0.49734572
582.629	0.4966643
582.83	0.49601605
583.031	0.49520456
583.232	0.49466667
583.433	0.49395691
583.634	0.49307567
583.835	0.49232696
584.036	0.49150102
584.237	0.4906808
584.438	0.49004292
584.639	0.48916068
584.84	0.48842076
585.041	0.48762379
585.242	0.48677044
585.442	0.4860066
585.643	0.48523004
585.844	0.48433027
586.045	0.48364611
586.246	0.482713
586.447	0.48186425
586.647	0.48093701
586.848	0.48004471
587.049	0.47918481
587.25	0.47831659
587.45	0.47730228
587.651	0.47654526
587.852	0.47578403
588.053	0.47518701
588.253	0.47439654
588.454	0.47360701
588.655	0.47275392
588.855	0.47194771
589.056	0.47106022
589.256	0.47026473
589.457	0.46934509
589.658	0.46856047
589.858	0.46760509
590.059	0.46691309
590.259	0.46615931
590.46	0.46532019
590.66	0.46438902
590.861	0.46354763
591.061	0.46260485
591.262	0.46181611
591.462	0.46081341
591.662	0.45983495
591.863	0.45879901
592.063	0.45785629
592.264	0.45689155
592.464	0.45599949
592.664	0.45496703
592.865	0.45414954
593.065	0.4531847
593.265	0.45247997
593.465	0.45153318
593.666	0.45058214
593.866	0.44961627
594.066	0.44875309
594.266	0.44774048
594.467	0.44676375
594.667	0.44565829
594.867	0.44476181
595.067	0.44376331
595.267	0.44272786
595.467	0.44167637
595.668	0.440658
595.868	0.43975241
596.068	0.4387493
596.268	0.43762368
596.468	0.43662155
596.668	0.43573869
596.868	0.43473172
597.068	0.43377622
597.268	0.43281044
597.468	0.43181541
597.668	0.43084077
597.868	0.42986973
598.068	0.42879632
598.268	0.42780706
598.467	0.4268018
598.667	0.42570216
598.867	0.42466374
599.067	0.42373155
599.267	0.42270156
599.467	0.42164648
599.667	0.42058885
599.866	0.41951004
600.066	0.4184949
600.266	0.41740136
600.466	0.41633983
600.665	0.4153026
600.865	0.41420827
601.065	0.41314771
601.264	0.4119738
601.464	0.41087452
601.664	0.4098682
601.863	0.40867787
602.063	0.40761606
602.263	0.40646654
602.462	0.40541818
602.662	0.40445355
602.861	0.40341236
603.061	0.40241485
603.26	0.40145536
603.46	0.40035056
603.659	0.39942085
603.859	0.39845534
604.058	0.39741438
604.258	0.39643816
604.457	0.39546299
604.657	0.39443291
604.856	0.39338126
605.056	0.39233875
605.255	0.39124465
605.454	0.39018522
605.654	0.38898716
605.853	0.38782683
606.052	0.38663836
606.252	0.385657
606.451	0.38464844
606.65	0.38363209
606.849	0.38251513
607.049	0.3814673
607.248	0.38037014
607.447	0.37933546
607.646	0.37832587
607.845	0.37722402
608.045	0.37598266
608.244	0.37496331
608.443	0.37387421
608.642	0.37281984
608.841	0.37160839
609.04	0.37036014
609.239	0.36920975
609.438	0.36814276
609.637	0.36707212
609.836	0.36601278
610.035	0.36497934
610.234	0.36401013
610.433	0.36293587
610.632	0.36181562
610.831	0.36082492
611.03	0.35967459
611.229	0.35871051
611.428	0.35754645
611.627	0.3564102
611.826	0.35539312
612.025	0.35441244
612.224	0.35308332
612.422	0.35198081
612.621	0.35077229
612.82	0.34978657
613.019	0.34885068
613.218	0.34791575
613.416	0.34688823
613.615	0.34612884
613.814	0.34515586
614.012	0.34413565
614.211	0.34301167
614.41	0.34189281
614.608	0.34070316
614.807	0.33951167
615.006	0.33840186
615.204	0.33729905
615.403	0.33632476
615.602	0.33530664
615.8	0.3343609
615.999	0.33324879
616.197	0.33231108
616.396	0.33122485
616.594	0.33017981
616.793	0.32911183
616.991	0.32804071
617.19	0.32685732
617.388	0.32596183
617.586	0.32489041
617.785	0.32388258
617.983	0.32285544
618.182	0.32181868
618.38	0.32077515
618.578	0.31982637
618.777	0.3188242
618.975	0.31786167
619.173	0.31684429
619.372	0.31578697
619.57	0.31470886
619.768	0.31379289
619.966	0.31271482
620.165	0.31159234
620.363	0.3105263
620.561	0.30935315
620.759	0.30828257
620.957	0.30726509
621.155	0.3061149
621.354	0.30504212
621.552	0.30411177
621.75	0.30302793
621.948	0.30218932
622.146	0.30122095
622.344	0.30012416
622.542	0.29914127
622.74	0.29815129
622.938	0.29705237
623.136	0.29611305
623.334	0.29514289
623.532	0.29410943
623.73	0.29321351
623.928	0.29230973
624.126	0.29134968
624.324	0.29044904
624.522	0.28942276
624.719	0.28828299
624.917	0.28735956
625.115	0.28627314
625.313	0.28539129
625.511	0.28447902
625.708	0.28342438
625.906	0.28243855
626.104	0.28160223
626.302	0.28071692
626.499	0.27981607
626.697	0.27868836
626.895	0.27750948
627.093	0.27645045
627.29	0.27545712
627.488	0.27433705
627.686	0.27330111
627.883	0.27214334
628.081	0.27104158
628.278	0.27021297
628.476	0.26920627
628.673	0.26823171
628.871	0.26733552
629.068	0.26628724
629.266	0.26543353
629.463	0.26450988
629.661	0.26354031
629.858	0.26261873
630.056	0.26158044
630.253	0.26056663
630.451	0.25969954
630.648	0.25871212
630.845	0.25782344
631.043	0.25690622
631.24	0.25606509
631.438	0.25527711
631.635	0.25436527
631.832	0.2532352
632.029	0.25233358
632.227	0.2512505
632.424	0.25017295
632.621	0.24904671
632.818	0.2479089
633.016	0.24686904
633.213	0.24592839
633.41	0.24491921
633.607	0.24400654
633.804	0.24314161
634.001	0.24219265
634.199	0.24135528
634.396	0.24051894
634.593	0.23961319
634.79	0.23888004
634.987	0.23808329
635.184	0.23721198
635.381	0.23649574
635.578	0.23565407
635.775	0.23472859
635.972	0.23392999
636.169	0.23291846
636.366	0.2319723
636.563	0.2311104
636.76	0.23007216
636.957	0.22923381
637.153	0.2283543
637.35	0.22754386
637.547	0.22678328
637.744	0.22595715
637.941	0.22517521
638.138	0.22451376
638.334	0.22368939
638.531	0.22300078
638.728	0.22226239
638.925	0.22153533
639.121	0.22079524
639.318	0.21998034
639.515	0.21903635
639.711	0.21819375
639.908	0.21718159
640.105	0.21623567
640.301	0.21528038
640.498	0.21438328
640.695	0.21350171
640.891	0.21269489
641.088	0.21186188
641.284	0.21110336
641.481	0.21031256
641.677	0.20948982
641.874	0.20862548
642.07	0.20792866
642.267	0.20729589
642.463	0.20657355
642.66	0.20596786
642.856	0.20526193
643.053	0.2046074
643.249	0.2040876
643.445	0.20339464
643.642	0.20263812
643.838	0.20196038
644.034	0.2012676
644.231	0.20047597
644.427	0.19974609
644.623	0.1989206
644.82	0.19819388
645.016	0.19745553
645.212	0.19663054
645.408	0.19581603
645.604	0.19527767
645.801	0.19461779
645.997	0.19387274
646.193	0.1931647
646.389	0.19254181
646.585	0.19198731
646.781	0.19137424
646.977	0.19069491
647.173	0.18995179
647.37	0.1893462
647.566	0.18873386
647.762	0.18813229
647.958	0.18755911
648.154	0.18686172
648.35	0.1862206
648.546	0.18559102
648.742	0.18503431
648.937	0.18418598
649.133	0.18346846
649.329	0.18278063
649.525	0.18216497
649.721	0.18147276
649.917	0.18092114
650.113	0.18021691
650.309	0.17978385
650.504	0.17914154
650.7	0.17846951
650.896	0.17789337
651.092	0.1773613
651.287	0.17682605
651.483	0.17634564
651.679	0.17577114
651.875	0.17536462
652.07	0.17487162
652.266	0.17428784
652.462	0.17371248
652.657	0.17311139
652.853	0.17247833
653.048	0.17190535
653.244	0.1711858
653.44	0.17060125
653.635	0.16993355
653.831	0.16941963
654.026	0.16894465
654.222	0.1683896
654.417	0.16793871
654.613	0.16744813
654.808	0.166927
655.004	0.16654381
655.199	0.16595193
655.394	0.16539475
655.59	0.16497148
655.785	0.16434757
655.98	0.16388308
656.176	0.16332927
656.371	0.16294443
656.566	0.16250456
656.762	0.16189686
656.957	0.16126445
657.152	0.16072323
657.348	0.16014563
657.543	0.15968664
657.738	0.15903972
657.933	0.15849079
658.128	0.15796094
658.324	0.15750277
658.519	0.15703032
658.714	0.1565686
658.909	0.1559852
659.104	0.1554552
659.299	0.15491567
659.494	0.15447868
659.689	0.15407033
659.884	0.15368876
660.079	0.15322254
660.274	0.15283423
660.469	0.15242973
660.664	0.15203342
660.859	0.15163445
661.054	0.15120029
661.249	0.15074343
661.444	0.15032218
661.639	0.14992373
661.834	0.14954764
662.029	0.14916266
662.224	0.14877459
662.418	0.14834881
662.613	0.14800957
662.808	0.14763272
663.003	0.14722433
663.198	0.14674863
663.392	0.14622625
663.587	0.14587791
663.782	0.14541704
663.977	0.14491074
664.171	0.14442658
664.366	0.14388227
664.561	0.14344628
664.755	0.14313041
664.95	0.14268784
665.144	0.14227887
665.339	0.14195219
665.534	0.14162986
665.728	0.14140181
665.923	0.14109361
666.117	0.14073262
666.312	0.14040577
666.506	0.14018686
666.701	0.13987091
666.895	0.13964955
667.09	0.13935185
667.284	0.13911005
667.479	0.13875592
667.673	0.13839706
667.867	0.13804207
668.062	0.13767006
668.256	0.13724927
668.45	0.13695745
668.645	0.13657222
668.839	0.13627784
669.033	0.13592487
669.228	0.13560429
669.422	0.13531436
669.616	0.13502989
669.81	0.13475987
670.004	0.13460253
670.199	0.1345087
670.393	0.13435755
670.587	0.13404144
670.781	0.13372631
670.975	0.13346111
671.169	0.13303388
671.363	0.13257523
671.558	0.13217472
671.752	0.13188158
671.946	0.13175851
672.14	0.13159692
672.334	0.13127015
672.528	0.13107566
672.722	0.13074141
672.916	0.13040731
673.11	0.12998723
673.304	0.12965045
673.497	0.12927946
673.691	0.12903522
673.885	0.12875718
674.079	0.12860975
674.273	0.12833102
674.467	0.1281295
674.661	0.12781302
674.854	0.12758516
675.048	0.12741839
675.242	0.12722548
675.436	0.12706453
675.629	0.12694939
675.823	0.12671385
676.017	0.12659078
676.211	0.12644326
676.404	0.12623599
676.598	0.12607558
676.792	0.12593773
676.985	0.12580392
677.179	0.12575272
677.372	0.12552491
677.566	0.12530613
677.76	0.12506569
677.953	0.12481534
678.147	0.12461398
678.34	0.12445272
678.534	0.12428656
678.727	0.12421698
678.921	0.1242281
679.114	0.12420284
679.307	0.12413409
679.501	0.12398925
679.694	0.12383162
679.888	0.12366046
680.081	0.12351319
680.274	0.12314579
680.468	0.1228905
680.661	0.12264343
680.854	0.1225637
681.048	0.12239712
681.241	0.12218231
681.434	0.12197627
681.627	0.121893
681.821	0.12184444
682.014	0.12184738
682.207	0.12156816
682.4	0.12137383
682.593	0.12132147
682.786	0.12118088
682.98	0.12104502
683.173	0.12092129
683.366	0.12079549
683.559	0.1208107
683.752	0.12079129
683.945	0.12075087
684.138	0.12073127
684.331	0.12065248
684.524	0.12057613
684.717	0.1204195
684.91	0.12035679
685.103	0.12030526
685.296	0.12017013
685.489	0.1200675
685.682	0.12009062
685.874	0.12001051
686.067	0.11993411
686.26	0.11980371
686.453	0.1196858
686.646	0.11957391
686.839	0.11954594
687.031	0.11951452
687.224	0.11949781
687.417	0.11967542
687.61	0.11971657
687.802	0.11977434
687.995	0.11992067
688.188	0.12000313
688.38	0.12000864
688.573	0.11999765
688.766	0.11985797
688.958	0.119736
689.151	0.11960221
689.343	0.11950167
689.536	0.11933041
689.729	0.11915682
689.921	0.1190901
690.114	0.11898762
690.306	0.11898913
690.499	0.1190227
690.691	0.11900777
690.884	0.11899476
691.076	0.11907085
691.268	0.11905348
691.461	0.11910302
691.653	0.11925208
691.846	0.1193855
692.038	0.11946965
692.23	0.11950958
692.423	0.1195528
692.615	0.1196279
692.807	0.11968634
692.999	0.11967645
693.192	0.11969992
693.384	0.11969191
693.576	0.11984158
693.768	0.1200259
693.961	0.12015747
694.153	0.12032892
694.345	0.12051211
694.537	0.12060487
694.729	0.12081417
694.921	0.12092412
695.113	0.12090524
695.305	0.12087292
695.498	0.12077417
695.69	0.12072485
695.882	0.12064132
696.074	0.12055449
696.266	0.12048867
696.458	0.12047714
696.65	0.12060245
696.842	0.12079815
697.033	0.12090246
697.225	0.12106182
697.417	0.12121372
697.609	0.12131761
697.801	0.12143124
697.993	0.12147808
698.185	0.12141782
698.376	0.12135026
698.568	0.12132351
698.76	0.12128906
698.952	0.12135674
699.144	0.1214153
699.335	0.12149847
699.527	0.1216299
699.719	0.12174627
699.91	0.12195524
700.102	0.12210404
700.294	0.12227078
700.485	0.12243202
700.677	0.1225841
700.869	0.12283466
701.06	0.12304714
701.252	0.1231547
701.443	0.1232831
701.635	0.12340331
701.826	0.12351477
702.018	0.12364361
702.209	0.12383638
702.401	0.1240798
702.592	0.12441273
702.784	0.12478487
702.975	0.12514339
703.166	0.12555448
703.358	0.1258854
703.549	0.12605482
703.741	0.12625742
703.932	0.12634798
704.123	0.12640793
704.315	0.12644633
704.506	0.12647526
704.697	0.12644403
704.888	0.12658897
705.08	0.12668437
705.271	0.12681531
705.462	0.1268859
705.653	0.12697416
705.844	0.12705723
706.035	0.12729284
706.227	0.12738486
706.418	0.12757464
706.609	0.12776095
706.8	0.12804378
706.991	0.12832846
707.182	0.12866925
707.373	0.12896748
707.564	0.12934437
707.755	0.12963408
707.946	0.12991151
708.137	0.13013712
708.328	0.13033244
708.519	0.13050819
708.71	0.13066869
708.901	0.13070049
709.092	0.13087316
709.283	0.13104546
709.473	0.13130103
709.664	0.13159424
709.855	0.13179534
710.046	0.13204994
710.237	0.13229263
710.427	0.13242589
710.618	0.13261934
710.809	0.13275382
711	0.1328472
711.19	0.13298398
711.381	0.13314654
711.572	0.13335262
711.762	0.13367497
711.953	0.13392277
712.144	0.1342556
712.334	0.1345994
712.525	0.13496104
712.715	0.13524082
712.906	0.13547491
713.097	0.13565485
713.287	0.13587094
713.478	0.13604902
713.668	0.13633301
713.859	0.1366256
714.049	0.13695186
714.239	0.13741186
714.43	0.13775677
714.62	0.13814721
714.811	0.13856256
715.001	0.1389061
715.191	0.13925188
715.382	0.13958426
715.572	0.13988963
715.762	0.14023058
715.953	0.14055487
716.143	0.14085111
716.333	0.14114931
716.523	0.14147455
716.714	0.14183979
716.904	0.14217533
717.094	0.14255227
717.284	0.14283973
717.474	0.14318145
717.664	0.14348515
717.855	0.14371837
718.045	0.14399569
718.235	0.14433844
718.425	0.14476818
718.615	0.14526494
718.805	0.14578117
718.995	0.14622885
719.185	0.14675169
719.375	0.14723429
719.565	0.14765908
719.755	0.1479627
719.945	0.14822098
720.135	0.14846647
720.325	0.14878765
720.515	0.1490983
720.704	0.14936702
720.894	0.14966479
721.084	0.14999885
721.274	0.15046127
721.464	0.15085523
721.654	0.1512725
721.843	0.15167079
722.033	0.15213787
722.223	0.15258611
722.413	0.15307399
722.602	0.15344378
722.792	0.15388782
722.982	0.1543017
723.171	0.15469133
723.361	0.15502029
723.55	0.15540167
723.74	0.15568075
723.93	0.15601399
724.119	0.15631474
724.309	0.15663853
724.498	0.1570177
724.688	0.15740431
724.877	0.15778277
725.067	0.15821825
725.256	0.1586768
725.446	0.15918256
725.635	0.15964907
725.825	0.16005507
726.014	0.16050547
726.203	0.16086848
726.393	0.16120588
726.582	0.16146571
726.771	0.1616926
726.961	0.16192771
727.15	0.16232462
727.339	0.16266918
727.529	0.16305158
727.718	0.16340619
727.907	0.16385404
728.096	0.16424856
728.286	0.16470657
728.475	0.16512835
728.664	0.16552107
728.853	0.16600424
729.042	0.16652461
729.231	0.16696821
729.42	0.16737624
729.609	0.16770411
729.799	0.16789072
729.988	0.16815991
730.177	0.16832611
730.366	0.16856789
730.555	0.16888612
730.744	0.16930337
730.933	0.16968038
731.122	0.17008395
731.31	0.17047716
731.499	0.17085528
731.688	0.17125938
731.877	0.17158406
732.066	0.17195788
732.255	0.1724611
732.444	0.17300495
732.632	0.17357263
732.821	0.1741839
733.01	0.17470126
733.199	0.17526297
733.388	0.17571914
733.576	0.1761469
733.765	0.17655648
733.954	0.17690962
734.142	0.17725795
734.331	0.17759533
734.52	0.1779453
734.708	0.17826702
734.897	0.17859571
735.086	0.17891357
735.274	0.1792308
735.463	0.17959279
735.651	0.17998148
735.84	0.18036681
736.028	0.18079994
736.217	0.18122141
736.405	0.18166805
736.594	0.18221877
736.782	0.18272085
736.971	0.18326702
737.159	0.18377425
737.347	0.18427512
737.536	0.18467792
737.724	0.18512734
737.912	0.18541816
738.101	0.18580305
738.289	0.18621206
738.477	0.18665851
738.666	0.18706048
738.854	0.18755473
739.042	0.18802574
739.23	0.18847417
739.418	0.18890703
739.607	0.18934532
739.795	0.18976486
739.983	0.19026653
740.171	0.19079906
740.359	0.19135421
740.547	0.19198569
740.735	0.19252291
740.923	0.1930437
741.112	0.19357213
741.3	0.19406509
741.488	0.19460328
741.676	0.195087
741.864	0.1955775
742.052	0.19607117
742.239	0.19645589
742.427	0.19682935
742.615	0.1971937
742.803	0.19755725
742.991	0.19793353
743.179	0.19833591
743.367	0.19883657
743.555	0.19942832
743.742	0.19998225
743.93	0.20058332
744.118	0.20109106
744.306	0.20168804
744.494	0.20217681
744.681	0.20268103
744.869	0.20319105
745.057	0.20369882
745.244	0.20421211
745.432	0.20469075
745.62	0.20509293
745.807	0.20563136
745.995	0.20610312
746.182	0.20659801
746.37	0.20702719
746.558	0.20742997
746.745	0.20787561
746.933	0.20836578
747.12	0.20883501
747.308	0.209281
747.495	0.20957124
747.683	0.2100513
747.87	0.21056619
748.057	0.21109437
748.245	0.21160752
748.432	0.21204343
748.62	0.21258974
748.807	0.21328594
748.994	0.21388966
749.182	0.21446743
749.369	0.21506859
749.556	0.21566005
749.743	0.2163035
749.931	0.21687861
750.118	0.21744812
750.305	0.21797916
750.492	0.21843106
750.68	0.21896529
750.867	0.21950856
751.054	0.2200425
751.241	0.22055261
751.428	0.2209087
751.615	0.22128576
751.802	0.22169255
751.989	0.22190272
752.176	0.22214542
752.363	0.22232141
752.55	0.22246469
752.737	0.2227401
752.924	0.22306184
753.111	0.22347843
753.298	0.2240589
753.485	0.22458778
753.672	0.22511457
753.859	0.2257571
754.046	0.22634211
754.233	0.22695105
754.42	0.22760386
754.606	0.22816046
754.793	0.22870023
754.98	0.22935516
755.167	0.22991576
755.353	0.23060302
755.54	0.23121301
755.727	0.23182926
755.914	0.23243104
756.1	0.23301012
756.287	0.23350719
756.474	0.23397966
756.66	0.23429513
756.847	0.23458837
757.033	0.23474304
757.22	0.23491382
757.407	0.2351437
757.593	0.23535718
757.78	0.23564953
757.966	0.23604973
758.153	0.23652313
758.339	0.23696336
758.526	0.23755122
758.712	0.23812719
758.898	0.23890481
759.085	0.23963272
759.271	0.24042229
759.458	0.24124315
759.644	0.24209008
759.83	0.24278234
760.017	0.24345964
760.203	0.24393078
760.389	0.24434442
760.576	0.24468871
760.762	0.24493416
760.948	0.24528163
761.134	0.24565237
761.32	0.24612079
761.507	0.24669224
761.693	0.24739627
761.879	0.24805365
762.065	0.24872107
762.251	0.24935663
762.437	0.25007452
762.623	0.2507224
762.809	0.25131732
762.995	0.25182729
763.181	0.25233609
763.367	0.25286913
763.553	0.2533432
763.739	0.25373453
763.925	0.25402781
764.111	0.25436174
764.297	0.25475375
764.483	0.2550826
764.669	0.25544633
764.855	0.25592713
765.041	0.25652961
765.227	0.25714448
765.412	0.25771556
765.598	0.25827638
765.784	0.25894621
765.97	0.25963042
766.156	0.26017061
766.341	0.26065198
766.527	0.26118706
766.713	0.26174523
766.898	0.26233781
767.084	0.26284431
767.27	0.26328823
767.455	0.26373753
767.641	0.2641857
767.827	0.26465194
768.012	0.26515357
768.198	0.26565477
768.383	0.26628214
768.569	0.26690579
768.754	0.26761476
768.94	0.26825391
769.125	0.26883811
769.311	0.26933251
769.496	0.26977784
769.682	0.27016293
769.867	0.27061637
770.052	0.27109748
770.238	0.27147531
770.423	0.27201775
770.608	0.27261701
770.794	0.27326769
770.979	0.27392325
771.164	0.2745577
771.35	0.27508043
771.535	0.27567667
771.72	0.27618704
771.905	0.27674541
772.09	0.27716236
772.276	0.27763145
772.461	0.27809103
772.646	0.2785846
772.831	0.27916652
773.016	0.2796699
773.201	0.28010714
773.386	0.2807561
773.571	0.28135287
773.756	0.28200016
773.941	0.28264688
774.126	0.28327137
774.311	0.28382825
774.496	0.28446218
774.681	0.28497121
774.866	0.2854438
775.051	0.28579933
775.236	0.28630186
775.421	0.2866673
775.606	0.28699563
775.791	0.28723325
775.976	0.28751881
776.16	0.28783682
776.345	0.28823866
776.53	0.28856886
776.715	0.28904301
776.899	0.28959323
777.084	0.29016132
777.269	0.29083259
777.454	0.29141826
777.638	0.29207422
777.823	0.29267251
778.008	0.29325055
778.192	0.29393861
778.377	0.29449445
778.561	0.29494618
778.746	0.29533055
778.931	0.29559568
779.115	0.2959166
779.3	0.29611442
779.484	0.29636753
779.669	0.29668745
779.853	0.2970193
780.037	0.29742432
780.222	0.29775947
780.406	0.29796
780.591	0.29832387
780.775	0.29852515
780.959	0.29871957
781.144	0.29885823
781.328	0.29908432
781.512	0.29943191
781.697	0.29984283
781.881	0.30021501
782.065	0.30064224
782.249	0.3009353
782.434	0.30135607
782.618	0.30172711
782.802	0.30208215
782.986	0.30233535
783.17	0.30257677
783.354	0.30281132
783.539	0.30318258
783.723	0.30343865
783.907	0.30373353
784.091	0.30399954
784.275	0.3043858
784.459	0.30469154
784.643	0.30505649
784.827	0.30534453
785.011	0.30563353
785.195	0.30584772
785.379	0.30616016
785.563	0.30649191
785.747	0.30675274
785.93	0.30706392
786.114	0.30734439
786.298	0.30750516
786.482	0.30781245
786.666	0.30809971
786.85	0.30842561
787.033	0.30894561
787.217	0.30935812
787.401	0.30988305
787.585	0.31045523
787.768	0.31095116
787.952	0.31129683
788.136	0.31159552
788.319	0.31185503
788.503	0.31210332
788.687	0.31244164
788.87	0.31272909
789.054	0.31308962
789.237	0.31346583
789.421	0.31387439
789.605	0.31431923
789.788	0.31478275
789.972	0.31518146
790.155	0.31567229
790.338	0.31616762
790.522	0.31666005
790.705	0.31711273
790.889	0.31754817
791.072	0.31807048
791.256	0.31859908
791.439	0.31918043
791.622	0.3195874
791.806	0.32014401
791.989	0.32058315
792.172	0.32106665
792.355	0.32142922
792.539	0.32167349
792.722	0.3218278
792.905	0.32206583
793.088	0.32226043
793.271	0.32262654
793.455	0.32293552
793.638	0.32327326
793.821	0.32372905
794.004	0.32421471
794.187	0.32487381
794.37	0.32550765
794.553	0.32607094
794.736	0.32656545
794.919	0.3271187
795.102	0.32749224
795.285	0.32796766
795.468	0.32823905
795.651	0.32854186
795.834	0.32896933
796.017	0.32939494
796.2	0.32986407
796.383	0.33055265
796.566	0.33124554
796.749	0.33188362
796.931	0.33246057
797.114	0.33292747
797.297	0.33339348
797.48	0.33379484
797.663	0.33421094
797.845	0.33450302
798.028	0.33491107
798.211	0.33529988
798.393	0.33573154
798.576	0.33616568
798.759	0.33655907
798.941	0.33702981
799.124	0.33761212
799.307	0.33810078
799.489	0.33869021
799.672	0.33920452
799.854	0.33968493
800.037	0.34024561
800.219	0.34066408
800.402	0.34093796
800.584	0.34127214
800.767	0.34161911
800.949	0.34202831
801.132	0.34253343
801.314	0.34287397
801.496	0.34324892
801.679	0.34363673
801.861	0.34404269
802.043	0.34436415
802.226	0.34466413
802.408	0.34489142
802.59	0.34524142
802.772	0.3454503
802.955	0.34578511
803.137	0.3461065
803.319	0.3463474
803.501	0.34650016
803.684	0.34671885
803.866	0.346794
804.048	0.34714425
804.23	0.34742734
804.412	0.34778151
804.594	0.34808147
804.776	0.34856581
804.958	0.34888509
805.14	0.34930849
805.322	0.34942735
805.504	0.34962313
805.686	0.34967397
805.868	0.3499349
806.05	0.35013525
806.232	0.35041194
806.414	0.35075495
806.596	0.35117228
806.778	0.35145093
806.96	0.35180598
807.141	0.35192158
807.323	0.3519693
807.505	0.35191702
807.687	0.35184809
807.869	0.35181034
808.05	0.35174353
808.232	0.35159826
808.414	0.35162421
808.595	0.35163636
808.777	0.35169932
808.959	0.35184725
809.14	0.35177171
809.322	0.35181443
809.504	0.35199691
809.685	0.35215693
809.867	0.35238497
810.048	0.35249984
810.23	0.35257558
810.411	0.35284872
810.593	0.35313515
810.774	0.35328235
810.956	0.35339221
811.137	0.35337667
811.319	0.35358201
811.5	0.35367215
811.681	0.35387168
811.863	0.35396833
812.044	0.35421334
812.225	0.35447529
812.407	0.35482198
812.588	0.35514026
812.769	0.35546126
812.951	0.35564805
813.132	0.35588329
813.313	0.35616768
813.494	0.35639102
813.675	0.35658169
813.857	0.3567105
814.038	0.35691562
814.219	0.35711745
814.4	0.35727679
814.581	0.35743661
814.762	0.35751885
814.943	0.3576351
815.124	0.35777081
815.305	0.357908
815.486	0.35815976
815.667	0.35853125
815.848	0.35869934
816.029	0.35893645
816.21	0.35928835
816.391	0.35979766
816.572	0.36017534
816.753	0.36054261
816.934	0.36072
817.115	0.36091398
817.295	0.36130423
817.476	0.36154086
817.657	0.36178612
817.838	0.36219901
818.019	0.36234465
818.199	0.36260334
818.38	0.36295854
818.561	0.36325618
818.741	0.36349257
818.922	0.36364353
819.103	0.36377003
819.283	0.36416831
819.464	0.36456803
819.645	0.36490732
819.825	0.36513459
820.006	0.36544977
820.186	0.36577
820.367	0.36604803
820.547	0.36615056
820.728	0.36625689
820.908	0.36638001
821.089	0.3667471
821.269	0.36707639
821.45	0.36752493
821.63	0.36779622
821.81	0.36836008
821.991	0.36899149
822.171	0.36954915
822.351	0.36987857
822.532	0.37037277
822.712	0.3706754
822.892	0.37111095
823.072	0.37138441
823.253	0.37147789
823.433	0.37154243
823.613	0.37180004
823.793	0.37191821
823.973	0.37210292
824.154	0.37228111
824.334	0.37246352
824.514	0.37280675
824.694	0.37329072
824.874	0.37361973
825.054	0.37396694
825.234	0.3742004
825.414	0.37440322
825.594	0.37465795
825.774	0.37475677
825.954	0.37497539
826.134	0.37516192
826.314	0.37541004
826.494	0.37575055
826.674	0.37591285
826.854	0.37606506
827.033	0.37629255
827.213	0.37648462
827.393	0.37664191
827.573	0.37683912
827.753	0.37705544
827.932	0.37743995
828.112	0.37784399
828.292	0.37823678
828.472	0.37834316
828.651	0.37858844
828.831	0.37864563
829.011	0.37880626
829.19	0.37885737
829.37	0.37903817
829.549	0.37926141
829.729	0.37968498
829.909	0.38012134
830.088	0.38065436
830.268	0.38097291
830.447	0.38153022
830.627	0.38196185
830.806	0.38230173
830.986	0.38250858
831.165	0.38271492
831.344	0.38284416
831.524	0.38294969
831.703	0.3830341
831.883	0.38308684
832.062	0.38325921
832.241	0.38342821
832.421	0.38352431
832.6	0.38365943
832.779	0.38379517
832.958	0.38387806
833.138	0.38388184
833.317	0.38405841
833.496	0.38417303
833.675	0.3842848
833.854	0.38445806
834.034	0.38458796
834.213	0.3847502
834.392	0.38500642
834.571	0.38496588
834.75	0.38519272
834.929	0.38537863
835.108	0.38541036
835.287	0.38566067
835.466	0.3857631
835.645	0.38586974
835.824	0.3859641
836.003	0.3860377
836.182	0.38614207
836.361	0.38617947
836.54	0.38601499
836.719	0.38595904
836.897	0.38586286
837.076	0.38587824
837.255	0.3857428
837.434	0.38583097
837.613	0.385946
837.791	0.38614766
837.97	0.38649221
838.149	0.38657989
838.328	0.38662265
838.506	0.38681701
838.685	0.3867891
838.864	0.38696512
839.042	0.38699512
839.221	0.38711344
839.4	0.38738739
839.578	0.38767594
839.757	0.38772587
839.935	0.38793705
840.114	0.38805724
840.292	0.38831659
840.471	0.38847727
840.649	0.38861546
840.828	0.38877732
841.006	0.38911875
841.185	0.38907246
841.363	0.38930199
841.541	0.38950523
841.72	0.38967288
841.898	0.38987283
842.076	0.3900119
842.255	0.39002381
842.433	0.39024659
842.611	0.39029505
842.789	0.39040369
842.968	0.39053633
843.146	0.3906048
843.324	0.39066715
843.502	0.39075211
843.68	0.39100309
843.859	0.39108509
844.037	0.39107678
844.215	0.39093725
844.393	0.39107802
844.571	0.39110446
844.749	0.39124107
844.927	0.39115362
845.105	0.39112395
845.283	0.39123774
845.461	0.391453
845.639	0.3914876
845.817	0.39163074
845.995	0.39188711
846.173	0.39218932
846.351	0.39234309
846.529	0.39244666
846.706	0.39231861
846.884	0.39229396
847.062	0.39210899
847.24	0.39174807
847.418	0.39142594
847.595	0.391277
847.773	0.3911184
847.951	0.39113138
848.129	0.39116276
848.306	0.39142883
848.484	0.39162014
848.662	0.3919609
848.839	0.39231887
849.017	0.39269285
849.194	0.39295608
849.372	0.39318937
849.549	0.39324208
849.727	0.39347355
849.905	0.39334391
850.082	0.39316235
850.26	0.39296056
850.437	0.3927896
850.614	0.39257336
850.792	0.39247105
850.969	0.39243115
851.147	0.39257082
851.324	0.39251733
851.501	0.39248062
851.679	0.39245442
851.856	0.39231937
852.033	0.39225507
852.211	0.39198737
852.388	0.39170068
852.565	0.39182837
852.742	0.3919489
852.92	0.39197232
853.097	0.39217444
853.274	0.39227652
853.451	0.39215702
853.628	0.39214172
853.805	0.39193778
853.982	0.39178377
854.159	0.39169305
854.336	0.39162942
854.514	0.39153758
854.691	0.39163305
854.868	0.39173609
855.045	0.39170094
855.221	0.39175872
855.398	0.39176328
855.575	0.39166217
855.752	0.39169237
855.929	0.39184896
856.106	0.39167747
856.283	0.39166995
856.46	0.39146538
856.637	0.391424
856.813	0.39140447
856.99	0.39136385
857.167	0.39135848
857.344	0.39156478
857.52	0.39172959
857.697	0.39163297
857.874	0.39150828
858.05	0.39139974
858.227	0.39116331
858.404	0.39098878
858.58	0.39085532
858.757	0.39071612
858.933	0.39086913
859.11	0.39095531
859.287	0.39076999
859.463	0.39064691
859.64	0.39078489
859.816	0.39072884
859.993	0.39077354
860.169	0.39081804
860.345	0.39075683
860.522	0.39084145
860.698	0.39070783
860.875	0.39034418
861.051	0.39007014
861.227	0.3895694
861.404	0.38929502
861.58	0.38913433
861.756	0.38897137
861.932	0.3891937
862.109	0.38895533
862.285	0.38915061
862.461	0.38946095
862.637	0.38945716
862.813	0.38944726
862.99	0.38940649
863.166	0.38911865
863.342	0.38926762
863.518	0.38882947
863.694	0.38859321
863.87	0.38823843
864.046	0.38802994
864.222	0.38798066
864.398	0.38791222
864.574	0.38759869
864.75	0.38753778
864.926	0.38730769
865.102	0.38742891
865.278	0.38712169
865.454	0.38692253
865.63	0.38665228
865.805	0.38648656
865.981	0.38645169
866.157	0.38647587
866.333	0.38608433
866.509	0.38628587
866.684	0.38626897
866.86	0.38652718
867.036	0.38669354
867.212	0.38664728
867.387	0.38651995
867.563	0.38670551
867.739	0.38652497
867.914	0.38639623
868.09	0.38597791
868.265	0.38567891
868.441	0.38549013
868.617	0.38529768
868.792	0.38505064
868.968	0.38483144
869.143	0.38493971
869.319	0.38509816
869.494	0.38505089
869.67	0.38506732
869.845	0.38509917
870.02	0.38510922
870.196	0.38513422
870.371	0.38467802
870.546	0.38428345
870.722	0.38411869
870.897	0.38381984
871.072	0.38361461
871.248	0.38335062
871.423	0.38302381
871.598	0.38283383
871.773	0.38250158
871.949	0.38216978
872.124	0.38201823
872.299	0.38164687
872.474	0.38130294
872.649	0.38100849
872.824	0.38079353
872.999	0.3806999
873.174	0.38067378
873.349	0.38048089
873.524	0.38031701
873.699	0.38021445
873.874	0.38005614
874.049	0.37985493
874.224	0.37960951
874.399	0.37913099
874.574	0.37892363
874.749	0.3786023
874.924	0.37821286
875.099	0.37793822
875.274	0.3777278
875.449	0.37768523
875.623	0.37753918
875.798	0.37704694
875.973	0.37682816
876.148	0.37645663
876.322	0.37614078
876.497	0.3758292
876.672	0.37544599
876.846	0.37523746
877.021	0.37505147
877.196	0.37450923
877.37	0.3744491
877.545	0.37448175
877.72	0.37427772
877.894	0.37410204
878.069	0.37382904
878.243	0.37353953
878.418	0.37365844
878.592	0.37352262
878.767	0.37325142
878.941	0.37317728
879.116	0.37288803
879.29	0.37284353
879.464	0.3728069
879.639	0.37265885
879.813	0.37266882
879.987	0.37245161
880.162	0.37198709
880.336	0.3717815
880.51	0.37140976
880.685	0.37104615
880.859	0.37069423
881.033	0.37022502
881.207	0.3698314
881.381	0.36974458
881.556	0.36956904
881.73	0.36939392
881.904	0.36954831
882.078	0.36937818
882.252	0.36914577
882.426	0.36890794
882.6	0.36867336
882.774	0.36848541
882.948	0.36837335
883.122	0.36785676
883.296	0.36769987
883.47	0.36766801
883.644	0.36780867
883.818	0.36753184
883.992	0.36747644
884.166	0.3673822
884.34	0.36730209
884.514	0.36728387
884.687	0.36716263
884.861	0.36656649
885.035	0.36637327
885.209	0.36589858
885.382	0.36543164
885.556	0.36507955
885.73	0.36477131
885.904	0.36453131
886.077	0.36448036
886.251	0.36433719
886.425	0.36447828
886.598	0.36458788
886.772	0.36444911
886.945	0.36396299
887.119	0.36347379
887.292	0.36320941
887.466	0.36318908
887.64	0.36271001
887.813	0.36227739
887.986	0.36202533
888.16	0.36208655
888.333	0.36172263
888.507	0.36153599
888.68	0.3609954
888.854	0.36085695
889.027	0.36053174
889.2	0.36039758
889.374	0.35980823
889.547	0.35973434
889.72	0.35954565
889.893	0.35918807
890.067	0.35862983
890.24	0.35815419
890.413	0.35775623
890.586	0.35747855
890.759	0.35737087
890.933	0.35705853
891.106	0.35684679
891.279	0.35680369
891.452	0.35671659
891.625	0.35631946
891.798	0.35623499
891.971	0.35575191
892.144	0.35528919
892.317	0.35511752
892.49	0.35456849
892.663	0.35416978
892.836	0.35418937
893.009	0.35384883
893.182	0.35333722
893.355	0.35297586
893.527	0.35251209
893.7	0.35246846
893.873	0.35229789
894.046	0.35151947
894.219	0.35131435
894.391	0.35105674
894.564	0.35106785
894.737	0.35079055
894.91	0.3505488
895.082	0.35021803
895.255	0.35018371
895.428	0.34967697
895.6	0.34958142
895.773	0.34892632
895.945	0.34867084
896.118	0.34817219
896.291	0.34791111
896.463	0.34762277
896.636	0.34744099
896.808	0.34712568
896.981	0.34708295
897.153	0.34681544
897.326	0.34664135
897.498	0.34623069
897.67	0.34587402
897.843	0.34560198
898.015	0.34538272
898.187	0.34495818
898.36	0.34442378
898.532	0.343786
898.704	0.34359975
898.877	0.34329862
899.049	0.34286799
899.221	0.34242132
899.393	0.34216558
899.566	0.34204556
899.738	0.34229609
899.91	0.34203953
900.082	0.34188216
900.254	0.34184764
900.426	0.34184088
900.598	0.3417828
900.77	0.34153052
900.942	0.34091302
901.114	0.34043202
901.286	0.33986358
901.458	0.33920481
901.63	0.33851197
901.802	0.33791519
901.974	0.33740609
902.146	0.33692057
902.318	0.33662982
902.49	0.33631681
902.662	0.3359627
902.834	0.33560828
903.005	0.33536332
903.177	0.33507737
903.349	0.33497976
903.521	0.33465762
903.693	0.33458947
903.864	0.33454711
904.036	0.33456438
904.208	0.33416322
904.379	0.33404588
904.551	0.3339051
904.723	0.33355797
904.894	0.33291707
905.066	0.33227504
905.237	0.33153337
905.409	0.33087584
905.58	0.33026677
905.752	0.32958784
905.923	0.32919079
906.095	0.32875397
906.266	0.32843926
906.438	0.32823172
906.609	0.32824339
906.78	0.32795537
906.952	0.32785462
907.123	0.32737632
907.295	0.32726625
907.466	0.32704577
907.637	0.32681792
907.808	0.32631816
907.98	0.32580876
908.151	0.3251759
908.322	0.32504869
908.493	0.32454994
908.665	0.32417407
908.836	0.32376787
909.007	0.3234464
909.178	0.3231979
909.349	0.32301109
909.52	0.32284649
909.691	0.32269487
909.862	0.32256678
910.033	0.32230146
910.204	0.32224582
910.375	0.32223228
910.546	0.32199683
910.717	0.32129713
910.888	0.32099595
911.059	0.32052547
911.23	0.32001231
911.401	0.31944228
911.572	0.3188785
911.742	0.31834071
911.913	0.31826111
912.084	0.3177976
912.255	0.31742269
912.426	0.31703144
912.596	0.3165765
912.767	0.31631112
912.938	0.31612057
913.108	0.31590058
913.279	0.31550901
913.45	0.31526482
913.62	0.31520099
913.791	0.31516269
913.962	0.3149562
914.132	0.31456717
914.303	0.31394126
914.473	0.31377661
914.644	0.31321605
914.814	0.3125845
914.985	0.3120553
915.155	0.31148016
915.326	0.31091514
915.496	0.31049225
915.666	0.30985017
915.837	0.30973982
916.007	0.30922407
916.177	0.3088263
916.348	0.30849541
916.518	0.30828506
916.688	0.30803852
916.858	0.30790819
917.029	0.3072906
917.199	0.30715945
917.369	0.30687979
917.539	0.30660275
917.709	0.30620231
917.88	0.30558943
918.05	0.30488003
918.22	0.30458881
918.39	0.30425435
918.56	0.30387236
918.73	0.30354417
918.9	0.30308583
919.07	0.30288279
919.24	0.30277466
919.41	0.30254431
919.58	0.30200414
919.75	0.30161405
919.92	0.30102462
920.09	0.30092213
920.26	0.30069586
920.429	0.30044765
920.599	0.29994999
920.769	0.29984394
920.939	0.29941306
921.109	0.2992494
921.278	0.29891027
921.448	0.29864378
921.618	0.29838312
921.787	0.29815357
921.957	0.29783395
922.127	0.29749116
922.296	0.29738452
922.466	0.29695323
922.636	0.29662782
922.805	0.29612882
922.975	0.29549949
923.144	0.29488951
923.314	0.29431421
923.483	0.29355196
923.653	0.29275768
923.822	0.29202563
923.992	0.29144752
924.161	0.29116406
924.331	0.29075353
924.5	0.29057662
924.669	0.28997677
924.839	0.28970194
925.008	0.28925586
925.177	0.28865343
925.347	0.28819079
925.516	0.28777235
925.685	0.28735182
925.854	0.28705891
926.023	0.28693185
926.193	0.28706721
926.362	0.28694375
926.531	0.28680601
926.7	0.28649457
926.869	0.28644451
927.038	0.28601092
927.207	0.28571645
927.376	0.28519129
927.545	0.28484026
927.715	0.2843954
927.884	0.28411017
928.052	0.28376461
928.221	0.2833409
928.39	0.28282689
928.559	0.28231555
928.728	0.28206811
928.897	0.28183994
929.066	0.28157616
929.235	0.28083955
929.404	0.28078856
929.572	0.28047821
929.741	0.28002446
929.91	0.27948605
930.079	0.27870912
930.247	0.27821549
930.416	0.2780197
930.585	0.27743545
930.753	0.27697497
930.922	0.27670336
931.091	0.27642247
931.259	0.27632385
931.428	0.2762626
931.596	0.27584212
931.765	0.27575049
931.934	0.27550195
932.102	0.27489139
932.27	0.27449345
932.439	0.274028
932.607	0.27335877
932.776	0.27320855
932.944	0.27271218
933.113	0.27228376
933.281	0.27208463
933.449	0.27166571
933.618	0.27139358
933.786	0.2711361
933.954	0.27057139
934.123	0.27013589
934.291	0.26973614
934.459	0.26929219
934.627	0.26903773
934.795	0.26869524
934.964	0.268205
935.132	0.26760121
935.3	0.26713587
935.468	0.26653704
935.636	0.26616443
935.804	0.26543626
935.972	0.26490959
936.14	0.26430935
936.308	0.26390659
936.476	0.26392191
936.644	0.26377111
936.812	0.26379233
936.98	0.26374608
937.148	0.26326212
937.316	0.26283187
937.484	0.26279523
937.652	0.2619061
937.82	0.26197422
937.987	0.26100275
938.155	0.26022477
938.323	0.25999783
938.491	0.25927818
938.658	0.25917822
938.826	0.25869718
938.994	0.25766358
939.162	0.2573895
939.329	0.25759098
939.497	0.25756071
939.665	0.25754509
939.832	0.25735148
940	0.25703589
940.167	0.2565323
940.335	0.25549634
940.502	0.25476597
940.67	0.2540146
940.837	0.25415665
941.005	0.25254377
941.172	0.25221244
941.34	0.25247763
941.507	0.25354181
941.674	0.25368434
941.842	0.25239269
942.009	0.25270355
942.177	0.25122527
942.344	0.25231494
942.511	0.25132425
942.678	0.25081851
942.846	0.24938832
943.013	0.24950115
943.18	0.24799481
943.347	0.24923017
943.514	0.24746549
943.682	0.24764495
943.849	0.24514068
944.016	0.24375849
944.183	0.24435162
944.35	0.2445649
944.517	0.24448574
944.684	0.24449654
944.851	0.24083365
945.018	0.24091803
945.185	0.24109602
945.352	0.23839878
945.519	0.23694166
945.686	0.23562875
945.853	0.23669605
946.02	0.23798717
946.187	0.23658502
946.353	0.23782315
946.52	0.23814196
946.687	0.23650443
946.854	0.2363705
947.021	0.23415869
947.187	0.23364018
947.354	0.2332334
947.521	0.23145536
947.687	0.23097464
947.854	0.23241362
948.021	0.23030344
948.187	0.22951805
948.354	0.22923888
948.52	0.22941917
948.687	0.23075381
948.854	0.23130227
949.02	0.22950111
949.187	0.2307846
949.353	0.23108978
949.52	0.23041625
949.686	0.23032109
949.852	0.22910162
950.019	0.22852453
950.185	0.22942045
950.352	0.22865625
950.518	0.22732057
950.684	0.22756645
950.851	0.22706921
951.017	0.22613145
951.183	0.22591099
951.349	0.22489707
951.516	0.22413475
951.682	0.22467772
951.848	0.22388319
952.014	0.22292071
952.18	0.22260374
952.346	0.2222682
952.512	0.22202601
952.679	0.22254712
952.845	0.2223562
953.011	0.22217526
953.177	0.22250429
953.343	0.22158081
953.509	0.22148514
953.675	0.22088963
953.841	0.22021698
954.007	0.21941906
954.172	0.21926466
954.338	0.21813629
954.504	0.21743587
954.67	0.2155505
954.836	0.21545343
955.002	0.21498018
955.167	0.21408104
955.333	0.21269767
955.499	0.21256347
955.665	0.21220305
955.83	0.21236568
955.996	0.2116021
956.162	0.21091714
956.327	0.21046632
956.493	0.2104944
956.659	0.2107154
956.824	0.21081013
956.99	0.21011402
957.155	0.21004991
957.321	0.20970181
957.486	0.20930336
957.652	0.20835933
957.817	0.20797258
957.983	0.20699947
958.148	0.20673178
958.314	0.20609476
958.479	0.2055006
958.644	0.20511412
958.81	0.20575706
958.975	0.2053221
959.14	0.20561622
959.306	0.20519147
959.471	0.20474153
959.636	0.20416527
959.801	0.20492447
959.967	0.20441574
960.132	0.20397369
960.297	0.20335203
960.462	0.20344873
960.627	0.20315832
960.792	0.20253279
960.957	0.20151387
961.123	0.20114294
961.288	0.20040768
961.453	0.20030453
961.618	0.19994224
961.783	0.19978907
961.948	0.19967664
962.113	0.19900576
962.277	0.19831689
962.442	0.1983253
962.607	0.19791227
962.772	0.19752334
962.937	0.19667025
963.102	0.19616559
963.267	0.19600407
963.431	0.19594946
963.596	0.19544982
963.761	0.19490685
963.926	0.19438655
964.09	0.19457461
964.255	0.19495434
964.42	0.19481294
964.584	0.19489549
964.749	0.19448132
964.914	0.19425479
965.078	0.19417769
965.243	0.19369792
965.407	0.19306327
965.572	0.19279932
965.736	0.19231184
965.901	0.19244711
966.065	0.19223404
966.23	0.1915784
966.394	0.19164125
966.559	0.19104766
966.723	0.19057118
966.887	0.18981551
967.052	0.18914565
967.216	0.18848619
967.38	0.18766377
967.545	0.18718606
967.709	0.18739041
967.873	0.18734587
968.037	0.18690694
968.202	0.18706172
968.366	0.18745029
968.53	0.18819541
968.694	0.187889
968.858	0.18763197
969.022	0.18708708
969.187	0.18716446
969.351	0.18692828
969.515	0.18654489
969.679	0.18595531
969.843	0.18531726
970.007	0.18482512
970.171	0.18481582
970.335	0.18452845
970.499	0.18394034
970.662	0.18362451
970.826	0.18342137
970.99	0.18362662
971.154	0.18347441
971.318	0.18294597
971.482	0.18219744
971.645	0.18172228
971.809	0.18136579
971.973	0.18068325
972.137	0.17978426
972.3	0.179155
972.464	0.17906075
972.628	0.17925265
972.791	0.17948304
972.955	0.17925325
973.119	0.17909804
973.282	0.17917978
973.446	0.17920379
973.609	0.17864523
973.773	0.17791487
973.936	0.17718998
974.1	0.17655718
974.263	0.17626822
974.427	0.17583903
974.59	0.17522294
974.754	0.17464515
974.917	0.17436138
975.08	0.17400011
975.244	0.17353418
975.407	0.17337881
975.57	0.173182
975.734	0.1727779
975.897	0.17270133
976.06	0.17274386
976.223	0.17251931
976.387	0.1727212
976.55	0.17188799
976.713	0.17130223
976.876	0.1710595
977.039	0.17056619
977.202	0.17003496
977.365	0.16964374
977.528	0.16904618
977.692	0.16885265
977.855	0.16800351
978.018	0.16754905
978.181	0.16726536
978.344	0.16667472
978.506	0.16634687
978.669	0.16597797
978.832	0.16573452
978.995	0.1659123
979.158	0.16571186
979.321	0.16527934
979.484	0.16501663
979.646	0.16459755
979.809	0.16451884
979.972	0.16434334
980.135	0.16443438
980.297	0.16431544
980.46	0.16419218
980.623	0.16452939
980.786	0.16402134
980.948	0.16351325
981.111	0.16310318
981.273	0.16265747
981.436	0.16193266
981.599	0.16172783
981.761	0.16080013
981.924	0.16129769
982.086	0.16087325
982.249	0.16118588
982.411	0.16053375
982.573	0.16058675
982.736	0.16065749
982.898	0.1603388
983.061	0.15951035
983.223	0.15900554
983.385	0.15821141
983.548	0.15834908
983.71	0.1579672
983.872	0.15713499
984.034	0.15725422
984.197	0.15682534
984.359	0.15691696
984.521	0.15666419
984.683	0.15612178
984.845	0.15606471
985.008	0.1558856
985.17	0.15575936
985.332	0.15587754
985.494	0.15535528
985.656	0.1551426
985.818	0.15489633
985.98	0.15435896
986.142	0.15330404
986.304	0.15259911
986.466	0.15178133
986.628	0.15159292
986.79	0.1512569
986.952	0.15080784
987.113	0.15025769
987.275	0.15016456
987.437	0.14984518
987.599	0.14957144
987.761	0.14908679
987.922	0.14852697
988.084	0.14837942
988.246	0.14841701
988.408	0.14854646
988.569	0.14837022
988.731	0.148535
988.893	0.14822533
989.054	0.14832295
989.216	0.14806344
989.377	0.14760605
989.539	0.14722319
989.701	0.14691469
989.862	0.14602236
990.024	0.14566876
990.185	0.14483863
990.347	0.14447313
990.508	0.14413685
990.669	0.14419598
990.831	0.14400463
990.992	0.14490908
991.154	0.14499797
991.315	0.14577601
991.476	0.1452898
991.638	0.14569016
991.799	0.14512822
991.96	0.14518029
992.121	0.1447575
992.283	0.14455984
992.444	0.1436231
992.605	0.14374812
992.766	0.14336636
992.927	0.14330275
993.088	0.14284052
993.249	0.14203073
993.41	0.14136874
993.572	0.14140859
993.733	0.14153615
993.894	0.14100452
994.055	0.13987926
994.216	0.13933876
994.376	0.13831285
994.537	0.13892868
994.698	0.13858841
994.859	0.13730965
995.02	0.13682684
995.181	0.13624404
995.342	0.13614556
995.503	0.13629353
995.663	0.13463466
995.824	0.13386439
995.985	0.13455715
996.146	0.13416686
996.306	0.13458123
996.467	0.13425247
996.628	0.13417494
996.788	0.1348209
996.949	0.13467401
997.11	0.13369191
997.27	0.1333505
997.431	0.13297763
997.591	0.13184221
997.752	0.13124179
997.912	0.13046556
998.073	0.13007399
998.233	0.13009795
998.394	0.12996258
998.554	0.13061913
998.714	0.1307271
998.875	0.1296111
999.035	0.12894577
999.196	0.12894514
999.356	0.12836402
999.516	0.12780544
999.676	0.12708275
999.837	0.12679118
999.997	0.12741778
1000.157	0.12775712
1000.317	0.126621
1000.477	0.1264189
1000.638	0.12604325
1000.798	0.12613243
1000.958	0.12647935
1001.118	0.12642652
1001.278	0.12621806
1001.438	0.12675009
1001.598	0.12709964
1001.758	0.12790525
1001.918	0.12728965
1002.078	0.12583365
1002.238	0.12568936
1002.398	0.12581413
1002.558	0.12544787
1002.718	0.12491487
1002.878	0.12410945
1003.037	0.12309766
1003.197	0.12442032
1003.357	0.12359454
1003.517	0.12401762
1003.677	0.12377134
1003.836	0.1235068
1003.996	0.12393333
1004.156	0.12434493
1004.315	0.12358882
1004.475	0.1239077
1004.635	0.12342664
1004.794	0.12294432
1004.954	0.12297173
1005.114	0.121924
1005.273	0.12262797
1005.433	0.12230106
1005.592	0.12222636
1005.752	0.12150386
1005.911	0.12182858
1006.071	0.12116467
1006.23	0.1205617
1006.389	0.11952048
1006.549	0.11940624
1006.708	0.11878886
1006.868	0.1179125
1007.027	0.11854604
1007.186	0.11878718
1007.345	0.12013685
1007.505	0.11951319
1007.664	0.11913685
1007.823	0.11909745
1007.982	0.11966258
1008.142	0.11858225
1008.301	0.11846266
1008.46	0.11663025
1008.619	0.11634559
1008.778	0.11666949
1008.937	0.11641182
1009.096	0.11597729
1009.255	0.11616053
1009.414	0.11511293
1009.573	0.11588332
1009.732	0.11628535
1009.891	0.11561889
1010.05	0.11636498
1010.209	0.11599657
1010.368	0.11537483
1010.527	0.115847
1010.686	0.11575167
1010.845	0.1153264
1011.003	0.11528903
1011.162	0.11440509
1011.321	0.11387422
1011.48	0.11429115
1011.638	0.11408954
1011.797	0.11401039
1011.956	0.11341064
1012.115	0.11368136
1012.273	0.11327778
1012.432	0.11272658
1012.59	0.11172576
1012.749	0.11167148
1012.908	0.11016744
1013.066	0.11063636
1013.225	0.10953962
1013.383	0.10977015
1013.542	0.11051393
1013.7	0.1103901
1013.859	0.11091376
1014.017	0.11236695
1014.175	0.1110772
1014.334	0.11186074
1014.492	0.11222103
1014.65	0.11199399
1014.809	0.1115883
1014.967	0.10990844
1015.125	0.1094844
1015.284	0.11102506
1015.442	0.11065584
1015.6	0.10940879
1015.758	0.10940139
1015.916	0.10918981
1016.075	0.10954369
1016.233	0.10870547
1016.391	0.10880829
1016.549	0.10817556
1016.707	0.10874868
1016.865	0.10789559
1017.023	0.10730015
1017.181	0.10612159
1017.339	0.10565113
1017.497	0.10392823
1017.655	0.10449753
1017.813	0.10464849
1017.971	0.10455969
1018.129	0.10534934
1018.286	0.10569631
1018.444	0.1049268
1018.602	0.1056409
1018.76	0.10497852
1018.918	0.10531591
1019.075	0.10489692
1019.233	0.1039595
1019.391	0.10382412
1019.549	0.10505976
1019.706	0.1057375
1019.864	0.10671121
1020.022	0.10623498
1020.179	0.10780976
1020.337	0.10937861
1020.494	0.10870189
1020.652	0.10869701
1020.809	0.10723573
1020.967	0.10741679
1021.124	0.10615572
1021.282	0.1058585
1021.439	0.1053848
1021.597	0.10739694
1021.754	0.1066491
1021.911	0.10923531
1022.069	0.10750852
1022.226	0.10687931
1022.384	0.10588668
1022.541	0.10545702
1022.698	0.10540533
1022.855	0.10559446
1023.013	0.10351691
1023.17	0.10264174
1023.327	0.1044553
1023.484	0.10444589
1023.641	0.1045934
1023.798	0.10607846
1023.956	0.10838528
1024.113	0.10730988
1024.27	0.10822398
1024.427	0.10766911
1024.584	0.10992462
1024.741	0.10839908
1024.898	0.10476721
1025.055	0.10173396
1025.212	0.10117262
1025.369	0.09941468
1025.525	0.09835019
1025.682	0.09728633
1025.839	0.09819284
1025.996	0.0999959
1026.153	0.10089803
1026.31	0.10343015
1026.466	0.10608472
1026.623	0.1073874
1026.78	0.10650467
1026.937	0.10641571
1027.093	0.10462579
1027.25	0.10643968
1027.407	0.1049972
1027.563	0.10439252
1027.72	0.10458894
1027.876	0.10296466
1028.033	0.1028026
1028.19	0.10337004
1028.346	0.09860397
1028.503	0.0998675
1028.659	0.10011458
1028.816	0.09907095
1028.972	0.10320828
1029.128	0.10435437
1029.285	0.10194095
1029.441	0.10404149
1029.598	0.10319125
1029.754	0.10465924
1029.91	0.1036482
1030.067	0.09994101
1030.223	0.09903685
1030.379	0.10036611
1030.535	0.10315548
1030.691	0.10421505
1030.848	0.10079732
1031.004	0.10291934
1031.16	0.10742003
1031.316	0.10879562
1031.472	0.11170024
1031.628	0.11003117
1031.784	0.10982141
1031.94	0.11351062
1032.096	0.11279385
1032.252	0.11079328
1032.408	0.11122129
1032.564	0.10993043
1032.72	0.11175666
1032.876	0.11099945
1033.032	0.10767789
1033.188	0.10685279
1033.344	0.10581924
1033.5	0.10479236
1033.655	0.10501788
1033.811	0.10314544
1033.967	0.10205887
