Data from 1_mm_pl_80pc_Absorbance__0__17-02-28-706.txt Node

Date: Wed Mar 08 17:02:28 CET 2023
User: Ange
Spectrometer: FLMT08341
Trigger mode: 0
Integration Time (sec): 1.000000E-2
Scans to average: 400
Electric dark correction enabled: true
Nonlinearity correction enabled: false
Boxcar width: 3
XAxis mode: Wavelengths
Number of Pixels in Spectrum: 3648
>>>>>Begin Spectral Data<<<<<
345.271	0.03973781
345.487	0.02805936
345.704	0.01802807
345.921	0.02578582
346.137	0.03818152
346.354	0.02741561
346.571	0.02545276
346.787	-0.02979625
347.004	-0.04480704
347.22	-0.03145134
347.437	0.09865058
347.653	0.38677263
347.87	-0.2575848
348.086	-0.52587963
348.303	-0.02182311
348.519	0.24733525
348.736	0.24674169
348.952	0.25412254
349.169	0.25588618
349.385	0.26367297
349.601	0.26390359
349.818	0.25963818
350.034	0.25692171
350.251	0.25612315
350.467	0.25785154
350.683	0.25374448
350.9	0.25360335
351.116	0.25155483
351.332	0.25073518
351.549	0.25644006
351.765	0.26144331
351.981	0.26389443
352.197	0.27221624
352.414	0.27744931
352.63	0.27965793
352.846	0.2838411
353.062	0.28292378
353.278	0.28059006
353.495	0.28483553
353.711	0.28272619
353.927	0.28442333
354.143	0.28661191
354.359	0.28601211
354.575	0.28500985
354.792	0.2926367
355.008	0.28854642
355.224	0.28914448
355.44	0.28609423
355.656	0.28652137
355.872	0.29002201
356.088	0.30103069
356.304	0.2973273
356.52	0.2974887
356.736	0.30089998
356.952	0.30527714
357.168	0.30569296
357.384	0.30876404
357.6	0.30274674
357.816	0.3087844
358.032	0.3146137
358.248	0.31745958
358.464	0.31745801
358.679	0.32032883
358.895	0.31989414
359.111	0.3245417
359.327	0.31813603
359.543	0.31832055
359.759	0.32286023
359.974	0.32234917
360.19	0.322709
360.406	0.32384073
360.622	0.32049109
360.838	0.3216352
361.053	0.32328953
361.269	0.32254313
361.485	0.32499686
361.701	0.32661359
361.916	0.32503332
362.132	0.32771654
362.348	0.33097252
362.563	0.33249218
362.779	0.33093692
362.995	0.33248046
363.21	0.33513891
363.426	0.3371842
363.641	0.3360093
363.857	0.33873741
364.073	0.33868581
364.288	0.33783758
364.504	0.34188501
364.719	0.34202362
364.935	0.34332262
365.15	0.34603184
365.366	0.34567035
365.581	0.34796875
365.797	0.35088347
366.012	0.34875074
366.228	0.34801641
366.443	0.35060626
366.658	0.35023764
366.874	0.34948959
367.089	0.35176081
367.305	0.35284153
367.52	0.35427826
367.735	0.35358016
367.951	0.35122145
368.166	0.35469242
368.381	0.36066311
368.597	0.35934592
368.812	0.36166794
369.027	0.36420377
369.243	0.36681331
369.458	0.37427385
369.673	0.37556078
369.888	0.37543388
370.104	0.374539
370.319	0.37542706
370.534	0.37345748
370.749	0.37440133
370.964	0.37353717
371.179	0.37240756
371.395	0.36972361
371.61	0.37302947
371.825	0.36999897
372.04	0.37140781
372.255	0.36952851
372.47	0.36647846
372.685	0.36537169
372.9	0.36594436
373.115	0.36458803
373.33	0.3679324
373.545	0.36894304
373.76	0.37191803
373.975	0.37208803
374.19	0.37118165
374.405	0.37265198
374.62	0.37638782
374.835	0.37885853
375.05	0.37867032
375.265	0.37939299
375.48	0.38125915
375.695	0.38839487
375.91	0.38824654
376.125	0.38403923
376.339	0.37994558
376.554	0.38093993
376.769	0.38166764
376.984	0.3810802
377.199	0.37979601
377.414	0.38015248
377.628	0.38358472
377.843	0.3860707
378.058	0.38683865
378.273	0.38772695
378.487	0.3899014
378.702	0.39068627
378.917	0.39167644
379.131	0.39136823
379.346	0.38857508
379.561	0.38718879
379.775	0.38569536
379.99	0.38281075
380.205	0.37990284
380.419	0.37718609
380.634	0.37461912
380.848	0.37738739
381.063	0.37769718
381.278	0.38039057
381.492	0.3798697
381.707	0.38293943
381.921	0.38409594
382.136	0.38653597
382.35	0.38501577
382.565	0.38408516
382.779	0.38366742
382.994	0.38473585
383.208	0.38294481
383.422	0.38562322
383.637	0.38535654
383.851	0.38810446
384.066	0.38896585
384.28	0.3894381
384.494	0.39090746
384.709	0.39160743
384.923	0.39120437
385.137	0.39001527
385.352	0.38938618
385.566	0.39049494
385.78	0.39032236
385.995	0.38890708
386.209	0.3875654
386.423	0.38804906
386.637	0.38981101
386.852	0.38815334
387.066	0.3876039
387.28	0.38543486
387.494	0.38648997
387.708	0.38734292
387.923	0.38648491
388.137	0.38672527
388.351	0.38744343
388.565	0.38895844
388.779	0.38999249
388.993	0.39259509
389.207	0.39297275
389.421	0.39347878
389.635	0.39213899
389.85	0.39119169
390.064	0.39050228
390.278	0.39098027
390.492	0.39043458
390.706	0.39052488
390.92	0.38981007
391.134	0.39134886
391.348	0.39467987
391.561	0.39354837
391.775	0.3927648
391.989	0.39024309
392.203	0.39060487
392.417	0.3920712
392.631	0.39322736
392.845	0.39108598
393.059	0.39314066
393.273	0.39315568
393.486	0.39259298
393.7	0.39115282
393.914	0.39112535
394.128	0.38934828
394.342	0.38863653
394.555	0.38577854
394.769	0.38552091
394.983	0.38643285
395.197	0.38733465
395.41	0.38644693
395.624	0.38632913
395.838	0.38618735
396.051	0.38913654
396.265	0.38836244
396.479	0.38856134
396.692	0.38803875
396.906	0.38669111
397.12	0.38631767
397.333	0.38749306
397.547	0.3857582
397.76	0.38652098
397.974	0.38590196
398.187	0.38588238
398.401	0.38661278
398.614	0.3867493
398.828	0.3854591
399.041	0.38491808
399.255	0.38410221
399.468	0.38365579
399.682	0.38353636
399.895	0.38398523
400.109	0.38310706
400.322	0.38252723
400.536	0.38140781
400.749	0.38251661
400.962	0.38249492
401.176	0.38134552
401.389	0.38065495
401.602	0.37902121
401.816	0.37905198
402.029	0.38001672
402.242	0.37844478
402.456	0.37761382
402.669	0.37690348
402.882	0.37495708
403.095	0.37664431
403.309	0.37602422
403.522	0.37525111
403.735	0.37459619
403.948	0.37472485
404.161	0.37653982
404.375	0.37668427
404.588	0.37571896
404.801	0.37542773
405.014	0.37455934
405.227	0.37525216
405.44	0.37489363
405.653	0.37395659
405.866	0.37342673
406.079	0.37283189
406.293	0.37229006
406.506	0.37175379
406.719	0.37045492
406.932	0.36947034
407.145	0.36777559
407.358	0.36828895
407.571	0.36694569
407.784	0.36672354
407.996	0.36644199
408.209	0.36510584
408.422	0.36455782
408.635	0.36455082
408.848	0.36348229
409.061	0.36257915
409.274	0.36174366
409.487	0.36116928
409.7	0.36109818
409.912	0.36092187
410.125	0.3602765
410.338	0.35980707
410.551	0.35942912
410.764	0.35881585
410.976	0.35818719
411.189	0.35786682
411.402	0.3561526
411.615	0.3558048
411.827	0.35514708
412.04	0.35474017
412.253	0.35404966
412.465	0.35300863
412.678	0.35216506
412.891	0.35256605
413.103	0.35071331
413.316	0.34997417
413.529	0.35002556
413.741	0.34971875
413.954	0.34993814
414.166	0.34916631
414.379	0.34845105
414.591	0.34886759
414.804	0.34784093
415.016	0.34684607
415.229	0.34617891
415.441	0.34491828
415.654	0.34484251
415.866	0.344149
416.079	0.34364034
416.291	0.34299508
416.504	0.34279601
416.716	0.3423743
416.928	0.34216451
417.141	0.34106158
417.353	0.34091936
417.566	0.33945977
417.778	0.33933208
417.99	0.3378467
418.203	0.33680493
418.415	0.33587882
418.627	0.33559063
418.839	0.33448357
419.052	0.33513905
419.264	0.33425652
419.476	0.33403995
419.688	0.33345453
419.901	0.33279803
420.113	0.33173435
420.325	0.33067772
420.537	0.32887356
420.749	0.32831901
420.961	0.32766694
421.174	0.32667258
421.386	0.32567942
421.598	0.32476647
421.81	0.32441344
422.022	0.32371722
422.234	0.3229731
422.446	0.32195433
422.658	0.32121843
422.87	0.32094157
423.082	0.32046992
423.294	0.31941027
423.506	0.31879825
423.718	0.31773584
423.93	0.31650089
424.142	0.31554548
424.354	0.31418865
424.566	0.31333076
424.778	0.31288595
424.99	0.3119818
425.202	0.31115224
425.414	0.31093668
425.625	0.31023456
425.837	0.30930223
426.049	0.30858295
426.261	0.30775305
426.473	0.30661173
426.684	0.30602417
426.896	0.30522869
427.108	0.30444152
427.32	0.30396215
427.531	0.30321362
427.743	0.30235173
427.955	0.30230542
428.167	0.30114385
428.378	0.3003011
428.59	0.29973826
428.802	0.29885201
429.013	0.29803239
429.225	0.2969545
429.436	0.29570728
429.648	0.29543691
429.86	0.29482597
430.071	0.29406824
430.283	0.29360327
430.494	0.29271015
430.706	0.29207635
430.917	0.29118113
431.129	0.29052575
431.34	0.28971915
431.552	0.28876274
431.763	0.2875931
431.975	0.28669225
432.186	0.2856216
432.398	0.28496063
432.609	0.28342015
432.821	0.28239458
433.032	0.28171608
433.243	0.28094361
433.455	0.28026601
433.666	0.2797693
433.877	0.27925528
434.089	0.27822475
434.3	0.27726238
434.511	0.27592313
434.723	0.27488069
434.934	0.27372734
435.145	0.27239145
435.356	0.27126054
435.568	0.27066564
435.779	0.26978011
435.99	0.26878781
436.201	0.26809155
436.412	0.26706442
436.624	0.2665134
436.835	0.26573983
437.046	0.26499909
437.257	0.26419227
437.468	0.26385243
437.679	0.26292994
437.89	0.26233072
438.101	0.26170251
438.312	0.2608875
438.523	0.26001593
438.734	0.25927895
438.945	0.25841782
439.156	0.25752683
439.367	0.25676607
439.578	0.25604094
439.789	0.25497715
440	0.25416741
440.211	0.25324157
440.422	0.25245522
440.633	0.25186955
440.844	0.25094241
441.055	0.24979642
441.266	0.24923294
441.477	0.24836416
441.687	0.24755371
441.898	0.24675752
442.109	0.24574699
442.32	0.2448964
442.531	0.24393509
442.741	0.24267621
442.952	0.24167015
443.163	0.24083615
443.374	0.23976863
443.584	0.23883983
443.795	0.23814326
444.006	0.23743918
444.216	0.23661763
444.427	0.23565202
444.638	0.2346272
444.848	0.23376892
445.059	0.23309881
445.27	0.23206712
445.48	0.23100098
445.691	0.23040219
445.901	0.22992201
446.112	0.22930914
446.323	0.22837602
446.533	0.22740025
446.744	0.22663612
446.954	0.22602653
447.165	0.22511468
447.375	0.22425241
447.586	0.22354759
447.796	0.223003
448.006	0.22221974
448.217	0.2215642
448.427	0.22062117
448.638	0.21963708
448.848	0.21902712
449.058	0.21806278
449.269	0.21718933
449.479	0.21640999
449.689	0.21544509
449.9	0.21480973
450.11	0.21395169
450.32	0.21314599
450.531	0.21235245
450.741	0.21158442
450.951	0.21090581
451.161	0.21022731
451.372	0.20942733
451.582	0.2092189
451.792	0.2083407
452.002	0.20763862
452.212	0.20674208
452.422	0.20603134
452.633	0.20530798
452.843	0.20473533
453.053	0.20366976
453.263	0.2030567
453.473	0.20232901
453.683	0.20189569
453.893	0.20109949
454.103	0.20065484
454.313	0.19999406
454.523	0.19953313
454.733	0.19894017
454.943	0.19860882
455.153	0.1979761
455.363	0.19733021
455.573	0.19654901
455.783	0.19593589
455.993	0.19514053
456.203	0.19460355
456.413	0.19389147
456.623	0.19331008
456.833	0.19302256
457.042	0.19246413
457.252	0.19196849
457.462	0.19152922
457.672	0.19087379
457.882	0.19022053
458.091	0.18959637
458.301	0.18891785
458.511	0.18829965
458.721	0.18768199
458.931	0.18723962
459.14	0.18680147
459.35	0.18643957
459.56	0.18609666
459.769	0.18582052
459.979	0.18544234
460.189	0.18504844
460.398	0.18439684
460.608	0.18404718
460.817	0.18351998
461.027	0.1830678
461.237	0.18257136
461.446	0.18216652
461.656	0.18185444
461.865	0.18159411
462.075	0.18124144
462.284	0.18104765
462.494	0.18064647
462.703	0.18008326
462.913	0.1798014
463.122	0.17935896
463.332	0.17897493
463.541	0.178592
463.751	0.17815092
463.96	0.17782523
464.169	0.17771338
464.379	0.17734608
464.588	0.17704487
464.797	0.17683945
465.007	0.17660845
465.216	0.1764213
465.425	0.17630231
465.635	0.17600912
465.844	0.17588126
466.053	0.1758228
466.263	0.17559119
466.472	0.17529505
466.681	0.17505223
466.89	0.17469018
467.099	0.17459784
467.309	0.17435433
467.518	0.17414899
467.727	0.17403985
467.936	0.17387896
468.145	0.17378288
468.354	0.17375027
468.563	0.17354078
468.772	0.17333355
468.982	0.17315902
469.191	0.17316285
469.4	0.17310734
469.609	0.17292785
469.818	0.17281523
470.027	0.17272556
470.236	0.17277994
470.445	0.17272562
470.654	0.17242501
470.863	0.17226039
471.072	0.17235541
471.28	0.17228841
471.489	0.17228721
471.698	0.17227339
471.907	0.17230556
472.116	0.17252058
472.325	0.17269506
472.534	0.17280816
472.743	0.1728787
472.951	0.17302904
473.16	0.17307499
473.369	0.1731173
473.578	0.17306671
473.786	0.17321011
473.995	0.17322712
474.204	0.17343501
474.413	0.17344722
474.621	0.17366561
474.83	0.17385502
475.039	0.17409857
475.247	0.17421415
475.456	0.17434696
475.665	0.17449031
475.873	0.17469328
476.082	0.17465118
476.291	0.1748906
476.499	0.17515716
476.708	0.17536031
476.916	0.17564593
477.125	0.17589607
477.333	0.17614157
477.542	0.17654365
477.75	0.17664026
477.959	0.17680122
478.167	0.17707164
478.376	0.17729671
478.584	0.17763772
478.793	0.17799858
479.001	0.17839389
479.209	0.17878683
479.418	0.17910527
479.626	0.17934053
479.834	0.17964205
480.043	0.17991082
480.251	0.18017572
480.459	0.18043614
480.668	0.18082267
480.876	0.1811908
481.084	0.18164617
481.293	0.18205682
481.501	0.18242603
481.709	0.18299312
481.917	0.18343337
482.125	0.18387732
482.334	0.18433603
482.542	0.18478107
482.75	0.18534239
482.958	0.18592213
483.166	0.1863985
483.374	0.18701552
483.583	0.18755816
483.791	0.18812521
483.999	0.18872555
484.207	0.18922599
484.415	0.18974184
484.623	0.19017062
484.831	0.19054838
485.039	0.19094625
485.247	0.191471
485.455	0.19187298
485.663	0.19231373
485.871	0.19281655
486.079	0.19333178
486.287	0.19393309
486.495	0.19451741
486.702	0.19502201
486.91	0.19557081
487.118	0.19617731
487.326	0.19670898
487.534	0.19742412
487.742	0.19811796
487.95	0.19881103
488.157	0.19956471
488.365	0.200383
488.573	0.20118047
488.781	0.20205695
488.988	0.20283704
489.196	0.20356314
489.404	0.20433787
489.612	0.20508513
489.819	0.20588143
490.027	0.20665484
490.235	0.20728554
490.442	0.20804126
490.65	0.2086916
490.857	0.20954863
491.065	0.21036725
491.273	0.21114419
491.48	0.21198568
491.688	0.21287396
491.895	0.21375392
492.103	0.21471485
492.31	0.2155079
492.518	0.21628086
492.725	0.21704843
492.933	0.21782585
493.14	0.21864277
493.348	0.21939688
493.555	0.22019754
493.763	0.22097426
493.97	0.2218977
494.177	0.22285525
494.385	0.22376173
494.592	0.22469698
494.8	0.22555503
495.007	0.22654345
495.214	0.22745312
495.422	0.22844969
495.629	0.2293846
495.836	0.23032421
496.043	0.23131129
496.251	0.23237689
496.458	0.23327545
496.665	0.23429067
496.872	0.23524693
497.08	0.23623197
497.287	0.23717096
497.494	0.23822219
497.701	0.23921426
497.908	0.24034694
498.115	0.24129195
498.322	0.24225815
498.53	0.24326179
498.737	0.24433411
498.944	0.24521179
499.151	0.24625587
499.358	0.24726039
499.565	0.24836025
499.772	0.24942591
499.979	0.25054897
500.186	0.25167322
500.393	0.25285992
500.6	0.25394526
500.807	0.25502829
501.014	0.25613371
501.221	0.25730099
501.427	0.25837674
501.634	0.25945116
501.841	0.26051434
502.048	0.26158944
502.255	0.26259966
502.462	0.26373592
502.669	0.2648074
502.875	0.26595492
503.082	0.26704194
503.289	0.26809693
503.496	0.26922084
503.702	0.27037586
503.909	0.27152541
504.116	0.27271528
504.323	0.27381248
504.529	0.27490322
504.736	0.27610424
504.943	0.2772645
505.149	0.27853327
505.356	0.2798154
505.563	0.28106642
505.769	0.28238929
505.976	0.28371501
506.182	0.28506177
506.389	0.28631409
506.595	0.28760714
506.802	0.28880924
507.008	0.29004218
507.215	0.29120062
507.421	0.2924945
507.628	0.29365959
507.834	0.29496247
508.041	0.29616155
508.247	0.29739784
508.454	0.29869603
508.66	0.29991547
508.866	0.30113152
509.073	0.30249554
509.279	0.30380643
509.486	0.30497207
509.692	0.30616216
509.898	0.30735972
510.105	0.30875687
510.311	0.31001248
510.517	0.31131341
510.723	0.31258165
510.93	0.31385226
511.136	0.31518292
511.342	0.31648168
511.548	0.31770661
511.754	0.31902471
511.961	0.32023238
512.167	0.32146234
512.373	0.32280752
512.579	0.32416387
512.785	0.32539096
512.991	0.32674402
513.197	0.3280934
513.404	0.32948418
513.61	0.33082265
513.816	0.3322152
514.022	0.33348431
514.228	0.33487843
514.434	0.336128
514.64	0.33742271
514.846	0.33876358
515.052	0.34015153
515.258	0.34140599
515.464	0.34272464
515.669	0.34406043
515.875	0.34539984
516.081	0.3467231
516.287	0.34804472
516.493	0.3493825
516.699	0.35073632
516.905	0.35207357
517.111	0.3533756
517.316	0.35471993
517.522	0.35606176
517.728	0.35737751
517.934	0.35869066
518.139	0.36005134
518.345	0.36136906
518.551	0.36272749
518.757	0.3639934
518.962	0.3652866
519.168	0.36661758
519.374	0.36792119
519.579	0.3692047
519.785	0.37067927
519.991	0.37207096
520.196	0.37353532
520.402	0.37490962
520.607	0.37627474
520.813	0.37766405
521.018	0.37895994
521.224	0.3801648
521.429	0.38149365
521.635	0.38272362
521.84	0.38402098
522.046	0.38542473
522.251	0.38668477
522.457	0.38803671
522.662	0.38939503
522.868	0.3906395
523.073	0.39196437
523.279	0.39328833
523.484	0.39444003
523.689	0.39581879
523.895	0.39723121
524.1	0.39850379
524.305	0.39989674
524.511	0.40122977
524.716	0.40261569
524.921	0.40398449
525.126	0.40533335
525.332	0.40666602
525.537	0.4079454
525.742	0.40927249
525.947	0.41060553
526.153	0.41183237
526.358	0.41309226
526.563	0.41427124
526.768	0.41546345
526.973	0.41681684
527.178	0.41803851
527.383	0.41927948
527.588	0.42046836
527.794	0.42166777
527.999	0.4229132
528.204	0.42410701
528.409	0.42530316
528.614	0.42663074
528.819	0.42779262
529.024	0.42899894
529.229	0.43019046
529.434	0.43144198
529.639	0.43269005
529.843	0.43388601
530.048	0.43498967
530.253	0.43629296
530.458	0.43765683
530.663	0.43895541
530.868	0.44022523
531.073	0.44136042
531.278	0.44253941
531.482	0.44368481
531.687	0.44481735
531.892	0.44595892
532.097	0.44711111
532.302	0.44830097
532.506	0.44951797
532.711	0.450692
532.916	0.45192472
533.12	0.45314468
533.325	0.45424742
533.53	0.45547149
533.734	0.45664558
533.939	0.45783035
534.144	0.45902915
534.348	0.46017243
534.553	0.46130962
534.757	0.46245878
534.962	0.46354923
535.167	0.46462717
535.371	0.46565374
535.576	0.46683359
535.78	0.46795927
535.985	0.46910418
536.189	0.47018552
536.394	0.47134449
536.598	0.4724462
536.803	0.47360287
537.007	0.4745713
537.211	0.47561784
537.416	0.47659653
537.62	0.47766384
537.825	0.47861704
538.029	0.4797626
538.233	0.48083128
538.438	0.48198413
538.642	0.48302286
538.846	0.48417644
539.05	0.48522042
539.255	0.48624978
539.459	0.48719672
539.663	0.48818265
539.867	0.48916477
540.072	0.49017224
540.276	0.49113313
540.48	0.49217031
540.684	0.49318044
540.888	0.49423169
541.092	0.49515711
541.297	0.49604151
541.501	0.49700661
541.705	0.49791423
541.909	0.49876457
542.113	0.49965558
542.317	0.50054987
542.521	0.50151579
542.725	0.50253141
542.929	0.50339761
543.133	0.50434658
543.337	0.50534952
543.541	0.50623111
543.745	0.50700115
543.949	0.50784673
544.153	0.50856076
544.357	0.50941797
544.56	0.51027655
544.764	0.51107155
544.968	0.51192649
545.172	0.51275044
545.376	0.5136817
545.58	0.5146485
545.783	0.51562453
545.987	0.51638982
546.191	0.51723125
546.395	0.51811829
546.598	0.51912167
546.802	0.52004124
547.006	0.52086868
547.21	0.52142139
547.413	0.522279
547.617	0.52303723
547.821	0.52378711
548.024	0.524534
548.228	0.5251169
548.431	0.52575114
548.635	0.52661539
548.839	0.52720713
549.042	0.5279055
549.246	0.5285375
549.449	0.52915283
549.653	0.5299075
549.856	0.53067956
550.06	0.53141763
550.263	0.53232205
550.467	0.53313068
550.67	0.5339648
550.874	0.53470972
551.077	0.53551122
551.28	0.53632957
551.484	0.53708845
551.687	0.53772705
551.891	0.53848921
552.094	0.53911001
552.297	0.53986232
552.501	0.54058396
552.704	0.54119762
552.907	0.54177248
553.11	0.54227912
553.314	0.54284394
553.517	0.5433162
553.72	0.54385115
553.923	0.5443708
554.127	0.54500636
554.33	0.54552178
554.533	0.54624496
554.736	0.54669199
554.939	0.54732296
555.142	0.54786702
555.345	0.54832617
555.549	0.54884096
555.752	0.54941699
555.955	0.5498983
556.158	0.55052727
556.361	0.55110736
556.564	0.55160816
556.767	0.55217596
556.97	0.55270873
557.173	0.55328669
557.376	0.55385368
557.579	0.5542519
557.782	0.55475481
557.984	0.5552925
558.187	0.55581048
558.39	0.55619316
558.593	0.55667359
558.796	0.55701445
558.999	0.55744358
559.202	0.55784222
559.404	0.55819645
559.607	0.5585729
559.81	0.55900184
560.013	0.55935472
560.216	0.55980884
560.418	0.56038084
560.621	0.5608993
560.824	0.56144614
561.026	0.56193593
561.229	0.56230609
561.432	0.5627396
561.634	0.56313353
561.837	0.56338039
562.04	0.56364177
562.242	0.56396186
562.445	0.56418911
562.647	0.56453838
562.85	0.56469617
563.053	0.56488329
563.255	0.56520793
563.458	0.56552554
563.66	0.5656949
563.863	0.56607421
564.065	0.56638993
564.268	0.56679029
564.47	0.56720317
564.672	0.5673913
564.875	0.56766635
565.077	0.56799668
565.28	0.56817584
565.482	0.56848889
565.684	0.56865863
565.887	0.5689206
566.089	0.56930257
566.291	0.56962248
566.494	0.56983492
566.696	0.57008759
566.898	0.57029167
567.1	0.57061354
567.303	0.57086347
567.505	0.571044
567.707	0.57111207
567.909	0.57122777
568.111	0.57139234
568.314	0.57144296
568.516	0.57155047
568.718	0.57163602
568.92	0.57172564
569.122	0.57186258
569.324	0.57203277
569.526	0.57205373
569.728	0.57231178
569.93	0.57240017
570.132	0.57248352
570.334	0.57263544
570.536	0.57271193
570.738	0.57274834
570.94	0.57287791
571.142	0.5729567
571.344	0.57298235
571.546	0.57290534
571.748	0.57292616
571.95	0.5729018
572.152	0.57298076
572.354	0.57302837
572.555	0.57304549
572.757	0.57322406
572.959	0.57331118
573.161	0.57325096
573.363	0.57332916
573.564	0.57342705
573.766	0.57334749
573.968	0.57328247
574.17	0.57303785
574.371	0.5729956
574.573	0.57300379
574.775	0.57288863
574.976	0.5727245
575.178	0.57265599
575.38	0.57247175
575.581	0.57228252
575.783	0.57223591
575.985	0.57212853
576.186	0.57212447
576.388	0.57203785
576.589	0.5719634
576.791	0.5719328
576.992	0.57197909
577.194	0.57185252
577.395	0.57159237
577.597	0.57136987
577.798	0.57121808
578	0.57102625
578.201	0.57087704
578.402	0.57072568
578.604	0.57043411
578.805	0.5704264
579.007	0.5703841
579.208	0.57021486
579.409	0.57007944
579.611	0.56977119
579.812	0.56960583
580.013	0.56946186
580.215	0.56908656
580.416	0.56874903
580.617	0.56848357
580.818	0.5683577
581.019	0.56812514
581.221	0.56783644
581.422	0.56758487
581.623	0.56749395
581.824	0.56712107
582.025	0.56685529
582.226	0.56644792
582.428	0.56626349
582.629	0.56601547
582.83	0.56575637
583.031	0.56537996
583.232	0.56524476
583.433	0.56498792
583.634	0.56461929
583.835	0.56430892
584.036	0.56390552
584.237	0.56356352
584.438	0.5632131
584.639	0.56273728
584.84	0.56235425
585.041	0.56193204
585.242	0.56140805
585.442	0.5609484
585.643	0.56050944
585.844	0.56008409
586.045	0.55980012
586.246	0.55930554
586.447	0.5589426
586.647	0.55851589
586.848	0.55807827
587.049	0.55766381
587.25	0.55719378
587.45	0.55664974
587.651	0.55628342
587.852	0.55584287
588.053	0.55562309
588.253	0.55526173
588.454	0.55486553
588.655	0.55444438
588.855	0.55400523
589.056	0.55355966
589.256	0.55317099
589.457	0.55265465
589.658	0.55228499
589.858	0.55176797
590.059	0.55141454
590.259	0.55098428
590.46	0.55041353
590.66	0.54982115
590.861	0.5492949
591.061	0.54861729
591.262	0.54821752
591.462	0.54757523
591.662	0.54691768
591.863	0.54637176
592.063	0.54587182
592.264	0.54533427
592.464	0.54481276
592.664	0.54415361
592.865	0.54370022
593.065	0.54312042
593.265	0.54266404
593.465	0.54207914
593.666	0.54142883
593.866	0.54083628
594.066	0.54026789
594.266	0.53958055
594.467	0.53894884
594.667	0.53820737
594.867	0.53759385
595.067	0.53704887
595.267	0.53641471
595.467	0.53572992
595.668	0.53505459
595.868	0.53448498
596.068	0.53389174
596.268	0.53312036
596.468	0.53242837
596.668	0.53184083
596.868	0.53118136
597.068	0.53070644
597.268	0.53014113
597.468	0.52947717
597.668	0.52889618
597.868	0.52820256
598.068	0.52752548
598.268	0.52687495
598.467	0.52606589
598.667	0.52522891
598.867	0.52438694
599.067	0.52371621
599.267	0.52303572
599.467	0.52224593
599.667	0.52140037
599.866	0.520695
600.066	0.52005833
600.266	0.51941897
600.466	0.51869344
600.665	0.51797903
600.865	0.51721118
601.065	0.51654985
601.264	0.5156924
601.464	0.51490392
601.664	0.51418215
601.863	0.51335197
602.063	0.51257901
602.263	0.51167455
602.462	0.51089813
602.662	0.51012399
602.861	0.50927817
603.061	0.50848767
603.26	0.50769807
603.46	0.50682453
603.659	0.50618795
603.859	0.50548672
604.058	0.5047079
604.258	0.50407839
604.457	0.5034469
604.657	0.50269201
604.856	0.50189893
605.056	0.5011514
605.255	0.50027706
605.454	0.4995226
605.654	0.49853281
605.853	0.49757636
606.052	0.49665509
606.252	0.49585949
606.451	0.49505082
606.65	0.49437552
606.849	0.49343114
607.049	0.49268044
607.248	0.49186275
607.447	0.49108308
607.646	0.49034045
607.845	0.48950348
608.045	0.48852137
608.244	0.48787977
608.443	0.48709414
608.642	0.48632971
608.841	0.48544619
609.04	0.4845446
609.239	0.48370901
609.438	0.4828438
609.637	0.48202587
609.836	0.4811664
610.035	0.48029431
610.234	0.47945218
610.433	0.47855705
610.632	0.47762514
610.831	0.47681174
611.03	0.47580061
611.229	0.47504234
611.428	0.47412147
611.627	0.47327685
611.826	0.47244731
612.025	0.47167674
612.224	0.47069127
612.422	0.4697787
612.621	0.46871021
612.82	0.46789515
613.019	0.46702523
613.218	0.46624295
613.416	0.46525913
613.615	0.46446253
613.814	0.46359482
614.012	0.46278147
614.211	0.46178759
614.41	0.46090541
614.608	0.45989491
614.807	0.45890188
615.006	0.45799715
615.204	0.45701467
615.403	0.45623177
615.602	0.45537071
615.8	0.4545101
615.999	0.45356827
616.197	0.45279614
616.396	0.45191456
616.594	0.45113403
616.793	0.45018941
616.991	0.4492854
617.19	0.44828817
617.388	0.44751583
617.586	0.44663054
617.785	0.44571999
617.983	0.44477703
618.182	0.44378821
618.38	0.44283411
618.578	0.44191636
618.777	0.4409622
618.975	0.44005681
619.173	0.4391348
619.372	0.43822906
619.57	0.4372458
619.768	0.43640909
619.966	0.43548232
620.165	0.43451094
620.363	0.43355547
620.561	0.43246888
620.759	0.4314798
620.957	0.43060087
621.155	0.42962987
621.354	0.42862882
621.552	0.42781935
621.75	0.42679918
621.948	0.42605151
622.146	0.4251821
622.344	0.42415167
622.542	0.4232064
622.74	0.42232922
622.938	0.42124216
623.136	0.42037154
623.334	0.41948171
623.532	0.41841688
623.73	0.41759262
623.928	0.41675679
624.126	0.41589225
624.324	0.41509304
624.522	0.41415497
624.719	0.41308685
624.917	0.41230107
625.115	0.41125384
625.313	0.41035185
625.511	0.40946249
625.708	0.40841317
625.906	0.40737373
626.104	0.4064687
626.302	0.40555387
626.499	0.40469503
626.697	0.40359414
626.895	0.40244676
627.093	0.40147585
627.29	0.40060125
627.488	0.39958625
627.686	0.39858372
627.883	0.39743295
628.081	0.39635013
628.278	0.39556801
628.476	0.3944754
628.673	0.39342066
628.871	0.39245506
629.068	0.39140272
629.266	0.39049519
629.463	0.38953984
629.661	0.38848021
629.858	0.3875635
630.056	0.38660952
630.253	0.38567869
630.451	0.3848229
630.648	0.38387225
630.845	0.38301673
631.043	0.38208466
631.24	0.38128263
631.438	0.38042406
631.635	0.37947516
631.832	0.37829758
632.029	0.37735843
632.227	0.37623043
632.424	0.37515659
632.621	0.37399957
632.818	0.37288471
633.016	0.37180843
633.213	0.3709204
633.41	0.36991882
633.607	0.36906448
633.804	0.36813622
634.001	0.36713667
634.199	0.3661978
634.396	0.36528682
634.593	0.36426399
634.79	0.36343547
634.987	0.36245599
635.184	0.36155078
635.381	0.36076196
635.578	0.35989945
635.775	0.35890751
635.972	0.35803986
636.169	0.35695718
636.366	0.3560395
636.563	0.35505031
636.76	0.35393202
636.957	0.35294275
637.153	0.35196184
637.35	0.35111649
637.547	0.35026718
637.744	0.34925585
637.941	0.34840555
638.138	0.34766023
638.334	0.346831
638.531	0.34607925
638.728	0.34522535
638.925	0.34442818
639.121	0.34364479
639.318	0.3427136
639.515	0.341667
639.711	0.34070909
639.908	0.33958622
640.105	0.33851444
640.301	0.33742957
640.498	0.33646589
640.695	0.3355653
640.891	0.33468045
641.088	0.33377199
641.284	0.33292912
641.481	0.33206422
641.677	0.33115891
641.874	0.33014282
642.07	0.32925668
642.267	0.32849603
642.463	0.32759895
642.66	0.32686834
642.856	0.32595899
643.053	0.32514333
643.249	0.32444893
643.445	0.3236461
643.642	0.32266973
643.838	0.32183932
644.034	0.32089969
644.231	0.31995777
644.427	0.31912379
644.623	0.31820268
644.82	0.31738192
645.016	0.31653129
645.212	0.31556216
645.408	0.31469521
645.604	0.31401594
645.801	0.31315227
645.997	0.31215152
646.193	0.31116924
646.389	0.31039002
646.585	0.3096236
646.781	0.30879044
646.977	0.30799062
647.173	0.30712691
647.37	0.30644065
647.566	0.30566893
647.762	0.30489326
647.958	0.30418347
648.154	0.3033142
648.35	0.3024239
648.546	0.30155343
648.742	0.30078419
648.937	0.29978777
649.133	0.29886501
649.329	0.297943
649.525	0.29711302
649.721	0.29621457
649.917	0.29550496
650.113	0.29451568
650.309	0.29386964
650.504	0.2930261
650.7	0.29218171
650.896	0.29140594
651.092	0.29062304
651.287	0.28980762
651.483	0.28920144
651.679	0.28845125
651.875	0.28784485
652.07	0.28712189
652.266	0.28633122
652.462	0.28561021
652.657	0.28481358
652.853	0.28392794
653.048	0.28307206
653.244	0.28215744
653.44	0.28137534
653.635	0.28051817
653.831	0.27981446
654.026	0.27916198
654.222	0.27840648
654.417	0.27774931
654.613	0.27696565
654.808	0.27612251
655.004	0.27542779
655.199	0.27453717
655.394	0.27368574
655.59	0.27299335
655.785	0.27211874
655.98	0.27140185
656.176	0.27063469
656.371	0.27010679
656.566	0.26945948
656.762	0.26864972
656.957	0.26787417
657.152	0.26719052
657.348	0.26647016
657.543	0.26578551
657.738	0.26485205
657.933	0.26406186
658.128	0.26328719
658.324	0.26248187
658.519	0.2617018
658.714	0.26086312
658.909	0.2600449
659.104	0.25930556
659.299	0.25847199
659.494	0.25773003
659.689	0.2570074
659.884	0.25625051
660.079	0.25550571
660.274	0.25478384
660.469	0.25395461
660.664	0.25332175
660.859	0.25261616
661.054	0.25197559
661.249	0.25131522
661.444	0.25068224
661.639	0.25002916
661.834	0.24946113
662.029	0.24879527
662.224	0.24819867
662.418	0.24750538
662.613	0.24686026
662.808	0.24614558
663.003	0.2454722
663.198	0.24470421
663.392	0.24391327
663.587	0.24326441
663.782	0.24246786
663.977	0.24165424
664.171	0.24098076
664.366	0.24024994
664.561	0.23966253
664.755	0.23905452
664.95	0.23837146
665.144	0.23777328
665.339	0.23726138
665.534	0.23664771
665.728	0.23606983
665.923	0.23537237
666.117	0.23475543
666.312	0.23407571
666.506	0.2335133
666.701	0.23279176
666.895	0.23219528
667.09	0.23156529
667.284	0.23105938
667.479	0.2303712
667.673	0.22978419
667.867	0.22914883
668.062	0.22854918
668.256	0.22790664
668.45	0.22740356
668.645	0.22677929
668.839	0.22626369
669.033	0.2255899
669.228	0.22502065
669.422	0.22451033
669.616	0.22394706
669.81	0.22338811
670.004	0.22287803
670.199	0.22239239
670.393	0.22194944
670.587	0.22135629
670.781	0.22069204
670.975	0.22009465
671.169	0.21936669
671.363	0.21861749
671.558	0.21798127
671.752	0.21736028
671.946	0.21684564
672.14	0.21633479
672.334	0.21570441
672.528	0.2152129
672.722	0.21460819
672.916	0.21401391
673.11	0.21335938
673.304	0.21278284
673.497	0.2121585
673.691	0.21164154
673.885	0.21100177
674.079	0.21053523
674.273	0.20986387
674.467	0.20932409
674.661	0.20868959
674.854	0.20816806
675.048	0.20769201
675.242	0.20727227
675.436	0.2068263
675.629	0.20643276
675.823	0.20592731
676.017	0.2055044
676.211	0.20503518
676.404	0.20455303
676.598	0.20408475
676.792	0.20362393
676.985	0.20318988
677.179	0.20276676
677.372	0.20221679
677.566	0.20168195
677.76	0.2010721
677.953	0.20043838
678.147	0.19986422
678.34	0.19939158
678.534	0.19888307
678.727	0.19851554
678.921	0.1981957
679.114	0.19787988
679.307	0.19752678
679.501	0.1970918
679.694	0.19658655
679.888	0.19613736
680.081	0.19569737
680.274	0.19511227
680.468	0.19462828
680.661	0.19413384
680.854	0.19377915
681.048	0.19333827
681.241	0.1927966
681.434	0.19222864
681.627	0.19172757
681.821	0.19121205
682.014	0.19080857
682.207	0.1901765
682.4	0.18967747
682.593	0.18934179
682.786	0.18896553
682.98	0.18860266
683.173	0.18825906
683.366	0.18790322
683.559	0.18762641
683.752	0.18728003
683.945	0.18691306
684.138	0.18652101
684.331	0.18606582
684.524	0.18560463
684.717	0.18504336
684.91	0.18459438
685.103	0.18421338
685.296	0.18378266
685.489	0.18333527
685.682	0.18294645
685.874	0.18258008
686.067	0.18216351
686.26	0.18181286
686.453	0.18138709
686.646	0.18096525
686.839	0.18067227
687.031	0.1804046
687.224	0.18004982
687.417	0.17996048
687.61	0.17964133
687.802	0.17937102
687.995	0.17910225
688.188	0.17884658
688.38	0.17851931
688.573	0.1782472
688.766	0.17782808
688.958	0.17741624
689.151	0.17699328
689.343	0.1766981
689.536	0.17625757
689.729	0.17587405
689.921	0.17548838
690.114	0.17503691
690.306	0.17467075
690.499	0.17437305
690.691	0.17398595
690.884	0.17366735
691.076	0.17337866
691.268	0.17305715
691.461	0.17280797
691.653	0.17267667
691.846	0.1724587
692.038	0.17221658
692.23	0.17189709
692.423	0.17159509
692.615	0.1713799
692.807	0.17112941
692.999	0.17080481
693.192	0.17049792
693.384	0.1702049
693.576	0.16998528
693.768	0.16981987
693.961	0.16952078
694.153	0.16933587
694.345	0.16916178
694.537	0.16903205
694.729	0.16893588
694.921	0.16874757
695.113	0.16848548
695.305	0.16818965
695.498	0.16778461
695.69	0.16742323
695.882	0.16699625
696.074	0.16655365
696.266	0.16621844
696.458	0.16589369
696.65	0.16572805
696.842	0.16563189
697.033	0.165493
697.225	0.1653284
697.417	0.16518783
697.609	0.16493254
697.801	0.16468072
697.993	0.16439646
698.185	0.16403704
698.376	0.16363226
698.568	0.16328785
698.76	0.16299274
698.952	0.1627854
699.144	0.16257957
699.335	0.16245081
699.527	0.16232238
699.719	0.16222829
699.91	0.16216668
700.102	0.16194861
700.294	0.16179458
700.485	0.16167829
700.677	0.16143859
700.869	0.16134091
701.06	0.16121372
701.252	0.16102574
701.443	0.16094599
701.635	0.16085621
701.826	0.16068588
702.018	0.16053419
702.209	0.16040288
702.401	0.16026923
702.592	0.1602338
702.784	0.16018127
702.975	0.1600958
703.166	0.16012148
703.358	0.16010147
703.549	0.16000373
703.741	0.15987313
703.932	0.15966463
704.123	0.15949449
704.315	0.1592958
704.506	0.15907512
704.697	0.15880261
704.888	0.15863912
705.08	0.15854034
705.271	0.15848036
705.462	0.15836076
705.653	0.15823524
705.844	0.15809008
706.035	0.15805687
706.227	0.15789956
706.418	0.15780197
706.609	0.15766633
706.8	0.15758602
706.991	0.1574736
707.182	0.15741426
707.373	0.15729733
707.564	0.15725951
707.755	0.15713397
707.946	0.15705867
708.137	0.15697778
708.328	0.15694065
708.519	0.15686798
708.71	0.15680407
708.901	0.15663447
709.092	0.15663509
709.283	0.15655081
709.473	0.15650051
709.664	0.1565111
709.855	0.15640873
710.046	0.15634265
710.237	0.15626383
710.427	0.15605527
710.618	0.15593831
710.809	0.15580083
711	0.15560501
711.19	0.15543564
711.381	0.15534017
711.572	0.15526125
711.762	0.1552755
711.953	0.15527024
712.144	0.15524694
712.334	0.15525342
712.525	0.15539307
712.715	0.15542906
712.906	0.1554379
713.097	0.15540622
713.287	0.15534429
713.478	0.15530535
713.668	0.15532356
713.859	0.15533693
714.049	0.15544702
714.239	0.15561981
714.43	0.15570091
714.62	0.15586332
714.811	0.15604669
715.001	0.1561595
715.191	0.15618758
715.382	0.15615747
715.572	0.15615566
715.762	0.15619392
715.953	0.1562106
716.143	0.15623907
716.333	0.15626672
716.523	0.1563414
716.714	0.15645016
716.904	0.15649841
717.094	0.15662316
717.284	0.15667529
717.474	0.15664462
717.664	0.15664175
717.855	0.15660746
718.045	0.15664803
718.235	0.15677587
718.425	0.15697091
718.615	0.15719544
718.805	0.1574605
718.995	0.15769855
719.185	0.15793764
719.375	0.15810218
719.565	0.15822693
719.755	0.15818878
719.945	0.1581756
720.135	0.15822441
720.325	0.15823746
720.515	0.15833043
720.704	0.15842074
720.894	0.15851088
721.084	0.15858472
721.274	0.15871526
721.464	0.15874449
721.654	0.15889038
721.843	0.15896991
722.033	0.15910349
722.223	0.15924409
722.413	0.15950199
722.602	0.15966076
722.792	0.15985296
722.982	0.16000323
723.171	0.16017859
723.361	0.16031388
723.55	0.16046736
723.74	0.16049001
723.93	0.16058244
724.119	0.16071166
724.309	0.160871
724.498	0.16102217
724.688	0.16114018
724.877	0.16120445
725.067	0.16133783
725.256	0.16148841
725.446	0.1616789
725.635	0.16180231
725.825	0.16194218
726.014	0.16209432
726.203	0.1622775
726.393	0.16242227
726.582	0.16248551
726.771	0.16254557
726.961	0.16260329
727.15	0.16272019
727.339	0.16285349
727.529	0.16301439
727.718	0.16318035
727.907	0.16338155
728.096	0.16354983
728.286	0.16369609
728.475	0.16386496
728.664	0.16396361
728.853	0.16413015
729.042	0.16430083
729.231	0.16445389
729.42	0.16454607
729.609	0.16464244
729.799	0.16462922
729.988	0.16468875
730.177	0.16463438
730.366	0.16464504
730.555	0.16471931
730.744	0.16483285
730.933	0.16504085
731.122	0.1652528
731.31	0.16545147
731.499	0.16565666
731.688	0.1658376
731.877	0.16602648
732.066	0.16627082
732.255	0.1664864
732.444	0.16674487
732.632	0.16704499
732.821	0.16737738
733.01	0.16768975
733.199	0.16797291
733.388	0.168191
733.576	0.16845583
733.765	0.16865813
733.954	0.16882152
734.142	0.16892163
734.331	0.1690118
734.52	0.16909483
734.708	0.16912722
734.897	0.16910052
735.086	0.16919813
735.274	0.16930654
735.463	0.1694687
735.651	0.16967315
735.84	0.16989075
736.028	0.17015542
736.217	0.17046377
736.405	0.17069931
736.594	0.17096075
736.782	0.17120942
736.971	0.17147495
737.159	0.17169709
737.347	0.17200896
737.536	0.17219398
737.724	0.17237202
737.912	0.17252462
738.101	0.17275353
738.289	0.17293144
738.477	0.17325685
738.666	0.17346104
738.854	0.1737265
739.042	0.17393952
739.23	0.1741182
739.418	0.17425257
739.607	0.17449659
739.795	0.1746365
739.983	0.17482097
740.171	0.17500684
740.359	0.17529641
740.547	0.17566281
740.735	0.17599998
740.923	0.17624782
741.112	0.17652296
741.3	0.176793
741.488	0.17713103
741.676	0.17744166
741.864	0.17769113
742.052	0.17795828
742.239	0.17818783
742.427	0.17837548
742.615	0.17856296
742.803	0.17876557
742.991	0.1789381
743.179	0.1791782
743.367	0.17943704
743.555	0.17975952
743.742	0.18009514
743.93	0.18045381
744.118	0.18073744
744.306	0.18106346
744.494	0.18142132
744.681	0.18179154
744.869	0.18213613
745.057	0.18241199
745.244	0.18272973
745.432	0.18299046
745.62	0.18326635
745.807	0.18349447
745.995	0.18367134
746.182	0.18395037
746.37	0.18425585
746.558	0.18452635
746.745	0.1848788
746.933	0.18522727
747.12	0.18556172
747.308	0.18594935
747.495	0.18617645
747.683	0.18648221
747.87	0.1868349
748.057	0.18721888
748.245	0.18753694
748.432	0.18779785
748.62	0.18811735
748.807	0.18855408
748.994	0.18895657
749.182	0.18927599
749.369	0.18954137
749.556	0.18982468
749.743	0.19021831
749.931	0.19051374
750.118	0.1908263
750.305	0.19108274
750.492	0.1913786
750.68	0.19178247
750.867	0.19218281
751.054	0.19244257
751.241	0.19274931
751.428	0.19290562
751.615	0.19306264
751.802	0.19317736
751.989	0.19321316
752.176	0.19332027
752.363	0.19346515
752.55	0.19353072
752.737	0.19369841
752.924	0.19397194
753.111	0.19435482
753.298	0.1948107
753.485	0.19520797
753.672	0.19561175
753.859	0.19610728
754.046	0.19657341
754.233	0.19700698
754.42	0.19742814
754.606	0.19773362
754.793	0.1980402
754.98	0.19840384
755.167	0.19867557
755.353	0.19904086
755.54	0.19939111
755.727	0.19972176
755.914	0.20005355
756.1	0.20035272
756.287	0.20066241
756.474	0.20097952
756.66	0.20126948
756.847	0.20144653
757.033	0.20157581
757.22	0.20174351
757.407	0.20197368
757.593	0.20214744
757.78	0.2023657
757.966	0.20255419
758.153	0.20283089
758.339	0.20308966
758.526	0.20338673
758.712	0.20374204
758.898	0.20425474
759.085	0.20473264
759.271	0.2052799
759.458	0.20583579
759.644	0.20648102
759.83	0.20701083
760.017	0.20749537
760.203	0.2078772
760.389	0.20820135
760.576	0.20842694
760.762	0.20865293
760.948	0.20879525
761.134	0.20901906
761.32	0.20926083
761.507	0.20948297
761.693	0.20982479
761.879	0.21025994
762.065	0.2106792
762.251	0.21113233
762.437	0.21170453
762.623	0.21225409
762.809	0.21268222
762.995	0.21308666
763.181	0.21340595
763.367	0.21376347
763.553	0.21407141
763.739	0.21421358
763.925	0.21429485
764.111	0.21449763
764.297	0.21474641
764.483	0.21496071
764.669	0.21515374
764.855	0.21546995
765.041	0.21592071
765.227	0.21635951
765.412	0.21681967
765.598	0.21730825
765.784	0.21782288
765.97	0.21842304
766.156	0.21891219
766.341	0.21932839
766.527	0.21974731
766.713	0.2201768
766.898	0.22057475
767.084	0.22095517
767.27	0.22120324
767.455	0.22148889
767.641	0.22178447
767.827	0.22212255
768.012	0.22243069
768.198	0.22274867
768.383	0.22317547
768.569	0.22370711
768.754	0.22425001
768.94	0.2247116
769.125	0.22512238
769.311	0.2255265
769.496	0.22591739
769.682	0.22623086
769.867	0.22649487
770.052	0.22674123
770.238	0.22699193
770.423	0.22731986
770.608	0.22761104
770.794	0.22792268
770.979	0.2282295
771.164	0.22865584
771.35	0.22900008
771.535	0.2293866
771.72	0.22975634
771.905	0.23027678
772.09	0.23062099
772.276	0.23103082
772.461	0.23127906
772.646	0.23171378
772.831	0.23214181
773.016	0.23257394
773.201	0.23278935
773.386	0.23325773
773.571	0.23373756
773.756	0.2342301
773.941	0.23463293
774.126	0.23513351
774.311	0.23553572
774.496	0.23608266
774.681	0.23646668
774.866	0.23678162
775.051	0.23706321
775.236	0.23735272
775.421	0.23751538
775.606	0.23779313
775.791	0.23789651
775.976	0.23808727
776.16	0.2383161
776.345	0.23859343
776.53	0.23895376
776.715	0.23934717
776.899	0.23967052
777.084	0.24009977
777.269	0.24057266
777.454	0.24095507
777.638	0.24140039
777.823	0.24179822
778.008	0.24226391
778.192	0.24276819
778.377	0.24319315
778.561	0.2435397
778.746	0.24389346
778.931	0.24414645
779.115	0.24439667
779.3	0.24448767
779.484	0.24457497
779.669	0.24478743
779.853	0.24493683
780.037	0.24505489
780.222	0.24514381
780.406	0.24522035
780.591	0.24540135
780.775	0.24555546
780.959	0.24567639
781.144	0.24586132
781.328	0.24613366
781.512	0.24642081
781.697	0.24667417
781.881	0.24697644
782.065	0.24732045
782.249	0.24758015
782.434	0.24791422
782.618	0.24818579
782.802	0.24854481
782.986	0.24881839
783.17	0.24901591
783.354	0.24919659
783.539	0.24946728
783.723	0.24977374
783.907	0.25007394
784.091	0.25035882
784.275	0.250648
784.459	0.25087551
784.643	0.25119747
784.827	0.25146584
785.011	0.25146148
785.195	0.25150496
785.379	0.25153837
785.563	0.25172377
785.747	0.25190305
785.93	0.2520502
786.114	0.25205532
786.298	0.25207964
786.482	0.25213584
786.666	0.25232152
786.85	0.2524686
787.033	0.25275541
787.217	0.25302651
787.401	0.25347597
787.585	0.25396372
787.768	0.25446856
787.952	0.25476081
788.136	0.25500609
788.319	0.25523279
788.503	0.25542618
788.687	0.25565437
788.87	0.2558963
789.054	0.25607909
789.237	0.25640417
789.421	0.25673689
789.605	0.25710954
789.788	0.25748644
789.972	0.25779168
790.155	0.2581369
790.338	0.25852521
790.522	0.25884118
790.705	0.25911799
790.889	0.2593512
791.072	0.25965996
791.256	0.26005336
791.439	0.26043879
791.622	0.26077114
791.806	0.26120197
791.989	0.26163897
792.172	0.26204679
792.355	0.26229329
792.539	0.26244549
792.722	0.26257658
792.905	0.26266988
793.088	0.26276593
793.271	0.26293819
793.455	0.26314867
793.638	0.26349331
793.821	0.26387786
794.004	0.26431225
794.187	0.26491951
794.37	0.26544066
794.553	0.26589497
794.736	0.26617411
794.919	0.26651405
795.102	0.26677574
795.285	0.26711333
795.468	0.26734919
795.651	0.26758973
795.834	0.26792698
796.017	0.26835798
796.2	0.26874379
796.383	0.26920028
796.566	0.26962711
796.749	0.26997902
796.931	0.2703754
797.114	0.2707053
797.297	0.27110053
797.48	0.27144439
797.663	0.2717497
797.845	0.27202655
798.028	0.27243713
798.211	0.27270064
798.393	0.27298095
798.576	0.2732552
798.759	0.27346516
798.941	0.27384468
799.124	0.27424707
799.307	0.27453891
799.489	0.27493825
799.672	0.27530518
799.854	0.27562146
800.037	0.27605518
800.219	0.27635624
800.402	0.27662108
800.584	0.27694008
800.767	0.27734519
800.949	0.27773485
801.132	0.27817537
801.314	0.278469
801.496	0.27885155
801.679	0.27920067
801.861	0.27950195
802.043	0.27966417
802.226	0.27989524
802.408	0.28002987
802.59	0.28026334
802.772	0.28039882
802.955	0.28061236
803.137	0.28079915
803.319	0.28101383
803.501	0.28111847
803.684	0.28130913
803.866	0.28145779
804.048	0.28166658
804.23	0.28191027
804.412	0.28225969
804.594	0.28248902
804.776	0.28293376
804.958	0.28323
805.14	0.28347547
805.322	0.28358587
805.504	0.28368357
805.686	0.28370069
805.868	0.28382738
806.05	0.28387031
806.232	0.28399333
806.414	0.28421287
806.596	0.28449205
806.778	0.28464159
806.96	0.28487559
807.141	0.28499295
807.323	0.28495756
807.505	0.28488425
807.687	0.28478505
807.869	0.28469998
808.05	0.28459949
808.232	0.28444629
808.414	0.28447135
808.595	0.28454744
808.777	0.28464401
808.959	0.2847507
809.14	0.28488309
809.322	0.28505954
809.504	0.28529813
809.685	0.28553243
809.867	0.28581107
810.048	0.28599622
810.23	0.28616685
810.411	0.28633885
810.593	0.28655576
810.774	0.28658454
810.956	0.28649218
811.137	0.28635856
811.319	0.28641334
811.5	0.28649683
811.681	0.28656976
811.863	0.28656664
812.044	0.28669532
812.225	0.28700047
812.407	0.28729538
812.588	0.28747954
812.769	0.28764765
812.951	0.28771725
813.132	0.28787408
813.313	0.2880026
813.494	0.28804718
813.675	0.28816293
813.857	0.28828464
814.038	0.28840883
814.219	0.28857414
814.4	0.2886892
814.581	0.28894193
814.762	0.28904422
814.943	0.28917439
815.124	0.28929784
815.305	0.28946817
815.486	0.28971941
815.667	0.29002578
815.848	0.29018145
816.029	0.29034571
816.21	0.29059478
816.391	0.2909685
816.572	0.29114742
816.753	0.29133576
816.934	0.2913785
817.115	0.29152808
817.295	0.29184328
817.476	0.29193596
817.657	0.29207539
817.838	0.29240289
818.019	0.29263692
818.199	0.29302753
818.38	0.29329219
818.561	0.29348864
818.741	0.29375372
818.922	0.29387184
819.103	0.29399092
819.283	0.29422977
819.464	0.29439251
819.645	0.29460355
819.825	0.29481109
820.006	0.29507348
820.186	0.29542109
820.367	0.29571476
820.547	0.29571745
820.728	0.29580986
820.908	0.29591762
821.089	0.29619332
821.269	0.29644311
821.45	0.29671377
821.63	0.29690137
821.81	0.2973581
821.991	0.29782479
822.171	0.2982967
822.351	0.29851647
822.532	0.29882886
822.712	0.29913003
822.892	0.2995145
823.072	0.29980366
823.253	0.29994515
823.433	0.29999924
823.613	0.30020947
823.793	0.30039351
823.973	0.30056411
824.154	0.30066056
824.334	0.30077609
824.514	0.30101953
824.694	0.30134167
824.874	0.30162543
825.054	0.30188314
825.234	0.30196606
825.414	0.30222672
825.594	0.30254722
825.774	0.30283368
825.954	0.30312716
826.134	0.30339941
826.314	0.30364547
826.494	0.30406671
826.674	0.30413098
826.854	0.30409083
827.033	0.30410573
827.213	0.30416517
827.393	0.30418901
827.573	0.30427222
827.753	0.30436317
827.932	0.30467987
828.112	0.30501835
828.292	0.30534301
828.472	0.30547566
828.651	0.30568999
828.831	0.30565168
829.011	0.30569342
829.19	0.30557708
829.37	0.30567751
829.549	0.30575714
829.729	0.30600039
829.909	0.30624133
830.088	0.30669157
830.268	0.30693247
830.447	0.30740705
830.627	0.30776295
830.806	0.3080106
830.986	0.30819719
831.165	0.30848793
831.344	0.30873422
831.524	0.30892181
831.703	0.30905334
831.883	0.30916701
832.062	0.30941915
832.241	0.30958797
832.421	0.3095879
832.6	0.30958005
832.779	0.30971712
832.958	0.3098048
833.138	0.30986947
833.317	0.309915
833.496	0.31009018
833.675	0.31022513
833.854	0.3104203
834.034	0.31049678
834.213	0.31057458
834.392	0.31064292
834.571	0.31054797
834.75	0.31050592
834.929	0.31055236
835.108	0.31036303
835.287	0.31045379
835.466	0.31045321
835.645	0.31062695
835.824	0.31083852
836.003	0.31092617
836.182	0.3110601
836.361	0.31120551
836.54	0.31101331
836.719	0.31102405
836.897	0.31083373
837.076	0.31077374
837.255	0.31076347
837.434	0.31074652
837.613	0.31090863
837.791	0.31118703
837.97	0.31149358
838.149	0.31165495
838.328	0.31176746
838.506	0.31183525
838.685	0.31193353
838.864	0.31204813
839.042	0.31207231
839.221	0.31208283
839.4	0.31230718
839.578	0.31244163
839.757	0.31259026
839.935	0.31278296
840.114	0.31296011
840.292	0.31325829
840.471	0.31350392
840.649	0.3136483
840.828	0.31378522
841.006	0.31393199
841.185	0.31392308
841.363	0.31402305
841.541	0.31410257
841.72	0.31421177
841.898	0.31421367
842.076	0.31435438
842.255	0.3144897
842.433	0.31461746
842.611	0.31453826
842.789	0.31452167
842.968	0.31449097
843.146	0.3145003
843.324	0.31447393
843.502	0.3145728
843.68	0.31466469
843.859	0.3148169
844.037	0.31485584
844.215	0.31484844
844.393	0.31487221
844.571	0.31490015
844.749	0.31483278
844.927	0.31482707
845.105	0.31474587
845.283	0.3148036
845.461	0.31490569
845.639	0.31514978
845.817	0.31527718
845.995	0.31561098
846.173	0.31585696
846.351	0.31599521
846.529	0.31611923
846.706	0.31605244
846.884	0.31596492
847.062	0.31571766
847.24	0.31533753
847.418	0.31496527
847.595	0.31481299
847.773	0.31458369
847.951	0.31461439
848.129	0.31466523
848.306	0.31502766
848.484	0.31519429
848.662	0.31555277
848.839	0.31593227
849.017	0.31640766
849.194	0.31666356
849.372	0.31690864
849.549	0.31701755
849.727	0.31728721
849.905	0.31726654
850.082	0.31704996
850.26	0.31679498
850.437	0.31666078
850.614	0.31649394
850.792	0.31633761
850.969	0.31617928
851.147	0.31620321
851.324	0.31613418
851.501	0.31604157
851.679	0.31583106
851.856	0.31565807
852.033	0.31557222
852.211	0.31542598
852.388	0.31521632
852.565	0.31535897
852.742	0.31548314
852.92	0.31564931
853.097	0.31576499
853.274	0.31582257
853.451	0.31563778
853.628	0.31562465
853.805	0.3154762
853.982	0.31532714
854.159	0.3152018
854.336	0.31508303
854.514	0.31499991
854.691	0.31507869
854.868	0.31506487
855.045	0.31507404
855.221	0.31511701
855.398	0.31508803
855.575	0.31501595
855.752	0.31497295
855.929	0.31508322
856.106	0.31495907
856.283	0.31487799
856.46	0.31471055
856.637	0.31475435
856.813	0.31474358
856.99	0.31478698
857.167	0.3148048
857.344	0.31499788
857.52	0.31507963
857.697	0.31504875
857.874	0.31489445
858.05	0.31491027
858.227	0.31478603
858.404	0.31467049
858.58	0.3146995
858.757	0.31460308
858.933	0.31474806
859.11	0.31486779
859.287	0.31473986
859.463	0.31476929
859.64	0.31481731
859.816	0.31469873
859.993	0.31478191
860.169	0.31489944
860.345	0.31491114
860.522	0.31502163
860.698	0.31479124
860.875	0.31456079
861.051	0.31442743
861.227	0.31407801
861.404	0.31380125
861.58	0.31360986
861.756	0.31360532
861.932	0.31382742
862.109	0.31377254
862.285	0.31375315
862.461	0.31394282
862.637	0.31384611
862.813	0.31387293
862.99	0.31359687
863.166	0.31329465
863.342	0.31335836
863.518	0.31305819
863.694	0.31285363
863.87	0.31265365
864.046	0.312358
864.222	0.31234494
864.398	0.31219219
864.574	0.31181713
864.75	0.3118114
864.926	0.31177347
865.102	0.31190187
865.278	0.31182771
865.454	0.31177868
865.63	0.31171768
865.805	0.31172279
865.981	0.31177737
866.157	0.31176387
866.333	0.31151478
866.509	0.31168806
866.684	0.31158616
866.86	0.31175831
867.036	0.31189728
867.212	0.31173699
867.387	0.311682
867.563	0.31181837
867.739	0.31163215
867.914	0.31172632
868.09	0.31161206
868.265	0.31139164
868.441	0.311284
868.617	0.3111539
868.792	0.31096571
868.968	0.31087375
869.143	0.31072439
869.319	0.31064802
869.494	0.31047878
869.67	0.31046535
869.845	0.31031952
870.02	0.31023253
870.196	0.31019234
870.371	0.3099087
870.546	0.30958655
870.722	0.30965954
870.897	0.30966757
871.072	0.30962051
871.248	0.30937687
871.423	0.30911309
871.598	0.3090039
871.773	0.30880581
871.949	0.30842169
872.124	0.30810432
872.299	0.30774855
872.474	0.30758642
872.649	0.30739041
872.824	0.3071754
872.999	0.30708154
873.174	0.30706104
873.349	0.30695731
873.524	0.30683986
873.699	0.30659232
873.874	0.30637668
874.049	0.30613579
874.224	0.30587137
874.399	0.30553509
874.574	0.30522501
874.749	0.30490869
874.924	0.30467855
875.099	0.30443805
875.274	0.30433649
875.449	0.30433954
875.623	0.30427541
875.798	0.30405611
875.973	0.30384155
876.148	0.30355432
876.322	0.30329902
876.497	0.3030017
876.672	0.3026822
876.846	0.30253096
877.021	0.30234642
877.196	0.30204727
877.37	0.30203996
877.545	0.30216262
877.72	0.30211386
877.894	0.30201897
878.069	0.3016927
878.243	0.30139673
878.418	0.30149456
878.592	0.30131304
878.767	0.30101751
878.941	0.30084331
879.116	0.30054381
879.29	0.30040863
879.464	0.30032946
879.639	0.30010847
879.813	0.30012585
879.987	0.29990513
880.162	0.2995546
880.336	0.29933954
880.51	0.29904923
880.685	0.29873211
880.859	0.2984812
881.033	0.29808534
881.207	0.29786477
881.381	0.297814
881.556	0.29780394
881.73	0.29762676
881.904	0.29770121
882.078	0.29749117
882.252	0.29728154
882.426	0.29708635
882.6	0.29700335
882.774	0.29693679
882.948	0.29709752
883.122	0.29682551
883.296	0.29667386
883.47	0.29659593
883.644	0.29661029
883.818	0.29630236
883.992	0.29596088
884.166	0.29583123
884.34	0.29576827
884.514	0.29594969
884.687	0.29587614
884.861	0.29557595
885.035	0.29546496
885.209	0.29538603
885.382	0.29497773
885.556	0.29466131
885.73	0.29439076
885.904	0.29420008
886.077	0.29402641
886.251	0.29389502
886.425	0.29386799
886.598	0.29389474
886.772	0.29385735
886.945	0.29348471
887.119	0.29315374
887.292	0.29291921
887.466	0.2928471
887.64	0.29241025
887.813	0.29197454
887.986	0.29168824
888.16	0.29156499
888.333	0.29137858
888.507	0.29126695
888.68	0.29087175
888.854	0.2905594
889.027	0.29038626
889.2	0.29019111
889.374	0.28981165
889.547	0.28965565
889.72	0.28950845
889.893	0.28908811
890.067	0.28878589
890.24	0.28836453
890.413	0.2879533
890.586	0.28774721
890.759	0.28764139
890.933	0.28735114
891.106	0.28732267
891.279	0.2873107
891.452	0.28732873
891.625	0.28726873
891.798	0.28712943
891.971	0.28678894
892.144	0.28648674
892.317	0.28627573
892.49	0.28584044
892.663	0.28558806
892.836	0.28544088
893.009	0.28525671
893.182	0.28488061
893.355	0.28466541
893.527	0.28444634
893.7	0.28457475
893.873	0.28427857
894.046	0.28384396
894.219	0.28360494
894.391	0.28336425
894.564	0.28314023
894.737	0.28280421
894.91	0.28239791
895.082	0.28223107
895.255	0.28202616
895.428	0.28174698
895.6	0.28173811
895.773	0.28150049
895.945	0.28136634
896.118	0.28115152
896.291	0.28091175
896.463	0.28076088
896.636	0.28048016
896.808	0.28010649
896.981	0.27995344
897.153	0.27960603
897.326	0.27931504
897.498	0.27888069
897.67	0.278549
897.843	0.27838857
898.015	0.27817235
898.187	0.27767038
898.36	0.27720671
898.532	0.27665527
898.704	0.27644171
898.877	0.27603655
899.049	0.27569432
899.221	0.27549974
899.393	0.275356
899.566	0.27536967
899.738	0.2755826
899.91	0.27549441
900.082	0.27564372
900.254	0.27563071
900.426	0.2755534
900.598	0.27553498
900.77	0.27523731
900.942	0.27477561
901.114	0.27438377
901.286	0.27373212
901.458	0.27324455
901.63	0.27269864
901.802	0.27227284
901.974	0.27203137
902.146	0.27181995
902.318	0.27169367
902.49	0.27156802
902.662	0.27134817
902.834	0.27110042
903.005	0.27099563
903.177	0.27060729
903.349	0.27042634
903.521	0.27005833
903.693	0.2699487
903.864	0.26976631
904.036	0.26969131
904.208	0.26921572
904.379	0.26909256
904.551	0.2688448
904.723	0.26848851
904.894	0.2678156
905.066	0.26725324
905.237	0.26664782
905.409	0.26611903
905.58	0.26567855
905.752	0.26519984
905.923	0.26493338
906.095	0.26486274
906.266	0.26471662
906.438	0.26464548
906.609	0.26467184
906.78	0.26444362
906.952	0.26433676
907.123	0.26401112
907.295	0.26379634
907.466	0.26359859
907.637	0.26333713
907.808	0.26295185
907.98	0.26255807
908.151	0.26220427
908.322	0.26204791
908.493	0.261721
908.665	0.26140217
908.836	0.26105127
909.007	0.2609404
909.178	0.260781
909.349	0.26053384
909.52	0.26044429
909.691	0.26010708
909.862	0.25992818
910.033	0.25976509
910.204	0.25944169
910.375	0.2593579
910.546	0.25911604
910.717	0.25855335
910.888	0.25851785
911.059	0.25812562
911.23	0.2578241
911.401	0.2575095
911.572	0.25714054
911.742	0.25684697
911.913	0.25676682
912.084	0.25643466
912.255	0.25622174
912.426	0.25573384
912.596	0.25534899
912.767	0.25514662
912.938	0.25488312
913.108	0.25474417
913.279	0.25436151
913.45	0.25412539
913.62	0.25416778
913.791	0.25413416
913.962	0.25395222
914.132	0.25371684
914.303	0.25322759
914.473	0.25305699
914.644	0.2526857
914.814	0.25221241
914.985	0.25177285
915.155	0.25120947
915.326	0.25070488
915.496	0.25030837
915.666	0.24987451
915.837	0.24961604
916.007	0.24912681
916.177	0.24867102
916.348	0.24845161
916.518	0.24826925
916.688	0.24798031
916.858	0.24775772
917.029	0.24741182
917.199	0.24723023
917.369	0.2471617
917.539	0.24696973
917.709	0.24665812
917.88	0.24628956
918.05	0.24578156
918.22	0.24548165
918.39	0.24519991
918.56	0.24479951
918.73	0.24450653
918.9	0.24420376
919.07	0.2440133
919.24	0.24393895
919.41	0.24383798
919.58	0.24353732
919.75	0.24327835
919.92	0.24276376
920.09	0.24250482
920.26	0.24211505
920.429	0.24188198
920.599	0.24147254
920.769	0.24123419
920.939	0.24099767
921.109	0.24088668
921.278	0.24060885
921.448	0.24050274
921.618	0.24017518
921.787	0.23981361
921.957	0.23941206
922.127	0.23890704
922.296	0.23870513
922.466	0.23833981
922.636	0.23806372
922.805	0.23762973
922.975	0.23714561
923.144	0.23667361
923.314	0.23610117
923.483	0.23534898
923.653	0.23471181
923.822	0.23409095
923.992	0.23369324
924.161	0.23350451
924.331	0.2333187
924.5	0.23325375
924.669	0.23302966
924.839	0.23286677
925.008	0.23260222
925.177	0.23223087
925.347	0.23193507
925.516	0.23152508
925.685	0.23119642
925.854	0.23095277
926.023	0.23078814
926.193	0.23070134
926.362	0.2304552
926.531	0.23027408
926.7	0.23005664
926.869	0.22984438
927.038	0.22940866
927.207	0.22913309
927.376	0.22865853
927.545	0.22828722
927.715	0.22794127
927.884	0.22780959
928.052	0.22783783
928.221	0.2277165
928.39	0.22742409
928.559	0.22731135
928.728	0.22732582
928.897	0.22724409
929.066	0.22688548
929.235	0.22644745
929.404	0.22630406
929.572	0.22602432
929.741	0.22571494
929.91	0.22542974
930.079	0.22472594
930.247	0.22438841
930.416	0.22408449
930.585	0.2237145
930.753	0.22351843
930.922	0.2233116
931.091	0.22313313
931.259	0.22303855
931.428	0.2230748
931.596	0.22276953
931.765	0.22287367
931.934	0.22279151
932.102	0.22221587
932.27	0.22193793
932.439	0.2216276
932.607	0.22119923
932.776	0.22114004
932.944	0.22056588
933.113	0.22000246
933.281	0.21974315
933.449	0.21909304
933.618	0.21871507
933.786	0.21834898
933.954	0.21790067
934.123	0.21743314
934.291	0.21717119
934.459	0.21698924
934.627	0.21686182
934.795	0.21664027
934.964	0.2163675
935.132	0.2157373
935.3	0.215323
935.468	0.2148497
935.636	0.21465534
935.804	0.21416528
935.972	0.21388638
936.14	0.21355021
936.308	0.21346392
936.476	0.21360283
936.644	0.21335456
936.812	0.21324647
936.98	0.21321433
937.148	0.21301955
937.316	0.21248676
937.484	0.21253902
937.652	0.21196419
937.82	0.2123886
937.987	0.21191237
938.155	0.21186034
938.323	0.21161333
938.491	0.21160923
938.658	0.21158979
938.826	0.21143717
938.994	0.21122655
939.162	0.21092785
939.329	0.21059439
939.497	0.21100127
939.665	0.21085384
939.832	0.21065977
940	0.21032363
940.167	0.20940795
940.335	0.20917203
940.502	0.20847306
940.67	0.20760033
940.837	0.20778079
941.005	0.2070136
941.172	0.20772575
941.34	0.20822283
941.507	0.20873181
941.674	0.20925672
941.842	0.2088236
942.009	0.2092004
942.177	0.20776204
942.344	0.20711339
942.511	0.20612007
942.678	0.2058976
942.846	0.20444942
943.013	0.20489659
943.18	0.20409681
943.347	0.20523681
943.514	0.20487114
943.682	0.20626279
943.849	0.20459867
944.016	0.20435506
944.183	0.20476377
944.35	0.20485651
944.517	0.20524094
944.684	0.20529091
944.851	0.20149226
945.018	0.20236441
945.185	0.20185997
945.352	0.19983135
945.519	0.19917175
945.686	0.19734016
945.853	0.19776259
946.02	0.19843371
946.187	0.19680555
946.353	0.19771052
946.52	0.19745446
946.687	0.19595679
946.854	0.19632494
947.021	0.19450266
947.187	0.19376268
947.354	0.1929361
947.521	0.19220244
947.687	0.19187509
947.854	0.19231249
948.021	0.19071335
948.187	0.19056156
948.354	0.19045587
948.52	0.19078815
948.687	0.19131444
948.854	0.1917507
949.02	0.19072499
949.187	0.19135831
949.353	0.19052508
949.52	0.18949493
949.686	0.18915977
949.852	0.18863075
950.019	0.18824264
950.185	0.18811382
950.352	0.18730103
950.518	0.18612564
950.684	0.18672072
950.851	0.18609378
951.017	0.18456612
951.183	0.18399251
951.349	0.18336219
951.516	0.18285599
951.682	0.18391035
951.848	0.18287336
952.014	0.18235584
952.18	0.18172204
952.346	0.18089289
952.512	0.18036661
952.679	0.18048734
952.845	0.17970604
953.011	0.17934039
953.177	0.17898732
953.343	0.17894445
953.509	0.17900437
953.675	0.178709
953.841	0.17831468
954.007	0.17836348
954.172	0.1787851
954.338	0.17807632
954.504	0.17721055
954.67	0.17609724
954.836	0.17612898
955.002	0.17576159
955.167	0.1748096
955.333	0.17339534
955.499	0.1733532
955.665	0.17324377
955.83	0.17310948
955.996	0.17241504
956.162	0.17126164
956.327	0.17075915
956.493	0.17057638
956.659	0.17059859
956.824	0.17019488
956.99	0.16951815
957.155	0.16922906
957.321	0.16932425
957.486	0.1687103
957.652	0.16816058
957.817	0.16791156
957.983	0.16730144
958.148	0.16715938
958.314	0.16670878
958.479	0.16603712
958.644	0.166151
958.81	0.16629045
958.975	0.16557209
959.14	0.16578437
959.306	0.1652371
959.471	0.16477893
959.636	0.1644452
959.801	0.16456775
959.967	0.16410953
960.132	0.16411112
960.297	0.16376779
960.462	0.16439565
960.627	0.16441225
960.792	0.1640945
960.957	0.16370386
961.123	0.16372625
961.288	0.1630057
961.453	0.16284664
961.618	0.16225714
961.783	0.16226735
961.948	0.16211598
962.113	0.16139524
962.277	0.16083048
962.442	0.16092783
962.607	0.16062181
962.772	0.16006777
962.937	0.15916264
963.102	0.15880527
963.267	0.15847202
963.431	0.158281
963.596	0.15781126
963.761	0.15732184
963.926	0.15718116
964.09	0.15714371
964.255	0.15726413
964.42	0.15727242
964.584	0.15724232
964.749	0.15706581
964.914	0.15683812
965.078	0.15643879
965.243	0.15613564
965.407	0.15543069
965.572	0.15493636
965.736	0.15463153
965.901	0.15457824
966.065	0.15474426
966.23	0.15434099
966.394	0.15433803
966.559	0.15418603
966.723	0.1542453
966.887	0.15380708
967.052	0.15312586
967.216	0.15221804
967.38	0.15164905
967.545	0.15123193
967.709	0.1511648
967.873	0.15108332
968.037	0.15076081
968.202	0.15093514
968.366	0.15117767
968.53	0.15171741
968.694	0.15143329
968.858	0.15123424
969.022	0.15055788
969.187	0.1504607
969.351	0.15028217
969.515	0.14998587
969.679	0.14941585
969.843	0.14924919
970.007	0.14879851
970.171	0.14872081
970.335	0.14818279
970.499	0.14763701
970.662	0.14754482
970.826	0.14754212
970.99	0.14753573
971.154	0.14759321
971.318	0.14716533
971.482	0.14693821
971.645	0.14687091
971.809	0.14652474
971.973	0.14585969
972.137	0.14519673
972.3	0.14494891
972.464	0.14527073
972.628	0.14542122
972.791	0.1452382
972.955	0.14490425
973.119	0.14482447
973.282	0.14470914
973.446	0.1439585
973.609	0.14327324
973.773	0.14267514
973.936	0.14208866
974.1	0.14167999
974.263	0.14130851
974.427	0.14073629
974.59	0.14035398
974.754	0.13980179
974.917	0.13962974
975.08	0.13932393
975.244	0.13894236
975.407	0.13859981
975.57	0.13838834
975.734	0.13835376
975.897	0.13827798
976.06	0.13777812
976.223	0.13768134
976.387	0.13769066
976.55	0.13725999
976.713	0.13696538
976.876	0.13686637
977.039	0.13640235
977.202	0.13631042
977.365	0.13594579
977.528	0.13552762
977.692	0.13542387
977.855	0.13481895
978.018	0.13450208
978.181	0.13452913
978.344	0.13395817
978.506	0.13357593
978.669	0.13350007
978.832	0.13328984
978.995	0.13335425
979.158	0.13328608
979.321	0.13279574
979.484	0.13290357
979.646	0.1330965
979.809	0.13280507
979.972	0.13269826
980.135	0.13279746
980.297	0.13245638
980.46	0.13232975
980.623	0.13234057
980.786	0.13194101
980.948	0.13174836
981.111	0.13138194
981.273	0.13114242
981.436	0.13091407
981.599	0.13093013
981.761	0.13014776
981.924	0.13001172
982.086	0.12927687
982.249	0.12922525
982.411	0.12873885
982.573	0.12842033
982.736	0.12834716
982.898	0.12832542
983.061	0.12812091
983.223	0.12785686
983.385	0.12709754
983.548	0.12704795
983.71	0.12662
983.872	0.12639279
984.034	0.1260964
984.197	0.12526785
984.359	0.12576755
984.521	0.12601478
984.683	0.12588992
984.845	0.12603265
985.008	0.1253325
985.17	0.12542941
985.332	0.12579966
985.494	0.12505997
985.656	0.12468613
985.818	0.12414596
985.98	0.12370234
986.142	0.12332015
986.304	0.12246298
986.466	0.12175046
986.628	0.12182728
986.79	0.12172616
986.952	0.12139407
987.113	0.1212162
987.275	0.12098037
987.437	0.12102404
987.599	0.12073892
987.761	0.12038882
987.922	0.11983638
988.084	0.11994343
988.246	0.12008619
988.408	0.11989654
988.569	0.11960602
988.731	0.11999545
988.893	0.11985922
989.054	0.11998644
989.216	0.1197907
989.377	0.11911436
989.539	0.11909881
989.701	0.11893153
989.862	0.11863501
990.024	0.11808402
990.185	0.11754931
990.347	0.1171331
990.508	0.11704269
990.669	0.11701739
990.831	0.11716137
990.992	0.11707612
991.154	0.11695871
991.315	0.11775276
991.476	0.11776866
991.638	0.11802325
991.799	0.11737654
991.96	0.11694863
992.121	0.11669364
992.283	0.11632958
992.444	0.11529361
992.605	0.11487491
992.766	0.11425794
992.927	0.11414858
993.088	0.11461293
993.249	0.1142415
993.41	0.11415669
993.572	0.11405199
993.733	0.11420802
993.894	0.11399661
994.055	0.11326746
994.216	0.11227529
994.376	0.11147506
994.537	0.11152619
994.698	0.11128822
994.859	0.11064259
995.02	0.11043192
995.181	0.11017533
995.342	0.11011663
995.503	0.1097213
995.663	0.10885364
995.824	0.10823663
995.985	0.10886217
996.146	0.1080308
996.306	0.10824309
996.467	0.10821317
996.628	0.10848072
996.788	0.10893863
996.949	0.10925201
997.11	0.10846475
997.27	0.10835162
997.431	0.10784236
997.591	0.10667708
997.752	0.10645914
997.912	0.10631297
998.073	0.10551505
998.233	0.10517057
998.394	0.10501465
998.554	0.10559925
998.714	0.10601114
998.875	0.10509993
999.035	0.10395622
999.196	0.10429394
999.356	0.1040951
999.516	0.10396145
999.676	0.10431372
999.837	0.10407255
999.997	0.10439181
1000.157	0.1049666
1000.317	0.10411784
1000.477	0.10404351
1000.638	0.10329525
1000.798	0.10275649
1000.958	0.1031117
1001.118	0.10319937
1001.278	0.1025446
1001.438	0.10302173
1001.598	0.10254885
1001.758	0.10316647
1001.918	0.10269106
1002.078	0.10182284
1002.238	0.10208167
1002.398	0.10236044
1002.558	0.10185448
1002.718	0.10236869
1002.878	0.10221831
1003.037	0.10107857
1003.197	0.10146519
1003.357	0.10028293
1003.517	0.10034391
1003.677	0.09980857
1003.836	0.0987808
1003.996	0.09904406
1004.156	0.09929616
1004.315	0.09916097
1004.475	0.09945739
1004.635	0.09898276
1004.794	0.09914633
1004.954	0.09899385
1005.114	0.09831803
1005.273	0.09887993
1005.433	0.09782564
1005.592	0.09791575
1005.752	0.09801203
1005.911	0.09787726
1006.071	0.09816534
1006.23	0.09780588
1006.389	0.09709156
1006.549	0.09727902
1006.708	0.09638984
1006.868	0.09558895
1007.027	0.09621003
1007.186	0.09558883
1007.345	0.09610415
1007.505	0.09598235
1007.664	0.09584126
1007.823	0.09630776
1007.982	0.09638515
1008.142	0.09590412
1008.301	0.09630715
1008.46	0.09528667
1008.619	0.09475269
1008.778	0.0947557
1008.937	0.09478149
1009.096	0.09449731
1009.255	0.09409444
1009.414	0.09327701
1009.573	0.09375817
1009.732	0.09476674
1009.891	0.09484334
1010.05	0.09508689
1010.209	0.09498977
1010.368	0.09519152
1010.527	0.09590763
1010.686	0.09550935
1010.845	0.09411789
1011.003	0.09381807
1011.162	0.09289187
1011.321	0.09301495
1011.48	0.09375775
1011.638	0.09355398
1011.797	0.09425164
1011.956	0.09461575
1012.115	0.09487566
1012.273	0.09478323
1012.432	0.09429506
1012.59	0.09292602
1012.749	0.09271056
1012.908	0.09107474
1013.066	0.09114212
1013.225	0.09028659
1013.383	0.09029556
1013.542	0.0898481
1013.7	0.09019557
1013.859	0.09025189
1014.017	0.09076961
1014.175	0.09015414
1014.334	0.09048601
1014.492	0.09027463
1014.65	0.09105275
1014.809	0.09022385
1014.967	0.08931466
1015.125	0.08943701
1015.284	0.09030478
1015.442	0.0899698
1015.6	0.0898882
1015.758	0.0891823
1015.916	0.08940271
1016.075	0.08982553
1016.233	0.08903627
1016.391	0.08872753
1016.549	0.08824598
1016.707	0.08812272
1016.865	0.08762032
1017.023	0.08703281
1017.181	0.08653416
1017.339	0.08702104
1017.497	0.08641568
1017.655	0.08718279
1017.813	0.0883739
1017.971	0.08968289
1018.129	0.09010927
1018.286	0.08903442
1018.444	0.08849099
1018.602	0.08893256
1018.76	0.08874101
1018.918	0.08780429
1019.075	0.08708919
1019.233	0.08663831
1019.391	0.0879712
1019.549	0.08908239
1019.706	0.08929139
1019.864	0.09008664
1020.022	0.09093876
1020.179	0.09211342
1020.337	0.09201656
1020.494	0.09240168
1020.652	0.09110887
1020.809	0.09048065
1020.967	0.08878636
1021.124	0.08878413
1021.282	0.08848981
1021.439	0.08917622
1021.597	0.08823682
1021.754	0.08969037
1021.911	0.08991849
1022.069	0.08995782
1022.226	0.08779426
1022.384	0.08667115
1022.541	0.08572681
1022.698	0.08678382
1022.855	0.08508229
1023.013	0.0845458
1023.17	0.08336138
1023.327	0.08533933
1023.484	0.08576219
1023.641	0.08690959
1023.798	0.08687792
1023.956	0.08920592
1024.113	0.08923549
1024.27	0.09022066
1024.427	0.08858511
1024.584	0.08860484
1024.741	0.08878723
1024.898	0.0880086
1025.055	0.08536651
1025.212	0.08430475
1025.369	0.08457041
1025.525	0.08476891
1025.682	0.08611327
1025.839	0.08462432
1025.996	0.0867602
1026.153	0.08941694
1026.31	0.09134935
1026.466	0.09044586
1026.623	0.09163791
1026.78	0.08997202
1026.937	0.09225631
1027.093	0.08986156
1027.25	0.08963744
1027.407	0.08982643
1027.563	0.09209788
1027.72	0.09154481
1027.876	0.09108026
1028.033	0.08928479
1028.19	0.08980887
1028.346	0.0863687
1028.503	0.08558257
1028.659	0.08490071
1028.816	0.08375573
1028.972	0.08457216
1029.128	0.08688998
1029.285	0.08418121
1029.441	0.08612605
1029.598	0.08842755
1029.754	0.08998537
1029.91	0.0901293
1030.067	0.08723852
1030.223	0.08496912
1030.379	0.08604231
1030.535	0.09007237
1030.691	0.08842613
1030.848	0.08732753
1031.004	0.08768893
1031.16	0.09240831
1031.316	0.0945266
1031.472	0.09835257
1031.628	0.09305354
1031.784	0.09443382
1031.94	0.09672423
1032.096	0.09900598
1032.252	0.09660738
1032.408	0.09769038
1032.564	0.09505937
1032.72	0.09919552
1032.876	0.09537607
1033.032	0.09278847
1033.188	0.09048633
1033.344	0.09023948
1033.5	0.08690071
1033.655	0.0867659
1033.811	0.08266653
1033.967	0.08464555
