Data from 1_mm_pl_90pc_Absorbance__0__17-03-37-261.txt Node

Date: Wed Mar 08 17:03:37 CET 2023
User: Ange
Spectrometer: FLMT08341
Trigger mode: 0
Integration Time (sec): 1.000000E-2
Scans to average: 400
Electric dark correction enabled: true
Nonlinearity correction enabled: false
Boxcar width: 3
XAxis mode: Wavelengths
Number of Pixels in Spectrum: 3648
>>>>>Begin Spectral Data<<<<<
345.271	0.03053602
345.487	0.02422094
345.704	0.01389021
345.921	0.00980185
346.137	0.01335094
346.354	0.00051676
346.571	0.00428486
346.787	-0.03343426
347.004	0.00749146
347.22	-0.07328418
347.437	-0.04324398
347.653	0.11000049
347.87	-0.15065474
348.086	-0.0287842
348.303	-0.2199524
348.519	0.23269931
348.736	0.22471197
348.952	0.23090276
349.169	0.2421082
349.385	0.24647106
349.601	0.23981817
349.818	0.23465712
350.034	0.23187051
350.251	0.22932097
350.467	0.228438
350.683	0.2190198
350.9	0.21921674
351.116	0.2192866
351.332	0.21695075
351.549	0.22384312
351.765	0.22782234
351.981	0.23140666
352.197	0.23860436
352.414	0.24458074
352.63	0.24746573
352.846	0.25275969
353.062	0.24826954
353.278	0.2450183
353.495	0.2486528
353.711	0.24764093
353.927	0.24858313
354.143	0.24942406
354.359	0.24855462
354.575	0.2490061
354.792	0.25415562
355.008	0.2491845
355.224	0.24832344
355.44	0.24649044
355.656	0.24449758
355.872	0.24644057
356.088	0.25552112
356.304	0.25595175
356.52	0.25802578
356.736	0.26127268
356.952	0.26339596
357.168	0.26497316
357.384	0.26692427
357.6	0.26091875
357.816	0.26252238
358.032	0.26566361
358.248	0.26955555
358.464	0.27053063
358.679	0.27352585
358.895	0.27364769
359.111	0.27898447
359.327	0.2761169
359.543	0.27591027
359.759	0.27949019
359.974	0.27704105
360.19	0.27558295
360.406	0.27620631
360.622	0.27236075
360.838	0.27219636
361.053	0.27399492
361.269	0.27169732
361.485	0.27427883
361.701	0.2770501
361.916	0.27502447
362.132	0.27551603
362.348	0.27756567
362.563	0.27753463
362.779	0.2763908
362.995	0.27750696
363.21	0.27847091
363.426	0.27944153
363.641	0.27992974
363.857	0.2822112
364.073	0.2811692
364.288	0.28120311
364.504	0.28426471
364.719	0.28431514
364.935	0.2849968
365.15	0.28659494
365.366	0.28609613
365.581	0.28936277
365.797	0.29056916
366.012	0.28700013
366.228	0.28527362
366.443	0.28880356
366.658	0.28823612
366.874	0.28685888
367.089	0.28867416
367.305	0.28989754
367.52	0.29244455
367.735	0.29253196
367.951	0.28972797
368.166	0.29241134
368.381	0.29765553
368.597	0.29429721
368.812	0.29627006
369.027	0.29817374
369.243	0.29980618
369.458	0.30535118
369.673	0.30642215
369.888	0.30590263
370.104	0.30621175
370.319	0.30665287
370.534	0.30434692
370.749	0.30534034
370.964	0.30374012
371.179	0.30235215
371.395	0.30079659
371.61	0.30419716
371.825	0.2999918
372.04	0.3011064
372.255	0.2996693
372.47	0.29770951
372.685	0.29564512
372.9	0.29520283
373.115	0.29250832
373.33	0.29468439
373.545	0.29503624
373.76	0.29576207
373.975	0.29586763
374.19	0.29563636
374.405	0.2965098
374.62	0.29975121
374.835	0.30238564
375.05	0.30232469
375.265	0.30345064
375.48	0.30501274
375.695	0.30914152
375.91	0.30824111
376.125	0.30538097
376.339	0.30158082
376.554	0.30200086
376.769	0.30211227
376.984	0.30141123
377.199	0.30207144
377.414	0.30177576
377.628	0.3039618
377.843	0.30606791
378.058	0.3053544
378.273	0.30538823
378.487	0.30624016
378.702	0.30516077
378.917	0.30564802
379.131	0.3044167
379.346	0.30239766
379.561	0.30172154
379.775	0.30025958
379.99	0.298483
380.205	0.29626668
380.419	0.29463752
380.634	0.29256995
380.848	0.29335385
381.063	0.29353748
381.278	0.2953534
381.492	0.29440882
381.707	0.2957749
381.921	0.29602117
382.136	0.29743704
382.35	0.29694921
382.565	0.29515249
382.779	0.29450691
382.994	0.29469379
383.208	0.29346107
383.422	0.29449408
383.637	0.29439979
383.851	0.29465025
384.066	0.29582238
384.28	0.29577649
384.494	0.29553761
384.709	0.29613565
384.923	0.29572305
385.137	0.29421419
385.352	0.2940024
385.566	0.29445651
385.78	0.2930284
385.995	0.2916005
386.209	0.29089314
386.423	0.29109793
386.637	0.29137207
386.852	0.2892599
387.066	0.28801246
387.28	0.28749573
387.494	0.2886939
387.708	0.28809229
387.923	0.28637268
388.137	0.28676789
388.351	0.28748789
388.565	0.28792246
388.779	0.28740062
388.993	0.28839486
389.207	0.28829647
389.421	0.28836559
389.635	0.28674301
389.85	0.28629386
390.064	0.28618519
390.278	0.28573452
390.492	0.28447285
390.706	0.28410523
390.92	0.2837647
391.134	0.28426133
391.348	0.28523707
391.561	0.28345503
391.775	0.28264219
391.989	0.28116351
392.203	0.28071714
392.417	0.28063119
392.631	0.28137312
392.845	0.2794992
393.059	0.28006526
393.273	0.27986855
393.486	0.27914537
393.7	0.27775178
393.914	0.27756796
394.128	0.27568174
394.342	0.27504235
394.555	0.27285662
394.769	0.27198859
394.983	0.2719153
395.197	0.27216513
395.41	0.27139226
395.624	0.2712396
395.838	0.27063968
396.051	0.27158741
396.265	0.27060232
396.479	0.27022826
396.692	0.26924013
396.906	0.26788519
397.12	0.26672186
397.333	0.26688428
397.547	0.26590478
397.76	0.26628678
397.974	0.2655076
398.187	0.26541256
398.401	0.26554735
398.614	0.26585137
398.828	0.26492274
399.041	0.26448283
399.255	0.2638329
399.468	0.26340476
399.682	0.26254566
399.895	0.26242234
400.109	0.26096884
400.322	0.26006924
400.536	0.25924678
400.749	0.25940089
400.962	0.25883693
401.176	0.25826728
401.389	0.25723015
401.602	0.25619462
401.816	0.2560132
402.029	0.25569882
402.242	0.25428782
402.456	0.25359024
402.669	0.252526
402.882	0.25064553
403.095	0.25105924
403.309	0.24995485
403.522	0.24951802
403.735	0.2487411
403.948	0.24805557
404.161	0.24872938
404.375	0.24891914
404.588	0.24808812
404.801	0.2476719
405.014	0.24628766
405.227	0.2463699
405.44	0.24620658
405.653	0.24537058
405.866	0.24468784
406.079	0.24391001
406.293	0.24350305
406.506	0.24282314
406.719	0.24159957
406.932	0.24018273
407.145	0.23859113
407.358	0.23862758
407.571	0.23764002
407.784	0.23681495
407.996	0.23675997
408.209	0.23586484
408.422	0.23557709
408.635	0.2354887
408.848	0.23474262
409.061	0.23402327
409.274	0.23363772
409.487	0.23287762
409.7	0.23262951
409.912	0.23219411
410.125	0.23174006
410.338	0.23080137
410.551	0.23022807
410.764	0.22939365
410.976	0.22897847
411.189	0.22864156
411.402	0.22778644
411.615	0.22731876
411.827	0.2267063
412.04	0.22615733
412.253	0.22558353
412.465	0.22443939
412.678	0.22352431
412.891	0.22352434
413.103	0.2222212
413.316	0.22177035
413.529	0.22154773
413.741	0.22115343
413.954	0.22103283
414.166	0.22052158
414.379	0.21971534
414.591	0.21964621
414.804	0.21885141
415.016	0.21821865
415.229	0.21768378
415.441	0.21683806
415.654	0.21633184
415.866	0.21592254
416.079	0.21548214
416.291	0.21512545
416.504	0.21488385
416.716	0.21431652
416.928	0.21377426
417.141	0.21330995
417.353	0.21263018
417.566	0.2117302
417.778	0.21125083
417.99	0.21030559
418.203	0.2096595
418.415	0.20923034
418.627	0.20874574
418.839	0.20824621
419.052	0.20827667
419.264	0.20768404
419.476	0.20759597
419.688	0.20726137
419.901	0.20659614
420.113	0.20595091
420.325	0.2053274
420.537	0.20420809
420.749	0.20378263
420.961	0.20336618
421.174	0.20286785
421.386	0.20237506
421.598	0.20185013
421.81	0.20152924
422.022	0.20110589
422.234	0.20074076
422.446	0.19982566
422.658	0.1992108
422.87	0.19890567
423.082	0.19844547
423.294	0.19782138
423.506	0.19752702
423.718	0.19671719
423.93	0.1960842
424.142	0.19535305
424.354	0.19465715
424.566	0.19421843
424.778	0.19383994
424.99	0.19320498
425.202	0.1927228
425.414	0.19247823
425.625	0.19229231
425.837	0.19194579
426.049	0.19141715
426.261	0.19088083
426.473	0.19028831
426.684	0.18999809
426.896	0.18967152
427.108	0.18906957
427.32	0.18871184
427.531	0.18830434
427.743	0.18786344
427.955	0.1878787
428.167	0.18712731
428.378	0.1864111
428.59	0.18606422
428.802	0.18544993
429.013	0.18511519
429.225	0.18459417
429.436	0.18409546
429.648	0.18424754
429.86	0.18413303
430.071	0.18386605
430.283	0.18367769
430.494	0.18319605
430.706	0.18287104
430.917	0.18229163
431.129	0.18170449
431.34	0.18118934
431.552	0.18074846
431.763	0.18019402
431.975	0.17987381
432.186	0.17929405
432.398	0.17910462
432.609	0.17825247
432.821	0.17789964
433.032	0.17755378
433.243	0.17719329
433.455	0.17671388
433.666	0.17658052
433.877	0.17616425
434.089	0.17597249
434.3	0.17550051
434.511	0.17476921
434.723	0.174307
434.934	0.1737257
435.145	0.17308312
435.356	0.17257163
435.568	0.1722738
435.779	0.17185938
435.99	0.17143135
436.201	0.17118427
436.412	0.17089462
436.624	0.17078753
436.835	0.17039547
437.046	0.17013234
437.257	0.16977108
437.468	0.16970663
437.679	0.16936787
437.89	0.16903232
438.101	0.16872236
438.312	0.16854544
438.523	0.16806616
438.734	0.16768879
438.945	0.16726437
439.156	0.16673215
439.367	0.16651328
439.578	0.16617434
439.789	0.16564066
440	0.16541887
440.211	0.16499014
440.422	0.16471105
440.633	0.16444452
440.844	0.16392081
441.055	0.16335648
441.266	0.16299631
441.477	0.16247914
441.687	0.1621097
441.898	0.16163535
442.109	0.16111832
442.32	0.16068024
442.531	0.16012018
442.741	0.15949586
442.952	0.15902644
443.163	0.15863387
443.374	0.15830191
443.584	0.15789354
443.795	0.15761125
444.006	0.15744559
444.216	0.15710107
444.427	0.15670969
444.638	0.15644005
444.848	0.15603228
445.059	0.15571709
445.27	0.15530352
445.48	0.15469663
445.691	0.15449173
445.901	0.15432825
446.112	0.15397376
446.323	0.1536003
446.533	0.15321238
446.744	0.15295409
446.954	0.15280596
447.165	0.15251822
447.375	0.15222233
447.586	0.15199047
447.796	0.15172817
448.006	0.15158609
448.217	0.15125106
448.427	0.15094313
448.638	0.1505377
448.848	0.15016811
449.058	0.14975904
449.269	0.1495463
449.479	0.14921803
449.689	0.1489198
449.9	0.14877177
450.11	0.14856222
450.32	0.14843032
450.531	0.14829907
450.741	0.14787573
450.951	0.14765073
451.161	0.14750676
451.372	0.14712364
451.582	0.14713733
451.792	0.14667383
452.002	0.146338
452.212	0.1459785
452.422	0.1458182
452.633	0.14557344
452.843	0.1456136
453.053	0.1450524
453.263	0.14494702
453.473	0.14463825
453.683	0.14476784
453.893	0.14454529
454.103	0.14447045
454.313	0.14424829
454.523	0.14431238
454.733	0.1442073
454.943	0.14433031
455.153	0.14411533
455.363	0.14384194
455.573	0.14360803
455.783	0.14344674
455.993	0.14316933
456.203	0.14306437
456.413	0.1428156
456.623	0.14262909
456.833	0.14269845
457.042	0.14249729
457.252	0.14235707
457.462	0.14227882
457.672	0.14215245
457.882	0.14192195
458.091	0.14180498
458.301	0.14156636
458.511	0.14150757
458.721	0.14130282
458.931	0.14120645
459.14	0.14108372
459.35	0.14111921
459.56	0.14107461
459.769	0.14120224
459.979	0.14120293
460.189	0.14119417
460.398	0.14111617
460.608	0.1412155
460.817	0.14113098
461.027	0.14118414
461.237	0.14099923
461.446	0.14086482
461.656	0.14092748
461.865	0.14085156
462.075	0.14076682
462.284	0.14076791
462.494	0.14063721
462.703	0.1406544
462.913	0.14078883
463.122	0.14076746
463.332	0.14081328
463.541	0.14084019
463.751	0.14088801
463.96	0.14097984
464.169	0.1409711
464.379	0.14106956
464.588	0.1411317
464.797	0.14131836
465.007	0.14141492
465.216	0.14161693
465.425	0.14177951
465.635	0.14201008
465.844	0.14205154
466.053	0.14223244
466.263	0.14236163
466.472	0.14235232
466.681	0.14231371
466.89	0.1422918
467.099	0.14235787
467.309	0.14243567
467.518	0.14256122
467.727	0.1427272
467.936	0.14291235
468.145	0.14319821
468.354	0.14350669
468.563	0.14363262
468.772	0.14366738
468.982	0.14372113
469.191	0.14387065
469.4	0.14403219
469.609	0.14407675
469.818	0.14419294
470.027	0.14446334
470.236	0.14480043
470.445	0.14506514
470.654	0.14515599
470.863	0.14537688
471.072	0.14559362
471.28	0.14578883
471.489	0.14607241
471.698	0.14631399
471.907	0.14656098
472.116	0.14694869
472.325	0.14727419
472.534	0.14774758
472.743	0.14812317
472.951	0.14837439
473.16	0.14873219
473.369	0.14900146
473.578	0.14926786
473.786	0.1496104
473.995	0.14994686
474.204	0.15027585
474.413	0.15055911
474.621	0.15095802
474.83	0.15150546
475.039	0.15184406
475.247	0.15219759
475.456	0.15247033
475.665	0.15287798
475.873	0.15329961
476.082	0.15352422
476.291	0.15386211
476.499	0.1544073
476.708	0.15482407
476.916	0.15542414
477.125	0.155868
477.333	0.15642849
477.542	0.15707114
477.75	0.15744659
477.959	0.15791455
478.167	0.15841325
478.376	0.15873097
478.584	0.15918089
478.793	0.15963359
479.001	0.16018574
479.209	0.16067633
479.418	0.16115415
479.626	0.16172525
479.834	0.16229504
480.043	0.1629266
480.251	0.16353358
480.459	0.16401277
480.668	0.16467262
480.876	0.1652753
481.084	0.16580018
481.293	0.16638573
481.501	0.16688581
481.709	0.16748774
481.917	0.16813745
482.125	0.16873955
482.334	0.16937592
482.542	0.17012187
482.75	0.17082297
482.958	0.17154156
483.166	0.17227635
483.374	0.17298764
483.583	0.1737357
483.791	0.17438326
483.999	0.17501152
484.207	0.17571047
484.415	0.17641427
484.623	0.17696798
484.831	0.17754074
485.039	0.1781551
485.247	0.17879131
485.455	0.17939056
485.663	0.18006641
485.871	0.18076005
486.079	0.18147029
486.287	0.18222132
486.495	0.18287897
486.702	0.1836136
486.91	0.18438313
487.118	0.18507473
487.326	0.18582953
487.534	0.1866385
487.742	0.18752572
487.95	0.18837926
488.157	0.18925986
488.365	0.19019293
488.573	0.19113888
488.781	0.19207162
488.988	0.1929959
489.196	0.19388314
489.404	0.19469211
489.612	0.19559016
489.819	0.19649577
490.027	0.19733203
490.235	0.19807743
490.442	0.19897486
490.65	0.1997486
490.857	0.2008044
491.065	0.20178543
491.273	0.20269991
491.48	0.20365912
491.688	0.20470793
491.895	0.20565461
492.103	0.20666697
492.31	0.20757123
492.518	0.20842547
492.725	0.20937186
492.933	0.21031288
493.14	0.2112016
493.348	0.21213289
493.555	0.21307537
493.763	0.21397061
493.97	0.21505299
494.177	0.21609304
494.385	0.2171783
494.592	0.2183037
494.8	0.21932113
495.007	0.2204474
495.214	0.22150993
495.422	0.22260599
495.629	0.22362045
495.836	0.22465821
496.043	0.22569783
496.251	0.22684716
496.458	0.22784829
496.665	0.22894124
496.872	0.22994342
497.08	0.2310527
497.287	0.2321418
497.494	0.23333423
497.701	0.23447482
497.908	0.23569219
498.115	0.23684249
498.322	0.23802763
498.53	0.23915428
498.737	0.24022543
498.944	0.24130433
499.151	0.2423839
499.358	0.24343539
499.565	0.24454185
499.772	0.24569775
499.979	0.24688326
500.186	0.24815168
500.393	0.24922928
500.6	0.25037701
500.807	0.25163719
501.014	0.2529292
501.221	0.25417861
501.427	0.25538222
501.634	0.2565839
501.841	0.25787824
502.048	0.25910192
502.255	0.26012479
502.462	0.26122774
502.669	0.26246361
502.875	0.26370266
503.082	0.26491423
503.289	0.26603338
503.496	0.26728403
503.702	0.26864113
503.909	0.26993764
504.116	0.27118102
504.323	0.27242496
504.529	0.2736749
504.736	0.27505246
504.943	0.27639981
505.149	0.27777303
505.356	0.27913737
505.563	0.28040905
505.769	0.28172513
505.976	0.283101
506.182	0.28448336
506.389	0.28582887
506.595	0.28718738
506.802	0.28850509
507.008	0.28978728
507.215	0.29109166
507.421	0.29238186
507.628	0.29361788
507.834	0.29488067
508.041	0.2961586
508.247	0.29748854
508.454	0.29881339
508.66	0.30007268
508.866	0.30128006
509.073	0.30270073
509.279	0.30406796
509.486	0.30534257
509.692	0.30658704
509.898	0.30799225
510.105	0.30946746
510.311	0.3109448
510.517	0.31227719
510.723	0.31362704
510.93	0.31496096
511.136	0.31639286
511.342	0.31775539
511.548	0.31899346
511.754	0.32032626
511.961	0.32162279
512.167	0.32287404
512.373	0.3242459
512.579	0.32554284
512.785	0.32684119
512.991	0.3282207
513.197	0.32962198
513.404	0.33109134
513.61	0.3325968
513.816	0.33398638
514.022	0.33543964
514.228	0.33680376
514.434	0.33823079
514.64	0.33960225
514.846	0.3410104
515.052	0.34231545
515.258	0.34366946
515.464	0.34504171
515.669	0.34655457
515.875	0.34797691
516.081	0.34938425
516.287	0.35087296
516.493	0.3524465
516.699	0.35390268
516.905	0.35531891
517.111	0.35662473
517.316	0.35802253
517.522	0.35940672
517.728	0.36077042
517.934	0.36213595
518.139	0.36347357
518.345	0.36482035
518.551	0.36626105
518.757	0.36755584
518.962	0.36892552
519.168	0.37020047
519.374	0.37140037
519.579	0.37276323
519.785	0.37418711
519.991	0.37556402
520.196	0.37701398
520.402	0.37837461
520.607	0.3797736
520.813	0.3813507
521.018	0.38273976
521.224	0.38397669
521.429	0.38541138
521.635	0.38671293
521.84	0.3879628
522.046	0.38930599
522.251	0.39050324
522.457	0.39181963
522.662	0.39328613
522.868	0.3946065
523.073	0.39595518
523.279	0.39743487
523.484	0.39882126
523.689	0.4003123
523.895	0.40173816
524.1	0.40311596
524.305	0.40446949
524.511	0.40586074
524.716	0.40722363
524.921	0.40850234
525.126	0.40982096
525.332	0.41113879
525.537	0.41238507
525.742	0.4136923
525.947	0.41499655
526.153	0.41617432
526.358	0.4174604
526.563	0.41863731
526.768	0.41985845
526.973	0.42112607
527.178	0.42234794
527.383	0.42359285
527.588	0.42485487
527.794	0.42605442
527.999	0.42738775
528.204	0.4287124
528.409	0.42995447
528.614	0.43130318
528.819	0.43249946
529.024	0.43363368
529.229	0.4347839
529.434	0.43600776
529.639	0.4371289
529.843	0.43834653
530.048	0.4394521
530.253	0.44061485
530.458	0.44201533
530.663	0.44336487
530.868	0.44445404
531.073	0.44562959
531.278	0.44675326
531.482	0.44791282
531.687	0.4490971
531.892	0.45023119
532.097	0.45133235
532.302	0.45263128
532.506	0.4538328
532.711	0.45501486
532.916	0.45617766
533.12	0.45738298
533.325	0.45844193
533.53	0.45964272
533.734	0.46075009
533.939	0.46193594
534.144	0.46310122
534.348	0.46415254
534.553	0.46525197
534.757	0.46632809
534.962	0.46735648
535.167	0.46833615
535.371	0.46924264
535.576	0.47027569
535.78	0.47132909
535.985	0.47245334
536.189	0.47348694
536.394	0.47453809
536.598	0.47564306
536.803	0.47676617
537.007	0.4777409
537.211	0.47887582
537.416	0.47969847
537.62	0.48067722
537.825	0.48167662
538.029	0.48277124
538.233	0.48369034
538.438	0.48476509
538.642	0.48565473
538.846	0.4868119
539.05	0.48783557
539.255	0.48875249
539.459	0.48958535
539.663	0.49060118
539.867	0.4915708
540.072	0.49257988
540.276	0.49350613
540.48	0.49455211
540.684	0.49548278
540.888	0.49656169
541.092	0.49746126
541.297	0.49832372
541.501	0.49919034
541.705	0.50002918
541.909	0.50074307
542.113	0.50157061
542.317	0.50233609
542.521	0.50319184
542.725	0.50399632
542.929	0.50477925
543.133	0.50558873
543.337	0.50654417
543.541	0.5073646
543.745	0.50806479
543.949	0.50885442
544.153	0.50958084
544.357	0.51034332
544.56	0.51116401
544.764	0.51193696
544.968	0.51272154
545.172	0.51343087
545.376	0.5142645
545.58	0.51507756
545.783	0.51598826
545.987	0.51662792
546.191	0.5172257
546.395	0.5179096
546.598	0.51880234
546.802	0.5194696
547.006	0.52010963
547.21	0.52043332
547.413	0.52107549
547.617	0.52177536
547.821	0.52243752
548.024	0.52306965
548.228	0.52363047
548.431	0.52432821
548.635	0.52520318
548.839	0.52588327
549.042	0.52652957
549.246	0.5270532
549.449	0.52758374
549.653	0.52822303
549.856	0.52881506
550.06	0.5293006
550.263	0.52993045
550.467	0.53055969
550.67	0.53134238
550.874	0.53194577
551.077	0.53261099
551.28	0.5331934
551.484	0.53382165
551.687	0.53436887
551.891	0.5349314
552.094	0.53531534
552.297	0.53583862
552.501	0.53631838
552.704	0.53683754
552.907	0.53737313
553.11	0.53784378
553.314	0.53831699
553.517	0.53872859
553.72	0.53911717
553.923	0.53966042
554.127	0.54015548
554.33	0.54050507
554.533	0.54096363
554.736	0.5412374
554.939	0.54170058
555.142	0.54215916
555.345	0.54243898
555.549	0.54280047
555.752	0.54314852
555.955	0.54349782
556.158	0.5440298
556.361	0.5444123
556.564	0.54473155
556.767	0.54512932
556.97	0.54549843
557.173	0.54595976
557.376	0.54633583
557.579	0.54659216
557.782	0.54698936
557.984	0.54740856
558.187	0.54773411
558.39	0.54792619
558.593	0.54824751
558.796	0.54851554
558.999	0.54874723
559.202	0.54898531
559.404	0.54915288
559.607	0.54950199
559.81	0.54979821
560.013	0.54995269
560.216	0.55022677
560.418	0.5506821
560.621	0.5510462
560.824	0.55139422
561.026	0.55158338
561.229	0.55176752
561.432	0.55204504
561.634	0.55222315
561.837	0.55223219
562.04	0.55235695
562.242	0.55250316
562.445	0.55251385
562.647	0.55269699
562.85	0.55263053
563.053	0.5525799
563.255	0.55266293
563.458	0.55271022
563.66	0.55269775
563.863	0.55290209
564.065	0.55305658
564.268	0.55330792
564.47	0.55357139
564.672	0.5537094
564.875	0.55387716
565.077	0.55403114
565.28	0.55407798
565.482	0.5540997
565.684	0.55412126
565.887	0.55415148
566.089	0.55419995
566.291	0.55416333
566.494	0.55419259
566.696	0.55420109
566.898	0.55429588
567.1	0.55438657
567.303	0.55444405
567.505	0.55440681
567.707	0.55426138
567.909	0.55407513
568.111	0.5540025
568.314	0.55385368
568.516	0.55381881
568.718	0.55376478
568.92	0.55378504
569.122	0.55387053
569.324	0.55390875
569.526	0.55374505
569.728	0.55377817
569.93	0.55361684
570.132	0.55345274
570.334	0.55326954
570.536	0.55306847
570.738	0.55291369
570.94	0.55278248
571.142	0.55264603
571.344	0.55238845
571.546	0.55214586
571.748	0.55207732
571.95	0.55185252
572.152	0.55172531
572.354	0.55168189
572.555	0.55150043
572.757	0.55157429
572.959	0.55151641
573.161	0.55122199
573.363	0.55110061
573.564	0.55100755
573.766	0.55072005
573.968	0.55051258
574.17	0.55001876
574.371	0.5497649
574.573	0.54960079
574.775	0.54929116
574.976	0.54890803
575.178	0.5486426
575.38	0.54821217
575.581	0.54795235
575.783	0.54757646
575.985	0.547172
576.186	0.54695031
576.388	0.54667894
576.589	0.54637832
576.791	0.54615116
576.992	0.54583869
577.194	0.54556793
577.395	0.54523004
577.597	0.5449053
577.798	0.54464151
578	0.54429351
578.201	0.54402044
578.402	0.54366702
578.604	0.54320524
578.805	0.54283888
579.007	0.54247422
579.208	0.54201611
579.409	0.5415898
579.611	0.54102595
579.812	0.54072176
580.013	0.54032949
580.215	0.53979332
580.416	0.5392736
580.617	0.53878308
580.818	0.53839929
581.019	0.53800843
581.221	0.53752203
581.422	0.53710796
581.623	0.53676037
581.824	0.53620007
582.025	0.53565302
582.226	0.53510646
582.428	0.53453556
582.629	0.53394157
582.83	0.53342976
583.031	0.53287543
583.232	0.5325768
583.433	0.53226713
583.634	0.5317871
583.835	0.53144504
584.036	0.5309578
584.237	0.53039143
584.438	0.52986328
584.639	0.52912833
584.84	0.52847891
585.041	0.52777191
585.242	0.52689534
585.442	0.5262192
585.643	0.52563179
585.844	0.52497323
586.045	0.52439158
586.246	0.52372126
586.447	0.52313144
586.647	0.52259635
586.848	0.52192016
587.049	0.52126796
587.25	0.52059938
587.45	0.51997569
587.651	0.51941466
587.852	0.51879754
588.053	0.51833514
588.253	0.51779113
588.454	0.51725441
588.655	0.51668838
588.855	0.51598837
589.056	0.51528564
589.256	0.51467722
589.457	0.51393938
589.658	0.51329336
589.858	0.51251958
590.059	0.51193679
590.259	0.51137664
590.46	0.51066921
590.66	0.50992157
590.861	0.50922356
591.061	0.50844968
591.262	0.50779576
591.462	0.50702732
591.662	0.50614706
591.863	0.50538685
592.063	0.50466415
592.264	0.50391471
592.464	0.50325917
592.664	0.50255256
592.865	0.50189254
593.065	0.50108421
593.265	0.50038297
593.465	0.49955813
593.666	0.49872173
593.866	0.49782358
594.066	0.49697854
594.266	0.49604024
594.467	0.4951824
594.667	0.49424615
594.867	0.4934746
595.067	0.49266457
595.267	0.49181253
595.467	0.49094759
595.668	0.49005481
595.868	0.4893581
596.068	0.4885759
596.268	0.48764315
596.468	0.48690331
596.668	0.48623602
596.868	0.48542867
597.068	0.48477188
597.268	0.4841002
597.468	0.4833587
597.668	0.48264291
597.868	0.48179917
598.068	0.4809057
598.268	0.48001775
598.467	0.47915425
598.667	0.47808733
598.867	0.47709964
599.067	0.47623896
599.267	0.47536168
599.467	0.47445876
599.667	0.4735511
599.866	0.47264938
600.066	0.47184487
600.266	0.47090932
600.466	0.46995764
600.665	0.46911193
600.865	0.46817359
601.065	0.46738625
601.264	0.46646428
601.464	0.46561339
601.664	0.46483219
601.863	0.46397881
602.063	0.46312009
602.263	0.46212428
602.462	0.46124922
602.662	0.46033801
602.861	0.45934648
603.061	0.45848327
603.26	0.45753114
603.46	0.45647471
603.659	0.45570038
603.859	0.45476365
604.058	0.45385437
604.258	0.4530404
604.457	0.45219188
604.657	0.45129586
604.856	0.45029647
605.056	0.44937561
605.255	0.44836702
605.454	0.44741062
605.654	0.44634407
605.853	0.44535558
606.052	0.44434971
606.252	0.44354346
606.451	0.44263253
606.65	0.44181911
606.849	0.44074519
607.049	0.43981231
607.248	0.43878638
607.447	0.43783353
607.646	0.43697647
607.845	0.43604701
608.045	0.43495299
608.244	0.43419614
608.443	0.43320963
608.642	0.4323034
608.841	0.43127162
609.04	0.43013227
609.239	0.42908888
609.438	0.42801585
609.637	0.42698938
609.836	0.42605108
610.035	0.42510313
610.234	0.42419255
610.433	0.42322269
610.632	0.42218052
610.831	0.42136299
611.03	0.42036795
611.229	0.41948133
611.428	0.41846516
611.627	0.41748176
611.826	0.41654053
612.025	0.41570299
612.224	0.41459474
612.422	0.4135334
612.621	0.41242568
612.82	0.4114544
613.019	0.41050534
613.218	0.4095674
613.416	0.40844824
613.615	0.40749612
613.814	0.40652368
614.012	0.40557769
614.211	0.4045232
614.41	0.40354093
614.608	0.40251584
614.807	0.40148377
615.006	0.40060896
615.204	0.39966162
615.403	0.39877025
615.602	0.3978677
615.8	0.3969081
615.999	0.39579211
616.197	0.39483168
616.396	0.39378488
616.594	0.39272206
616.793	0.39165221
616.991	0.39054509
617.19	0.38939345
617.388	0.38856512
617.586	0.38757137
617.785	0.38656069
617.983	0.3855873
618.182	0.38459191
618.38	0.38360367
618.578	0.38273863
618.777	0.38179041
618.975	0.38099261
619.173	0.38011095
619.372	0.37922635
619.57	0.3782569
619.768	0.37745095
619.966	0.37649782
620.165	0.37548044
620.363	0.37447848
620.561	0.37333856
620.759	0.37232875
620.957	0.37140809
621.155	0.37033599
621.354	0.36920229
621.552	0.36825789
621.75	0.36710057
621.948	0.3661743
622.146	0.36517148
622.344	0.36404999
622.542	0.36306565
622.74	0.36217126
622.938	0.36107006
623.136	0.36022947
623.334	0.35941747
623.532	0.35840791
623.73	0.35762349
623.928	0.35677079
624.126	0.35583766
624.324	0.35498943
624.522	0.35394801
624.719	0.35280585
624.917	0.35196353
625.115	0.35090553
625.313	0.3500676
625.511	0.34927469
625.708	0.34831131
625.906	0.3473215
626.104	0.34645782
626.302	0.34551419
626.499	0.3445596
626.697	0.34334738
626.895	0.34210291
627.093	0.34101159
627.29	0.34009813
627.488	0.33901945
627.686	0.33800141
627.883	0.33681077
628.081	0.33570205
628.278	0.33491608
628.476	0.33398708
628.673	0.33297257
628.871	0.33203928
629.068	0.33100665
629.266	0.33015368
629.463	0.32928841
629.661	0.32828688
629.858	0.32725158
630.056	0.32621844
630.253	0.32516752
630.451	0.32415148
630.648	0.32306201
630.845	0.32198161
631.043	0.3209159
631.24	0.3200145
631.438	0.31914282
631.635	0.31829717
631.832	0.31731831
632.029	0.31650954
632.227	0.315617
632.424	0.31462915
632.621	0.31357972
632.818	0.31247987
633.016	0.31139124
633.213	0.31044456
633.41	0.30948452
633.607	0.30853778
633.804	0.30773324
634.001	0.30681068
634.199	0.30596265
634.396	0.30510733
634.593	0.30409792
634.79	0.30326108
634.987	0.3023758
635.184	0.30133013
635.381	0.30045088
635.578	0.29953797
635.775	0.29855323
635.972	0.29772434
636.169	0.29667656
636.366	0.29568734
636.563	0.29475647
636.76	0.29369119
636.957	0.2927272
637.153	0.29172593
637.35	0.29081027
637.547	0.2898812
637.744	0.28895829
637.941	0.28813733
638.138	0.28748999
638.334	0.28666726
638.531	0.28602499
638.728	0.28530551
638.925	0.28472461
639.121	0.2840747
639.318	0.28328643
639.515	0.2822445
639.711	0.28142848
639.908	0.28034649
640.105	0.27930242
640.301	0.27815761
640.498	0.27713104
640.695	0.27616131
640.891	0.27534315
641.088	0.27445643
641.284	0.27366229
641.481	0.27288034
641.677	0.27208799
641.874	0.27119601
642.07	0.27049588
642.267	0.26977912
642.463	0.26899557
642.66	0.26836607
642.856	0.26756238
643.053	0.26678703
643.249	0.26606006
643.445	0.26518245
643.642	0.26427693
643.838	0.26342414
644.034	0.26250274
644.231	0.26164075
644.427	0.26086726
644.623	0.26005999
644.82	0.2593232
645.016	0.25851398
645.212	0.25763936
645.408	0.25684923
645.604	0.25619701
645.801	0.25543497
645.997	0.25457563
646.193	0.25377184
646.389	0.25317502
646.585	0.25252002
646.781	0.25175462
646.977	0.2509694
647.173	0.25015153
647.37	0.24944611
647.566	0.24867753
647.762	0.24788631
647.958	0.24717388
648.154	0.24632342
648.35	0.24551869
648.546	0.24469723
648.742	0.24405068
648.937	0.24314103
649.133	0.24233271
649.329	0.24154431
649.525	0.24084467
649.721	0.24008848
649.917	0.23944855
650.113	0.23859848
650.309	0.23807719
650.504	0.23739585
650.7	0.23669931
650.896	0.23611623
651.092	0.23548791
651.287	0.23490599
651.483	0.23438754
651.679	0.23367511
651.875	0.23312142
652.07	0.23254249
652.266	0.23183824
652.462	0.23118703
652.657	0.23047371
652.853	0.22969902
653.048	0.22902215
653.244	0.22815571
653.44	0.22736663
653.635	0.22656436
653.831	0.22589495
654.026	0.22531238
654.222	0.22470288
654.417	0.22419414
654.613	0.22358849
654.808	0.22291857
655.004	0.2223359
655.199	0.2216637
655.394	0.22088527
655.59	0.22022205
655.785	0.21939838
655.98	0.21883145
656.176	0.21824807
656.371	0.217854
656.566	0.21727169
656.762	0.21664434
656.957	0.21605873
657.152	0.21547777
657.348	0.21484853
657.543	0.21430709
657.738	0.21359805
657.933	0.21303271
658.128	0.21246087
658.324	0.21186309
658.519	0.21132643
658.714	0.21073135
658.909	0.21008239
659.104	0.20944817
659.299	0.20876823
659.494	0.20812424
659.689	0.2074945
659.884	0.20686004
660.079	0.20621692
660.274	0.2055755
660.469	0.20491231
660.664	0.20431176
660.859	0.20366503
661.054	0.2030655
661.249	0.20243277
661.444	0.20175384
661.639	0.20105873
661.834	0.20044246
662.029	0.19988219
662.224	0.19941749
662.418	0.19887041
662.613	0.19837518
662.808	0.19788318
663.003	0.19751276
663.198	0.1969888
663.392	0.19633832
663.587	0.19578729
663.782	0.19507796
663.977	0.19438807
664.171	0.1938632
664.366	0.19314039
664.561	0.19253706
664.755	0.19197214
664.95	0.191395
665.144	0.19090927
665.339	0.19050274
665.534	0.18994504
665.728	0.18954404
665.923	0.18908377
666.117	0.1886806
666.312	0.18816094
666.506	0.18781823
666.701	0.1873054
666.895	0.18686935
667.09	0.18631301
667.284	0.18590506
667.479	0.18541563
667.673	0.18497909
667.867	0.18448284
668.062	0.18402931
668.256	0.18358764
668.45	0.1832981
668.645	0.18281222
668.839	0.18239327
669.033	0.18192753
669.228	0.18146768
669.422	0.1810295
669.616	0.1805183
669.81	0.1800579
670.004	0.1796881
670.199	0.17936261
670.393	0.17904853
670.587	0.17863483
670.781	0.17818171
670.975	0.17779125
671.169	0.17724206
671.363	0.17663282
671.558	0.17603035
671.752	0.17552627
671.946	0.17512484
672.14	0.1747662
672.334	0.17426272
672.528	0.17384701
672.722	0.17338309
672.916	0.1729827
673.11	0.17240487
673.304	0.17194845
673.497	0.1714387
673.691	0.17112256
673.885	0.17071581
674.079	0.17048689
674.273	0.17009638
674.467	0.16988778
674.661	0.16949478
674.854	0.16914443
675.048	0.16879168
675.242	0.16851263
675.436	0.16815241
675.629	0.16779501
675.823	0.16728712
676.017	0.16690826
676.211	0.16651642
676.404	0.16609369
676.598	0.16572744
676.792	0.16539881
676.985	0.16512335
677.179	0.16485748
677.372	0.16448523
677.566	0.16417791
677.76	0.16386802
677.953	0.16352037
678.147	0.16321951
678.34	0.16298579
678.534	0.16271108
678.727	0.16252775
678.921	0.16236924
679.114	0.16217741
679.307	0.16201221
679.501	0.16175602
679.694	0.1614281
679.888	0.16116128
680.081	0.16090904
680.274	0.16044072
680.468	0.16003824
680.661	0.15958011
680.854	0.15926813
681.048	0.15886186
681.241	0.15848188
681.434	0.158063
681.627	0.15781524
681.821	0.15757708
682.014	0.15734897
682.207	0.15696368
682.4	0.15672417
682.593	0.15648682
682.786	0.15621758
682.98	0.1559147
683.173	0.15559779
683.366	0.15531622
683.559	0.1551008
683.752	0.15482028
683.945	0.15458127
684.138	0.15431522
684.331	0.15401771
684.524	0.15374624
684.717	0.1534345
684.91	0.15314293
685.103	0.15283668
685.296	0.15250534
685.489	0.15224503
685.682	0.1520306
685.874	0.15179238
686.067	0.15157049
686.26	0.15139344
686.453	0.1512194
686.646	0.15102834
686.839	0.15088218
687.031	0.15073337
687.224	0.15057283
687.417	0.15056642
687.61	0.15043903
687.802	0.15035574
687.995	0.15035281
688.188	0.15028473
688.38	0.15016533
688.573	0.15008251
688.766	0.14991406
688.958	0.14970513
689.151	0.14952664
689.343	0.14936666
689.536	0.14911061
689.729	0.14889932
689.921	0.1486712
690.114	0.14831562
690.306	0.14809183
690.499	0.14786665
690.691	0.14752821
690.884	0.14732658
691.076	0.14713997
691.268	0.14696012
691.461	0.14686377
691.653	0.14684664
691.846	0.14675432
692.038	0.1467107
692.23	0.14657042
692.423	0.14650046
692.615	0.14644081
692.807	0.14636975
692.999	0.14623586
693.192	0.14610491
693.384	0.14598269
693.576	0.14594061
693.768	0.14591784
693.961	0.14581788
694.153	0.14576964
694.345	0.14573936
694.537	0.14579535
694.729	0.14582844
694.921	0.14573205
695.113	0.14553637
695.305	0.14535037
695.498	0.14507102
695.69	0.14479828
695.882	0.144436
696.074	0.14416808
696.266	0.14396562
696.458	0.14376195
696.65	0.1436904
696.842	0.14376036
697.033	0.14378417
697.225	0.14387465
697.417	0.14390445
697.609	0.14387886
697.801	0.14386904
697.993	0.14375629
698.185	0.14356198
698.376	0.14336268
698.568	0.14314428
698.76	0.14296784
698.952	0.14285472
699.144	0.14279585
699.335	0.14285351
699.527	0.14285469
699.719	0.14288149
699.91	0.14294909
700.102	0.14292415
700.294	0.14300731
700.485	0.14298276
700.677	0.14287144
700.869	0.1429167
701.06	0.14288968
701.252	0.14280148
701.443	0.14279782
701.635	0.14273485
701.826	0.14275406
702.018	0.14281657
702.209	0.14289691
702.401	0.14298118
702.592	0.14312872
702.784	0.14324749
702.975	0.14335655
703.166	0.14352163
703.358	0.14359172
703.549	0.14357159
703.741	0.14362689
703.932	0.14360186
704.123	0.14359121
704.315	0.1436029
704.506	0.14360337
704.697	0.14355184
704.888	0.14353154
705.08	0.14348916
705.271	0.143512
705.462	0.14352192
705.653	0.1434875
705.844	0.14339686
706.035	0.14346536
706.227	0.14345304
706.418	0.14348863
706.609	0.14348331
706.8	0.14354931
706.991	0.14364826
707.182	0.14383096
707.373	0.14397734
707.564	0.14419544
707.755	0.14435241
707.946	0.14448773
708.137	0.14455147
708.328	0.14451927
708.519	0.14445606
708.71	0.14436077
708.901	0.14419587
709.092	0.14415685
709.283	0.14416297
709.473	0.1442024
709.664	0.14435409
709.855	0.14441061
710.046	0.14457692
710.237	0.1447144
710.427	0.14475248
710.618	0.14478318
710.809	0.14481445
711	0.14481582
711.19	0.14485799
711.381	0.1448415
711.572	0.14490905
711.762	0.14502827
711.953	0.14520351
712.144	0.14539459
712.334	0.14558995
712.525	0.14584054
712.715	0.1460371
712.906	0.14614827
713.097	0.14621589
713.287	0.14627
713.478	0.1463447
713.668	0.14645356
713.859	0.14663117
714.049	0.14685165
714.239	0.1471357
714.43	0.14732963
714.62	0.14754489
714.811	0.14773488
715.001	0.14802363
715.191	0.14819138
715.382	0.14828553
715.572	0.148488
715.762	0.14879483
715.953	0.14907901
716.143	0.1493824
716.333	0.14954963
716.523	0.14978951
716.714	0.15010281
716.904	0.15029302
717.094	0.15045387
717.284	0.15058269
717.474	0.15064786
717.664	0.15072441
717.855	0.15073078
718.045	0.15077468
718.235	0.15090498
718.425	0.15115806
718.615	0.15142992
718.805	0.15180729
718.995	0.15220905
719.185	0.15266296
719.375	0.15305057
719.565	0.15336955
719.755	0.15353155
719.945	0.15370668
720.135	0.15388399
720.325	0.15400272
720.515	0.1541862
720.704	0.15438532
720.894	0.15457542
721.084	0.15477223
721.274	0.15501612
721.464	0.15516877
721.654	0.1553555
721.843	0.15549663
722.033	0.15579098
722.223	0.15609151
722.413	0.15658349
722.602	0.15693257
722.792	0.15729256
722.982	0.15765116
723.171	0.157999
723.361	0.15822076
723.55	0.15852026
723.74	0.15868131
723.93	0.15885848
724.119	0.15900677
724.309	0.15922252
724.498	0.15944753
724.688	0.15974316
724.877	0.16002016
725.067	0.16027004
725.256	0.16062679
725.446	0.1610939
725.635	0.16144546
725.825	0.16188255
726.014	0.16224692
726.203	0.16257181
726.393	0.16284347
726.582	0.16306685
726.771	0.16328965
726.961	0.16351491
727.15	0.16366728
727.339	0.16377517
727.529	0.16390495
727.718	0.16411588
727.907	0.16436801
728.096	0.16453077
728.286	0.1647202
728.475	0.16495331
728.664	0.16516953
728.853	0.16546573
729.042	0.16570328
729.231	0.16593561
729.42	0.1661555
729.609	0.1663813
729.799	0.16649849
729.988	0.16667603
730.177	0.16675877
730.366	0.16692145
730.555	0.16702
730.744	0.16722739
730.933	0.16743499
731.122	0.16770196
731.31	0.16799974
731.499	0.16832632
731.688	0.16869628
731.877	0.1691369
732.066	0.169598
732.255	0.17017359
732.444	0.17073563
732.632	0.17125557
732.821	0.17175666
733.01	0.17218725
733.199	0.17259459
733.388	0.17292689
733.576	0.17317855
733.765	0.1734333
733.954	0.17362714
734.142	0.17375388
734.331	0.17391425
734.52	0.17405587
734.708	0.1741604
734.897	0.17424025
735.086	0.17439646
735.274	0.17466834
735.463	0.1749405
735.651	0.17518335
735.84	0.17559332
736.028	0.17600632
736.217	0.17645785
736.405	0.1768066
736.594	0.17712413
736.782	0.17745819
736.971	0.1778763
737.159	0.17816587
737.347	0.17853784
737.536	0.17890502
737.724	0.1792762
737.912	0.17959091
738.101	0.17995699
738.289	0.18026857
738.477	0.1806142
738.666	0.18083859
738.854	0.18109161
739.042	0.18134167
739.23	0.18158911
739.418	0.1818227
739.607	0.18213651
739.795	0.18244214
739.983	0.18285705
740.171	0.18324027
740.359	0.18366001
740.547	0.18418141
740.735	0.18472984
740.923	0.18524992
741.112	0.18575468
741.3	0.18616826
741.488	0.18659038
741.676	0.18707934
741.864	0.18751159
742.052	0.18796656
742.239	0.18823001
742.427	0.1884716
742.615	0.18869054
742.803	0.18897342
742.991	0.18918838
743.179	0.18947433
743.367	0.18971694
743.555	0.19019045
743.742	0.19061781
743.93	0.19115167
744.118	0.19161424
744.306	0.19210413
744.494	0.19252046
744.681	0.19302391
744.869	0.19336313
745.057	0.19373785
745.244	0.19410616
745.432	0.19442316
745.62	0.19470725
745.807	0.19509226
745.995	0.19536168
746.182	0.19573407
746.37	0.19608201
746.558	0.1964646
746.745	0.19689875
746.933	0.19727848
747.12	0.1976302
747.308	0.19806561
747.495	0.19845029
747.683	0.19892007
747.87	0.19927247
748.057	0.19969254
748.245	0.20019431
748.432	0.20058384
748.62	0.20100056
748.807	0.20140759
748.994	0.20185698
749.182	0.20236728
749.369	0.20285035
749.556	0.20330492
749.743	0.20380883
749.931	0.20424533
750.118	0.20470201
750.305	0.20505592
750.492	0.20542785
750.68	0.20587633
750.867	0.20635821
751.054	0.20677155
751.241	0.2071694
751.428	0.20755684
751.615	0.20793171
751.802	0.20825034
751.989	0.20843472
752.176	0.20864047
752.363	0.20886261
752.55	0.20910037
752.737	0.20940961
752.924	0.20980265
753.111	0.21027957
753.298	0.21077064
753.485	0.21118643
753.672	0.21161407
753.859	0.21211965
754.046	0.21255526
754.233	0.21296364
754.42	0.21337668
754.606	0.21378849
754.793	0.21423203
754.98	0.21478233
755.167	0.21515775
755.353	0.2155737
755.54	0.21600869
755.727	0.21644473
755.914	0.21678539
756.1	0.21715585
756.287	0.21745413
756.474	0.2178571
756.66	0.21825079
756.847	0.21860506
757.033	0.21886716
757.22	0.21919212
757.407	0.21955669
757.593	0.21984315
757.78	0.22011288
757.966	0.22037403
758.153	0.22060611
758.339	0.22084004
758.526	0.22118956
758.712	0.22148294
758.898	0.22201335
759.085	0.22257239
759.271	0.22322123
759.458	0.22388733
759.644	0.22461085
759.83	0.22530166
760.017	0.22597986
760.203	0.22650372
760.389	0.22694263
760.576	0.22724678
760.762	0.22758542
760.948	0.22784589
761.134	0.22803358
761.32	0.22828169
761.507	0.22852134
761.693	0.22895174
761.879	0.22940911
762.065	0.22994361
762.251	0.2305886
762.437	0.23134738
762.623	0.23208678
762.809	0.23282896
762.995	0.2334386
763.181	0.23401485
763.367	0.23450304
763.553	0.23488457
763.739	0.23523189
763.925	0.2355084
764.111	0.23576776
764.297	0.23604398
764.483	0.23623409
764.669	0.23647119
764.855	0.23684382
765.041	0.23722687
765.227	0.23764627
765.412	0.23806001
765.598	0.23856223
765.784	0.23926528
765.97	0.2399238
766.156	0.24050924
766.341	0.2410714
766.527	0.24155715
766.713	0.24208588
766.898	0.24256189
767.084	0.24288619
767.27	0.24311106
767.455	0.24331368
767.641	0.24354574
767.827	0.24387686
768.012	0.24419104
768.198	0.24456836
768.383	0.24510297
768.569	0.24577396
768.754	0.24653667
768.94	0.24709979
769.125	0.24766689
769.311	0.24816126
769.496	0.24861441
769.682	0.24903853
769.867	0.24939175
770.052	0.2496414
770.238	0.24994888
770.423	0.25029079
770.608	0.25070211
770.794	0.25113167
770.979	0.25151362
771.164	0.25202188
771.35	0.25253962
771.535	0.2531289
771.72	0.25363784
771.905	0.25428123
772.09	0.25468694
772.276	0.25521777
772.461	0.25554223
772.646	0.25592758
772.831	0.2563152
773.016	0.25675316
773.201	0.25703891
773.386	0.25759251
773.571	0.25801162
773.756	0.25855072
773.941	0.25903229
774.126	0.25959475
774.311	0.26007956
774.496	0.26065907
774.681	0.26117057
774.866	0.26167329
775.051	0.26214591
775.236	0.26273363
775.421	0.26314096
775.606	0.2635383
775.791	0.26383931
775.976	0.26406902
776.16	0.264291
776.345	0.26454431
776.53	0.26481302
776.715	0.26515436
776.899	0.26552043
777.084	0.26595308
777.269	0.2664414
777.454	0.2668965
777.638	0.26739842
777.823	0.26780154
778.008	0.26820393
778.192	0.26868528
778.377	0.26903372
778.561	0.26947369
778.746	0.26990197
778.931	0.27023993
779.115	0.27062957
779.3	0.27090596
779.484	0.27124871
779.669	0.27162537
779.853	0.27183672
780.037	0.27206495
780.222	0.27222266
780.406	0.27230835
780.591	0.27251516
780.775	0.27259305
780.959	0.27266568
781.144	0.27285011
781.328	0.27308428
781.512	0.27348668
781.697	0.27391537
781.881	0.2744476
782.065	0.27499453
782.249	0.27539498
782.434	0.27581648
782.618	0.27619582
782.802	0.27649887
782.986	0.27667333
783.17	0.27679815
783.354	0.27686412
783.539	0.27714021
783.723	0.27733177
783.907	0.27757149
784.091	0.27785329
784.275	0.2782165
784.459	0.27850384
784.643	0.27884474
784.827	0.27909539
785.011	0.27930683
785.195	0.27956598
785.379	0.27972699
785.563	0.27997043
785.747	0.28024137
785.93	0.28058447
786.114	0.28076442
786.298	0.28089142
786.482	0.2810055
786.666	0.28126415
786.85	0.28145113
787.033	0.28181134
787.217	0.28204209
787.401	0.28244994
787.585	0.28289954
787.768	0.28327698
787.952	0.28353836
788.136	0.28386736
788.319	0.28405908
788.503	0.28433812
788.687	0.28466194
788.87	0.28498725
789.054	0.28531971
789.237	0.28574355
789.421	0.28615282
789.605	0.28663365
789.788	0.28702626
789.972	0.28736086
790.155	0.28776881
790.338	0.28823998
790.522	0.28871242
790.705	0.28909414
790.889	0.28939039
791.072	0.28979448
791.256	0.29022226
791.439	0.29064787
791.622	0.29104576
791.806	0.29142061
791.989	0.29179733
792.172	0.29218791
792.355	0.29256119
792.539	0.29287343
792.722	0.29318547
792.905	0.29343117
793.088	0.29367876
793.271	0.29399918
793.455	0.2943414
793.638	0.29462917
793.821	0.29491222
794.004	0.29523476
794.187	0.29582035
794.37	0.29633448
794.553	0.29682385
794.736	0.29721754
794.919	0.29766883
795.102	0.29818802
795.285	0.29876383
795.468	0.29914863
795.651	0.29951698
795.834	0.29998226
796.017	0.30043035
796.2	0.30087722
796.383	0.30135882
796.566	0.30173273
796.749	0.30206408
796.931	0.30244125
797.114	0.30268717
797.297	0.30297734
797.48	0.30321924
797.663	0.30351142
797.845	0.30382663
798.028	0.30416299
798.211	0.30448019
798.393	0.304926
798.576	0.30543358
798.759	0.30600108
798.941	0.3065764
799.124	0.3071238
799.307	0.30757735
799.489	0.30804823
799.672	0.30834995
799.854	0.30856048
800.037	0.30876855
800.219	0.30898483
800.402	0.30926079
800.584	0.3096102
800.767	0.31006436
800.949	0.31050986
801.132	0.31118088
801.314	0.31171873
801.496	0.31216527
801.679	0.31255234
801.861	0.31295839
802.043	0.31315047
802.226	0.31346226
802.408	0.3134864
802.59	0.31364387
802.772	0.31376695
802.955	0.313935
803.137	0.3141033
803.319	0.31433039
803.501	0.31451242
803.684	0.3148193
803.866	0.31506359
804.048	0.31541672
804.23	0.31582982
804.412	0.31628871
804.594	0.31665482
804.776	0.31708146
804.958	0.31739403
805.14	0.31771303
805.322	0.31794183
805.504	0.31814167
805.686	0.31829578
805.868	0.31850841
806.05	0.3186471
806.232	0.31882283
806.414	0.31907633
806.596	0.31931848
806.778	0.31935754
806.96	0.31956294
807.141	0.31966393
807.323	0.31976964
807.505	0.31968918
807.687	0.31955009
807.869	0.31932205
808.05	0.31920821
808.232	0.31891758
808.414	0.31881298
808.595	0.31882067
808.777	0.31896903
808.959	0.31914624
809.14	0.31934942
809.322	0.31954758
809.504	0.31983163
809.685	0.32005524
809.867	0.32018343
810.048	0.32039286
810.23	0.32063059
810.411	0.32089797
810.593	0.3211922
810.774	0.32132135
810.956	0.32143113
811.137	0.32147871
811.319	0.32159141
811.5	0.32164037
811.681	0.32162291
811.863	0.32158788
812.044	0.32166272
812.225	0.32180903
812.407	0.3219371
812.588	0.32202206
812.769	0.32210792
812.951	0.32233309
813.132	0.32256092
813.313	0.32292722
813.494	0.32319634
813.675	0.32364352
813.857	0.32404311
814.038	0.32444638
814.219	0.32471895
814.4	0.32505055
814.581	0.32531919
814.762	0.32553821
814.943	0.32571708
815.124	0.32576908
815.305	0.32583059
815.486	0.32595632
815.667	0.32605875
815.848	0.32602357
816.029	0.32602334
816.21	0.32602879
816.391	0.32623282
816.572	0.32631531
816.753	0.32654191
816.934	0.32658834
817.115	0.32665083
817.295	0.32690764
817.476	0.32703815
817.657	0.3272566
817.838	0.32756492
818.019	0.3277291
818.199	0.32799691
818.38	0.3283759
818.561	0.32873978
818.741	0.32914086
818.922	0.32937911
819.103	0.32966411
819.283	0.3300045
819.464	0.33037245
819.645	0.33065824
819.825	0.33081112
820.006	0.33098446
820.186	0.33121239
820.367	0.33137597
820.547	0.33141046
820.728	0.33148206
820.908	0.33157102
821.089	0.33181998
821.269	0.33208794
821.45	0.33239755
821.63	0.33265076
821.81	0.33314601
821.991	0.33370743
822.171	0.33431542
822.351	0.33475774
822.532	0.33525354
822.712	0.33574152
822.892	0.33639488
823.072	0.33682675
823.253	0.33719603
823.433	0.33748096
823.613	0.33782462
823.793	0.33803578
823.973	0.33812802
824.154	0.33806218
824.334	0.33809614
824.514	0.33813117
824.694	0.33821331
824.874	0.33835808
825.054	0.33864457
825.234	0.33887188
825.414	0.3390641
825.594	0.3393716
825.774	0.33962571
825.954	0.33987909
826.134	0.34010514
826.314	0.34020226
826.494	0.34045334
826.674	0.34059505
826.854	0.34070655
827.033	0.34083011
827.213	0.34103429
827.393	0.34117534
827.573	0.34131346
827.753	0.3415235
827.932	0.34190343
828.112	0.34218752
828.292	0.34255327
828.472	0.34262304
828.651	0.34278388
828.831	0.34277891
829.011	0.34290926
829.19	0.34290601
829.37	0.34314642
829.549	0.34325303
829.729	0.34358576
829.909	0.34387729
830.088	0.34438717
830.268	0.34459409
830.447	0.34494669
830.627	0.34506713
830.806	0.34528444
830.986	0.34534355
831.165	0.34545547
831.344	0.34553725
831.524	0.34553123
831.703	0.34568684
831.883	0.34579473
832.062	0.34589845
832.241	0.34605508
832.421	0.3461805
832.6	0.34628566
832.779	0.34661603
832.958	0.34679041
833.138	0.34690363
833.317	0.34704234
833.496	0.34722372
833.675	0.34738164
833.854	0.34769192
834.034	0.3477559
834.213	0.34790426
834.392	0.34823798
834.571	0.34839118
834.75	0.34857341
834.929	0.34878298
835.108	0.34878368
835.287	0.34896738
835.466	0.34899096
835.645	0.34908755
835.824	0.34914209
836.003	0.34925432
836.182	0.34933287
836.361	0.3494239
836.54	0.3494352
836.719	0.34960024
836.897	0.34956329
837.076	0.34972167
837.255	0.34980686
837.434	0.35001172
837.613	0.35018903
837.791	0.3504328
837.97	0.35059577
838.149	0.35064014
838.328	0.35055701
838.506	0.35049512
838.685	0.35048196
838.864	0.35060147
839.042	0.35060242
839.221	0.35070239
839.4	0.35092215
839.578	0.35112735
839.757	0.35114278
839.935	0.35111817
840.114	0.35107122
840.292	0.35118292
840.471	0.35134713
840.649	0.35145382
840.828	0.3515838
841.006	0.35198153
841.185	0.3521224
841.363	0.35233663
841.541	0.35249089
841.72	0.352685
841.898	0.35293261
842.076	0.35313505
842.255	0.35328121
842.433	0.3535122
842.611	0.35358536
842.789	0.35369832
842.968	0.35371693
843.146	0.35364432
843.324	0.35368205
843.502	0.3535994
843.68	0.35360953
843.859	0.35362202
844.037	0.35357618
844.215	0.35343494
844.393	0.35336102
844.571	0.35334575
844.749	0.35351671
844.927	0.35355425
845.105	0.35349397
845.283	0.35353663
845.461	0.35367684
845.639	0.35380473
845.817	0.35381127
845.995	0.35391367
846.173	0.35397833
846.351	0.35418047
846.529	0.35437531
846.706	0.35438423
846.884	0.3544066
847.062	0.35432588
847.24	0.35403361
847.418	0.35386292
847.595	0.35375465
847.773	0.35363782
847.951	0.35362303
848.129	0.35370231
848.306	0.35389631
848.484	0.35420262
848.662	0.35467238
848.839	0.35510847
849.017	0.35541639
849.194	0.35569791
849.372	0.35600665
849.549	0.35627121
849.727	0.35642524
849.905	0.35621928
850.082	0.35594023
850.26	0.355726
850.437	0.35550924
850.614	0.35532264
850.792	0.35518294
850.969	0.35519763
851.147	0.35531099
851.324	0.35530148
851.501	0.35527254
851.679	0.35522006
851.856	0.35512169
852.033	0.35515878
852.211	0.35489119
852.388	0.35465151
852.565	0.35482142
852.742	0.35491374
852.92	0.35502039
853.097	0.35508163
853.274	0.35497699
853.451	0.35478594
853.628	0.35470866
853.805	0.35446834
853.982	0.35427565
854.159	0.35415354
854.336	0.35409985
854.514	0.3541398
854.691	0.35432986
854.868	0.35455264
855.045	0.35463217
855.221	0.35489052
855.398	0.35507049
855.575	0.35514485
855.752	0.35513419
855.929	0.3553754
856.106	0.35525011
856.283	0.35510227
856.46	0.35472911
856.637	0.35450105
856.813	0.35426079
856.99	0.35418159
857.167	0.35387356
857.344	0.35386128
857.52	0.35388102
857.697	0.35379655
857.874	0.353561
858.05	0.35343279
858.227	0.35335843
858.404	0.35337879
858.58	0.35346184
858.757	0.35344313
858.933	0.35362452
859.11	0.35375366
859.287	0.35359991
859.463	0.35330668
859.64	0.35332641
859.816	0.35317804
859.993	0.35319687
860.169	0.35323786
860.345	0.35311258
860.522	0.35315723
860.698	0.35309611
860.875	0.35285018
861.051	0.3526626
861.227	0.35222127
861.404	0.35191365
861.58	0.35190405
861.756	0.35191999
861.932	0.35210127
862.109	0.35192377
862.285	0.3519752
862.461	0.35226227
862.637	0.3523851
862.813	0.3523881
862.99	0.35234141
863.166	0.35213787
863.342	0.35237134
863.518	0.35214673
863.694	0.35200463
863.87	0.3516254
864.046	0.35137294
864.222	0.35124992
864.398	0.35106038
864.574	0.35060682
864.75	0.35042407
864.926	0.35021202
865.102	0.35033147
865.278	0.35015207
865.454	0.35009562
865.63	0.35005406
865.805	0.35002714
865.981	0.35011483
866.157	0.35012971
866.333	0.34989973
866.509	0.35005756
866.684	0.35002202
866.86	0.35023499
867.036	0.35034441
867.212	0.35018267
867.387	0.35014654
867.563	0.35037441
867.739	0.35036359
867.914	0.35039259
868.09	0.35015304
868.265	0.34998003
868.441	0.34999076
868.617	0.34988623
868.792	0.34962442
868.968	0.34936888
869.143	0.34932377
869.319	0.34922509
869.494	0.34899843
869.67	0.34884031
869.845	0.34862014
870.02	0.34847936
870.196	0.34846087
870.371	0.3481508
870.546	0.34796729
870.722	0.34803559
870.897	0.34789441
871.072	0.34782418
871.248	0.34758436
871.423	0.3472797
871.598	0.34704831
871.773	0.34665391
871.949	0.34619442
872.124	0.34605192
872.299	0.34581242
872.474	0.34559688
872.649	0.34532471
872.824	0.34505249
872.999	0.3450822
873.174	0.34508847
873.349	0.3448789
873.524	0.34462336
873.699	0.34446178
873.874	0.34430295
874.049	0.3440815
874.224	0.3436999
874.399	0.34333432
874.574	0.34305413
874.749	0.34291685
874.924	0.34273208
875.099	0.34251158
875.274	0.34243833
875.449	0.34258236
875.623	0.34235384
875.798	0.34199655
875.973	0.34152783
876.148	0.34104543
876.322	0.3406485
876.497	0.34020571
876.672	0.33968474
876.846	0.33948881
877.021	0.33930759
877.196	0.33906808
877.37	0.33909268
877.545	0.33920851
877.72	0.33922944
877.894	0.33916436
878.069	0.3389737
878.243	0.33870188
878.418	0.33875688
878.592	0.33848271
878.767	0.33813776
878.941	0.33785117
879.116	0.33747201
879.29	0.33738052
879.464	0.3374639
879.639	0.33726911
879.813	0.33741381
879.987	0.33727533
880.162	0.336967
880.336	0.33687179
880.51	0.33670249
880.685	0.33633509
880.859	0.33620566
881.033	0.33580656
881.207	0.33554933
881.381	0.33558893
881.556	0.33550585
881.73	0.33533015
881.904	0.33537167
882.078	0.33496436
882.252	0.33458963
882.426	0.33439265
882.6	0.33408891
882.774	0.3339266
882.948	0.33373757
883.122	0.33320931
883.296	0.33301719
883.47	0.33296991
883.644	0.33288219
883.818	0.33252228
883.992	0.33223536
884.166	0.33199496
884.34	0.33196688
884.514	0.33212717
884.687	0.33209289
884.861	0.33180596
885.035	0.33181476
885.209	0.33174479
885.382	0.33157981
885.556	0.3313002
885.73	0.33101896
885.904	0.33074013
886.077	0.33050452
886.251	0.33029526
886.425	0.33015515
886.598	0.33014431
886.772	0.32991647
886.945	0.32949718
887.119	0.32918862
887.292	0.32908322
887.466	0.32900342
887.64	0.32849339
887.813	0.32805436
887.986	0.32785306
888.16	0.32776862
888.333	0.32751533
888.507	0.32738904
888.68	0.32701262
888.854	0.32697721
889.027	0.32666683
889.2	0.32648134
889.374	0.3259793
889.547	0.32566271
889.72	0.32520017
889.893	0.32466356
890.067	0.32408297
890.24	0.3234974
890.413	0.32300309
890.586	0.32259331
890.759	0.32231792
890.933	0.32204246
891.106	0.32187741
891.279	0.32182106
891.452	0.3220212
891.625	0.32186488
891.798	0.32190435
891.971	0.32179335
892.144	0.32154799
892.317	0.32146245
892.49	0.32108449
892.663	0.32074527
892.836	0.32078615
893.009	0.32058989
893.182	0.32019974
893.355	0.31989538
893.527	0.31947792
893.7	0.31936619
893.873	0.31902668
894.046	0.31824721
894.219	0.31777745
894.391	0.31746919
894.564	0.31725913
894.737	0.3169656
894.91	0.31672506
895.082	0.31633177
895.255	0.31612835
895.428	0.31585871
895.6	0.31567536
895.773	0.31537225
895.945	0.31523448
896.118	0.31487943
896.291	0.31477713
896.463	0.31476323
896.636	0.31454254
896.808	0.31432775
896.981	0.31428884
897.153	0.31404555
897.326	0.31396343
897.498	0.31360845
897.67	0.31318819
897.843	0.31294017
898.015	0.31257567
898.187	0.31198746
898.36	0.31145714
898.532	0.31071793
898.704	0.31045464
898.877	0.31024328
899.049	0.30999482
899.221	0.30988586
899.393	0.30980657
899.566	0.30979818
899.738	0.31010498
899.91	0.31010962
900.082	0.31016157
900.254	0.31013206
900.426	0.3099523
900.598	0.30976335
900.77	0.30946248
900.942	0.30884282
901.114	0.3082357
901.286	0.3075262
901.458	0.30703632
901.63	0.30655293
901.802	0.30615159
901.974	0.30576295
902.146	0.30534751
902.318	0.30514309
902.49	0.30497773
902.662	0.30462958
902.834	0.3043946
903.005	0.3043432
903.177	0.30419912
903.349	0.30421134
903.521	0.30392419
903.693	0.30379075
903.864	0.30366287
904.036	0.30348413
904.208	0.30291867
904.379	0.30269936
904.551	0.30247025
904.723	0.30225592
904.894	0.301672
905.066	0.30129269
905.237	0.30065411
905.409	0.30009235
905.58	0.29950971
905.752	0.29894325
905.923	0.2984288
906.095	0.29808809
906.266	0.29778966
906.438	0.29767361
906.609	0.29771675
906.78	0.29752761
906.952	0.29742451
907.123	0.29708083
907.295	0.29689478
907.466	0.29643614
907.637	0.29592513
907.808	0.29526102
907.98	0.29459889
908.151	0.29392464
908.322	0.29367545
908.493	0.29323127
908.665	0.29291044
908.836	0.29272187
909.007	0.29248384
909.178	0.29227965
909.349	0.29211939
909.52	0.29188239
909.691	0.29162937
909.862	0.29150958
910.033	0.29140807
910.204	0.29139743
910.375	0.2915111
910.546	0.29143615
910.717	0.29117347
910.888	0.29116704
911.059	0.29070038
911.23	0.29019492
911.401	0.28973923
911.572	0.28913419
911.742	0.28858351
911.913	0.28827347
912.084	0.28782863
912.255	0.28756821
912.426	0.28710121
912.596	0.28671184
912.767	0.28662138
912.938	0.28637536
913.108	0.28607737
913.279	0.28554528
913.45	0.28512325
913.62	0.28493817
913.791	0.28465959
913.962	0.28419155
914.132	0.28371989
914.303	0.28322567
914.473	0.28298347
914.644	0.28270877
914.814	0.28236019
914.985	0.28209533
915.155	0.28179026
915.326	0.28151736
915.496	0.2812673
915.666	0.28096219
915.837	0.28076791
916.007	0.2802274
916.177	0.27973777
916.348	0.27925538
916.518	0.27897499
916.688	0.27863768
916.858	0.27831317
917.029	0.2777763
917.199	0.27753688
917.369	0.27731275
917.539	0.27712403
917.709	0.2767334
917.88	0.27615239
918.05	0.27556788
918.22	0.2752481
918.39	0.27508636
918.56	0.274745
918.73	0.27449212
918.9	0.27415007
919.07	0.27402193
919.24	0.27383906
919.41	0.27359931
919.58	0.27309845
919.75	0.27290056
919.92	0.27228792
920.09	0.27203245
920.26	0.27162979
920.429	0.27139064
920.599	0.27093984
920.769	0.27071078
920.939	0.27023933
921.109	0.27014192
921.278	0.26998714
921.448	0.26982985
921.618	0.26962287
921.787	0.26954026
921.957	0.26929124
922.127	0.2688498
922.296	0.26863388
922.466	0.26805145
922.636	0.26770883
922.805	0.26722035
922.975	0.2665538
923.144	0.26609126
923.314	0.2655911
923.483	0.26482885
923.653	0.26421259
923.822	0.26350468
923.992	0.26297835
924.161	0.2627177
924.331	0.26216688
924.5	0.26175509
924.669	0.26142898
924.839	0.26123378
925.008	0.26099885
925.177	0.26039856
925.347	0.25991201
925.516	0.25969079
925.685	0.25956857
925.854	0.25941426
926.023	0.25916081
926.193	0.25915069
926.362	0.25918455
926.531	0.25907295
926.7	0.25876933
926.869	0.25867522
927.038	0.25815935
927.207	0.25780447
927.376	0.25724739
927.545	0.25692982
927.715	0.25652656
927.884	0.25636281
928.052	0.2561305
928.221	0.25582822
928.39	0.25553956
928.559	0.25535347
928.728	0.25513908
928.897	0.25512299
929.066	0.25481552
929.235	0.254181
929.404	0.25415874
929.572	0.25383621
929.741	0.25347371
929.91	0.25299221
930.079	0.25229665
930.247	0.25185946
930.416	0.25164064
930.585	0.2510019
930.753	0.25064592
930.922	0.25024726
931.091	0.25001664
931.259	0.24992489
931.428	0.2498315
931.596	0.24964825
931.765	0.24971387
931.934	0.24954808
932.102	0.24895473
932.27	0.24872672
932.439	0.24830303
932.607	0.24765185
932.776	0.2474962
932.944	0.24702577
933.113	0.24681118
933.281	0.24666159
933.449	0.24615655
933.618	0.24575338
933.786	0.24554781
933.954	0.2448977
934.123	0.24439768
934.291	0.24407936
934.459	0.24381163
934.627	0.24360462
934.795	0.24330077
934.964	0.24275966
935.132	0.24224965
935.3	0.24207059
935.468	0.24136802
935.636	0.24112813
935.804	0.24055207
935.972	0.24015845
936.14	0.23996383
936.308	0.2397394
936.476	0.23930363
936.644	0.23917577
936.812	0.23874852
936.98	0.23855409
937.148	0.23822076
937.316	0.23755307
937.484	0.23743592
937.652	0.23682689
937.82	0.23673196
937.987	0.23625819
938.155	0.23560469
938.323	0.23525324
938.491	0.23489657
938.658	0.23470995
938.826	0.23459818
938.994	0.23393945
939.162	0.23432249
939.329	0.2344435
939.497	0.23433505
939.665	0.23413681
939.832	0.23429397
940	0.23377846
940.167	0.23361904
940.335	0.23219431
940.502	0.23130871
940.67	0.23115622
940.837	0.23145917
941.005	0.23003404
941.172	0.23022317
941.34	0.23040645
941.507	0.23126084
941.674	0.23211514
941.842	0.23052077
942.009	0.23089357
942.177	0.23004598
942.344	0.23037127
942.511	0.22901123
942.678	0.22922524
942.846	0.22795114
943.013	0.22845325
943.18	0.227545
943.347	0.22794531
943.514	0.22646755
943.682	0.227594
943.849	0.22538443
944.016	0.22405535
944.183	0.22499015
944.35	0.22454971
944.517	0.22530213
944.684	0.22565062
944.851	0.22124486
945.018	0.22119805
945.185	0.2211743
945.352	0.21920683
945.519	0.21847621
945.686	0.2161666
945.853	0.21693228
946.02	0.21788936
946.187	0.21728151
946.353	0.21849203
946.52	0.21748267
946.687	0.21613628
946.854	0.21652207
947.021	0.21419594
947.187	0.21462042
947.354	0.21351332
947.521	0.21216395
947.687	0.212549
947.854	0.21319954
948.021	0.2117266
948.187	0.21195199
948.354	0.21138818
948.52	0.2109717
948.687	0.21173627
948.854	0.21256198
949.02	0.21102712
949.187	0.21162052
949.353	0.21144425
949.52	0.21028714
949.686	0.21043864
949.852	0.21011007
950.019	0.20921702
950.185	0.21008935
950.352	0.20947119
950.518	0.2087655
950.684	0.2094188
950.851	0.20884819
951.017	0.20706188
951.183	0.20618753
951.349	0.20513169
951.516	0.20368452
951.682	0.20305756
951.848	0.20170063
952.014	0.20057664
952.18	0.20080211
952.346	0.20056512
952.512	0.19990717
952.679	0.20083334
952.845	0.20072454
953.011	0.20080475
953.177	0.20109824
953.343	0.20040895
953.509	0.20054825
953.675	0.20068731
953.841	0.20016932
954.007	0.20008401
954.172	0.2003743
954.338	0.19962595
954.504	0.19858525
954.67	0.19708815
954.836	0.19683104
955.002	0.19592567
955.167	0.19465892
955.333	0.19313571
955.499	0.19308663
955.665	0.19288056
955.83	0.19276894
955.996	0.19174956
956.162	0.19104678
956.327	0.19066405
956.493	0.19047663
956.659	0.19031908
956.824	0.18987195
956.99	0.18908467
957.155	0.18885561
957.321	0.18885042
957.486	0.18803926
957.652	0.18707438
957.817	0.18675148
957.983	0.18616587
958.148	0.18595775
958.314	0.18566873
958.479	0.18486261
958.644	0.18524844
958.81	0.18573416
958.975	0.18520048
959.14	0.18542421
959.306	0.18530937
959.471	0.18476985
959.636	0.18438121
959.801	0.18472448
959.967	0.18428846
960.132	0.18404791
960.297	0.18355608
960.462	0.18344297
960.627	0.18361213
960.792	0.18323363
960.957	0.18213259
961.123	0.1821931
961.288	0.18159425
961.453	0.18140796
961.618	0.18119942
961.783	0.18093592
961.948	0.18097649
962.113	0.1808054
962.277	0.17996351
962.442	0.17999371
962.607	0.17997951
962.772	0.17952982
962.937	0.1787185
963.102	0.178447
963.267	0.17801168
963.431	0.17792962
963.596	0.17757623
963.761	0.17686766
963.926	0.17650453
964.09	0.17615392
964.255	0.17607511
964.42	0.17579275
964.584	0.17594344
964.749	0.17517647
964.914	0.17521069
965.078	0.17466417
965.243	0.17425121
965.407	0.1737936
965.572	0.17354768
965.736	0.17284223
965.901	0.17313841
966.065	0.17300011
966.23	0.17295421
966.394	0.17321035
966.559	0.17263973
966.723	0.17246582
966.887	0.17219805
967.052	0.17146078
967.216	0.17045039
967.38	0.16938754
967.545	0.16912314
967.709	0.16922199
967.873	0.16896339
968.037	0.16869292
968.202	0.16906396
968.366	0.16943571
968.53	0.17010821
968.694	0.1696496
968.858	0.16956596
969.022	0.16926891
969.187	0.16909037
969.351	0.16855012
969.515	0.16830994
969.679	0.16761892
969.843	0.16721608
970.007	0.16678701
970.171	0.16661938
970.335	0.16609953
970.499	0.16548191
970.662	0.1649515
970.826	0.16501623
970.99	0.16500695
971.154	0.16494726
971.318	0.16480077
971.482	0.16429983
971.645	0.16433651
971.809	0.16405989
971.973	0.1631792
972.137	0.16253449
972.3	0.16199664
972.464	0.16168436
972.628	0.16186731
972.791	0.16177098
972.955	0.16161782
973.119	0.16164534
973.282	0.16137659
973.446	0.16079106
973.609	0.16001897
973.773	0.15951264
973.936	0.15892811
974.1	0.15839632
974.263	0.15816243
974.427	0.15815145
974.59	0.1581523
974.754	0.15803286
974.917	0.15780561
975.08	0.15751072
975.244	0.15716293
975.407	0.15714742
975.57	0.15656799
975.734	0.15582337
975.897	0.1554712
976.06	0.15511979
976.223	0.15464476
976.387	0.15433686
976.55	0.15353309
976.713	0.15297063
976.876	0.15317679
977.039	0.15284218
977.202	0.15227622
977.365	0.15172648
977.528	0.1515003
977.692	0.15120652
977.855	0.15078812
978.018	0.14999632
978.181	0.14981202
978.344	0.14961304
978.506	0.14981249
978.669	0.1496947
978.832	0.14927625
978.995	0.14898848
979.158	0.14938362
979.321	0.14882892
979.484	0.14852131
979.646	0.14851463
979.809	0.14854449
979.972	0.1486541
980.135	0.14906686
980.297	0.14853835
980.46	0.14826733
980.623	0.14842127
980.786	0.14774731
980.948	0.14720861
981.111	0.1467991
981.273	0.14630468
981.436	0.14587574
981.599	0.14585934
981.761	0.14523342
981.924	0.14532842
982.086	0.14475206
982.249	0.14482086
982.411	0.14466368
982.573	0.14421007
982.736	0.1443485
982.898	0.14407557
983.061	0.14341549
983.223	0.14311961
983.385	0.14266431
983.548	0.14266482
983.71	0.14260033
983.872	0.14191026
984.034	0.14174986
984.197	0.14127074
984.359	0.14121498
984.521	0.14091025
984.683	0.14031731
984.845	0.14026877
985.008	0.14006785
985.17	0.13991143
985.332	0.14031288
985.494	0.13969042
985.656	0.13941975
985.818	0.13896085
985.98	0.13869977
986.142	0.13773281
986.304	0.13712331
986.466	0.13624763
986.628	0.13615016
986.79	0.13622592
986.952	0.13616845
987.113	0.13583804
987.275	0.13600643
987.437	0.1360321
987.599	0.13578197
987.761	0.13548753
987.922	0.13479297
988.084	0.13449222
988.246	0.13437003
988.408	0.13446323
988.569	0.13413333
988.731	0.1344753
988.893	0.13423521
989.054	0.1343664
989.216	0.13446204
989.377	0.13369846
989.539	0.13308248
989.701	0.13275308
989.862	0.13219772
990.024	0.13203887
990.185	0.13146911
990.347	0.13112534
990.508	0.13122781
990.669	0.13091879
990.831	0.13094993
990.992	0.13111172
991.154	0.13082425
991.315	0.13121521
991.476	0.13082265
991.638	0.13053458
991.799	0.13062351
991.96	0.13015825
992.121	0.1300311
992.283	0.12969021
992.444	0.12893827
992.605	0.12845539
992.766	0.12835984
992.927	0.12800166
993.088	0.12811531
993.249	0.12726848
993.41	0.1272994
993.572	0.12684993
993.733	0.12719611
993.894	0.12655805
994.055	0.12574469
994.216	0.1250244
994.376	0.12414449
994.537	0.12397345
994.698	0.12382314
994.859	0.12269347
995.02	0.12231499
995.181	0.12199036
995.342	0.12190566
995.503	0.12195632
995.663	0.12093223
995.824	0.1202802
995.985	0.12105577
996.146	0.12116958
996.306	0.12132027
996.467	0.12104299
996.628	0.1211375
996.788	0.12176978
996.949	0.12208364
997.11	0.12135656
997.27	0.12051318
997.431	0.1204617
997.591	0.11948789
997.752	0.11875205
997.912	0.11832069
998.073	0.11779613
998.233	0.11756571
998.394	0.11768019
998.554	0.11743155
998.714	0.11766292
998.875	0.11726664
999.035	0.11650024
999.196	0.11684271
999.356	0.11644529
999.516	0.11610274
999.676	0.11677236
999.837	0.11681205
999.997	0.11671552
1000.157	0.11659588
1000.317	0.11516008
1000.477	0.11487678
1000.638	0.11484928
1000.798	0.11391424
1000.958	0.11416498
1001.118	0.11481374
1001.278	0.11472373
1001.438	0.1151601
1001.598	0.11499782
1001.758	0.11512388
1001.918	0.11459723
1002.078	0.11294311
1002.238	0.11267277
1002.398	0.11267
1002.558	0.11230034
1002.718	0.11235261
1002.878	0.11189468
1003.037	0.11108905
1003.197	0.11173938
1003.357	0.11098494
1003.517	0.11120028
1003.677	0.11083306
1003.836	0.11043921
1003.996	0.11007111
1004.156	0.11049136
1004.315	0.11037695
1004.475	0.11010777
1004.635	0.11000915
1004.794	0.11036739
1004.954	0.10977552
1005.114	0.10878827
1005.273	0.10944985
1005.433	0.10877144
1005.592	0.10909815
1005.752	0.10845489
1005.911	0.10792045
1006.071	0.10790951
1006.23	0.10774084
1006.389	0.10624278
1006.549	0.10661422
1006.708	0.10603444
1006.868	0.10500131
1007.027	0.10534749
1007.186	0.10575477
1007.345	0.10696637
1007.505	0.10722351
1007.664	0.10691095
1007.823	0.10670352
1007.982	0.10678504
1008.142	0.10657604
1008.301	0.10622086
1008.46	0.10544456
1008.619	0.10479761
1008.778	0.10520608
1008.937	0.10558156
1009.096	0.10606189
1009.255	0.10548364
1009.414	0.10442626
1009.573	0.10435723
1009.732	0.10511469
1009.891	0.10426856
1010.05	0.10442193
1010.209	0.1040545
1010.368	0.10410507
1010.527	0.1051227
1010.686	0.10505137
1010.845	0.10416842
1011.003	0.10423522
1011.162	0.10318065
1011.321	0.10266204
1011.48	0.10298774
1011.638	0.10283785
1011.797	0.10345285
1011.956	0.10317504
1012.115	0.10377164
1012.273	0.10350081
1012.432	0.10377199
1012.59	0.10322243
1012.749	0.10228692
1012.908	0.10036285
1013.066	0.10102869
1013.225	0.09967445
1013.383	0.09980571
1013.542	0.09937849
1013.7	0.09902
1013.859	0.099549
1014.017	0.10085315
1014.175	0.09951485
1014.334	0.10060627
1014.492	0.10070548
1014.65	0.10055559
1014.809	0.10044212
1014.967	0.09982791
1015.125	0.09966535
1015.284	0.10183909
1015.442	0.10052383
1015.6	0.10072233
1015.758	0.10088482
1015.916	0.10093032
1016.075	0.10061664
1016.233	0.10009777
1016.391	0.09905506
1016.549	0.09904187
1016.707	0.09821567
1016.865	0.09802252
1017.023	0.09764999
1017.181	0.09770457
1017.339	0.09676229
1017.497	0.09614052
1017.655	0.09602955
1017.813	0.09662606
1017.971	0.09671021
1018.129	0.09657328
1018.286	0.09598537
1018.444	0.09573466
1018.602	0.09577643
1018.76	0.09546096
1018.918	0.09592201
1019.075	0.0950056
1019.233	0.09423995
1019.391	0.09475911
1019.549	0.09638862
1019.706	0.09715377
1019.864	0.09794904
1020.022	0.09696339
1020.179	0.09887252
1020.337	0.10024662
1020.494	0.10062231
1020.652	0.09860011
1020.809	0.09762094
1020.967	0.09642588
1021.124	0.09663065
1021.282	0.09691153
1021.439	0.09602898
1021.597	0.09571124
1021.754	0.09717652
1021.911	0.09783512
1022.069	0.09682489
1022.226	0.09615058
1022.384	0.09361579
1022.541	0.09263006
1022.698	0.09204654
1022.855	0.09225478
1023.013	0.09068125
1023.17	0.09264765
1023.327	0.09331002
1023.484	0.09503129
1023.641	0.09572803
1023.798	0.09663918
1023.956	0.09723977
1024.113	0.09845266
1024.27	0.09757226
1024.427	0.09801821
1024.584	0.09748544
1024.741	0.09803335
1024.898	0.09567231
1025.055	0.09346231
1025.212	0.09175657
1025.369	0.09174721
1025.525	0.09072088
1025.682	0.09011064
1025.839	0.08936714
1025.996	0.09219403
1026.153	0.09086194
1026.31	0.09342284
1026.466	0.09390631
1026.623	0.09478002
1026.78	0.09646214
1026.937	0.09784478
1027.093	0.09609461
1027.25	0.09954399
1027.407	0.09940698
1027.563	0.09923408
1027.72	0.09805917
1027.876	0.09596736
1028.033	0.09609145
1028.19	0.09659582
1028.346	0.09375294
1028.503	0.0941503
1028.659	0.09444004
1028.816	0.09474946
1028.972	0.09624004
1029.128	0.09602484
1029.285	0.09329547
1029.441	0.09467027
1029.598	0.09201039
1029.754	0.09269687
1029.91	0.09139559
1030.067	0.09006215
1030.223	0.08895165
1030.379	0.08897274
1030.535	0.09175847
1030.691	0.09280071
1030.848	0.09194342
1031.004	0.09319227
1031.16	0.09530142
1031.316	0.09715897
1031.472	0.10250484
1031.628	0.09803888
1031.784	0.09785816
1031.94	0.10101255
1032.096	0.10271906
1032.252	0.10323966
1032.408	0.10359845
1032.564	0.10075815
1032.72	0.10387668
1032.876	0.10126418
1033.032	0.09934691
1033.188	0.0987084
1033.344	0.09531604
1033.5	0.09242185
1033.655	0.09260015
1033.811	0.09147918
1033.967	0.0958197
