Data from 1_mm_pl_50pc_Absorbance__0__17-54-23-658.txt Node

Date: Wed Mar 08 17:54:23 CET 2023
User: Ange
Spectrometer: FLMT08341
Trigger mode: 0
Integration Time (sec): 1.000000E-2
Scans to average: 400
Electric dark correction enabled: true
Nonlinearity correction enabled: false
Boxcar width: 3
XAxis mode: Wavelengths
Number of Pixels in Spectrum: 3648
>>>>>Begin Spectral Data<<<<<
345.271	0.01488635
345.487	0.0117007
345.704	0.00001975
345.921	-0.00011921
346.137	0.02541024
346.354	0.02278134
346.571	0.03682345
346.787	0.01708812
347.004	-0.04548601
347.22	-0.12601098
347.437	-0.03940924
347.653	0.54554552
347.87	-0.57540105
348.086	-0.55826535
348.303	0.3799255
348.519	0.29796861
348.736	0.30223427
348.952	0.31292538
349.169	0.32831666
349.385	0.34427581
349.601	0.33898159
349.818	0.33650262
350.034	0.33357458
350.251	0.3324978
350.467	0.33494653
350.683	0.32549875
350.9	0.32403681
351.116	0.31835165
351.332	0.31586843
351.549	0.32516627
351.765	0.33508647
351.981	0.34210094
352.197	0.35334483
352.414	0.36328751
352.63	0.37237497
352.846	0.37962361
353.062	0.37212963
353.278	0.36334998
353.495	0.372482
353.711	0.37409932
353.927	0.37639129
354.143	0.37740009
354.359	0.37895934
354.575	0.37814256
354.792	0.38911625
355.008	0.37772593
355.224	0.37463131
355.44	0.37373929
355.656	0.37188948
355.872	0.37632064
356.088	0.39660708
356.304	0.40008992
356.52	0.40719558
356.736	0.413328
356.952	0.41657779
357.168	0.41882023
357.384	0.421511
357.6	0.407808
357.816	0.40938415
358.032	0.41462575
358.248	0.42206531
358.464	0.42587864
358.679	0.43326356
358.895	0.43368212
359.111	0.4451025
359.327	0.44246657
359.543	0.4456741
359.759	0.45387494
359.974	0.45332252
360.19	0.45061703
360.406	0.45402458
360.622	0.44936538
360.838	0.44929155
361.053	0.45121558
361.269	0.44953224
361.485	0.45229721
361.701	0.45904765
361.916	0.45329871
362.132	0.45644019
362.348	0.460098
362.563	0.46259396
362.779	0.46119397
362.995	0.46672315
363.21	0.47015417
363.426	0.47753454
363.641	0.4783806
363.857	0.4836615
364.073	0.48144923
364.288	0.47871464
364.504	0.48307139
364.719	0.48368165
364.935	0.48424868
365.15	0.48681415
365.366	0.4888645
365.581	0.49547336
365.797	0.50134166
366.012	0.49653996
366.228	0.49348328
366.443	0.50133244
366.658	0.503911
366.874	0.50003966
367.089	0.50541479
367.305	0.50781216
367.52	0.51161254
367.735	0.51427052
367.951	0.51015174
368.166	0.51525563
368.381	0.52526347
368.597	0.52203431
368.812	0.52813925
369.027	0.53253352
369.243	0.53659007
369.458	0.54828244
369.673	0.54835247
369.888	0.55008368
370.104	0.54830401
370.319	0.54805868
370.534	0.54674248
370.749	0.54801184
370.964	0.54828301
371.179	0.54801144
371.395	0.54396827
371.61	0.5504692
371.825	0.54718619
372.04	0.55174552
372.255	0.55035963
372.47	0.54554895
372.685	0.54395897
372.9	0.54363527
373.115	0.54165002
373.33	0.54571821
373.545	0.54621037
373.76	0.55197236
373.975	0.55432597
374.19	0.55473411
374.405	0.55960952
374.62	0.56752636
374.835	0.57523878
375.05	0.57651837
375.265	0.57686836
375.48	0.58001965
375.695	0.59278871
375.91	0.59152048
376.125	0.58492427
376.339	0.57600369
376.554	0.5778538
376.769	0.57951598
376.984	0.57884625
377.199	0.57939199
377.414	0.58050421
377.628	0.58906976
377.843	0.59635128
378.058	0.59837789
378.273	0.60360424
378.487	0.60743369
378.702	0.60824927
378.917	0.612222
379.131	0.60843597
379.346	0.60386917
379.561	0.60325444
379.775	0.60113944
379.99	0.5976126
380.205	0.59211145
380.419	0.58729817
380.634	0.58401811
380.848	0.59086552
381.063	0.59356443
381.278	0.59946068
381.492	0.59871082
381.707	0.60686764
381.921	0.60941995
382.136	0.61785426
382.35	0.61486384
382.565	0.61264352
382.779	0.61160247
382.994	0.61484463
383.208	0.61082348
383.422	0.61745052
383.637	0.61577045
383.851	0.62169255
384.066	0.62683619
384.28	0.62849847
384.494	0.63051019
384.709	0.63549833
384.923	0.63648604
385.137	0.6348864
385.352	0.63570655
385.566	0.6384662
385.78	0.63838168
385.995	0.63676656
386.209	0.63505747
386.423	0.63772825
386.637	0.64218413
386.852	0.63804115
387.066	0.63721617
387.28	0.63630408
387.494	0.64263927
387.708	0.64485817
387.923	0.64427282
388.137	0.64698646
388.351	0.65213301
388.565	0.65510932
388.779	0.65893407
388.993	0.66528021
389.207	0.66691163
389.421	0.66887502
389.635	0.66692461
389.85	0.66634592
390.064	0.66734458
390.278	0.66926265
390.492	0.66963293
390.706	0.67204379
390.92	0.67229896
391.134	0.67894196
391.348	0.68686973
391.561	0.68517292
391.775	0.68408143
391.989	0.67900293
392.203	0.68106799
392.417	0.68420898
392.631	0.68725917
392.845	0.68331984
393.059	0.68895908
393.273	0.68951173
393.486	0.68855508
393.7	0.68476877
393.914	0.68611281
394.128	0.68396648
394.342	0.68344626
394.555	0.67777855
394.769	0.67878771
394.983	0.68218516
395.197	0.68673171
395.41	0.68817425
395.624	0.68990421
395.838	0.69071658
396.051	0.69988537
396.265	0.69861559
396.479	0.70090238
396.692	0.70231369
396.906	0.69989525
397.12	0.69893091
397.333	0.70263399
397.547	0.69915558
397.76	0.70372638
397.974	0.70551057
398.187	0.70736394
398.401	0.71123809
398.614	0.71259672
398.828	0.71275074
399.041	0.71429145
399.255	0.71375201
399.468	0.71297797
399.682	0.71176395
399.895	0.71311292
400.109	0.71284381
400.322	0.71221438
400.536	0.70893381
400.749	0.71294489
400.962	0.71415198
401.176	0.71407412
401.389	0.71245093
401.602	0.70874262
401.816	0.71100198
402.029	0.71524725
402.242	0.71296122
402.456	0.71304912
402.669	0.71126547
402.882	0.70818635
403.095	0.71493547
403.309	0.71414634
403.522	0.71486982
403.735	0.71402035
403.948	0.71412124
404.161	0.72111807
404.375	0.72420049
404.588	0.72378827
404.801	0.72476858
405.014	0.72346428
405.227	0.72717014
405.44	0.72911761
405.653	0.72879636
405.866	0.72669938
406.079	0.72548294
406.293	0.72519134
406.506	0.7254427
406.719	0.72403006
406.932	0.72198323
407.145	0.71794552
407.358	0.72217577
407.571	0.72008977
407.784	0.72032929
407.996	0.72099209
408.209	0.71827729
408.422	0.71735353
408.635	0.71871232
408.848	0.71806851
409.061	0.7163231
409.274	0.7157781
409.487	0.71428096
409.7	0.71537541
409.912	0.71663065
410.125	0.7164332
410.338	0.71494412
410.551	0.71558187
410.764	0.71536937
410.976	0.71556186
411.189	0.71550917
411.402	0.71304053
411.615	0.71279971
411.827	0.71290653
412.04	0.71323789
412.253	0.71192108
412.465	0.70997429
412.678	0.70760208
412.891	0.70948783
413.103	0.70581551
413.316	0.70438832
413.529	0.70631267
413.741	0.70777187
413.954	0.70919081
414.166	0.71007991
414.379	0.70822727
414.591	0.70988984
414.804	0.7081258
415.016	0.70587976
415.229	0.70384556
415.441	0.70130465
415.654	0.70196025
415.866	0.70225429
416.079	0.7021459
416.291	0.70182886
416.504	0.70289536
416.716	0.70269788
416.928	0.70259183
417.141	0.70027414
417.353	0.6996878
417.566	0.69632138
417.778	0.69600292
417.99	0.69153642
418.203	0.68884396
418.415	0.68795262
418.627	0.68768804
418.839	0.68542249
419.052	0.68718651
419.264	0.6859871
419.476	0.68688183
419.688	0.68677769
419.901	0.68552992
420.113	0.68350997
420.325	0.68221362
420.537	0.67903382
420.749	0.67866503
420.961	0.67732413
421.174	0.67517905
421.386	0.67351779
421.598	0.67223301
421.81	0.67105335
422.022	0.66964685
422.234	0.66815078
422.446	0.66591022
422.658	0.66415507
422.87	0.66316478
423.082	0.66166654
423.294	0.65987712
423.506	0.65892425
423.718	0.65701605
423.93	0.65483025
424.142	0.65337496
424.354	0.65104548
424.566	0.64905268
424.778	0.6479112
424.99	0.64590476
425.202	0.64372866
425.414	0.64281388
425.625	0.64254737
425.837	0.64022511
426.049	0.63964347
426.261	0.63720767
426.473	0.63486674
426.684	0.63333196
426.896	0.63226915
427.108	0.62944442
427.32	0.62903
427.531	0.6266014
427.743	0.62521597
427.955	0.62539844
428.167	0.62257194
428.378	0.62025346
428.59	0.61871427
428.802	0.61655262
429.013	0.61442613
429.225	0.61199296
429.436	0.60889525
429.648	0.60818097
429.86	0.60671138
430.071	0.60517739
430.283	0.60353865
430.494	0.60148728
430.706	0.60042391
430.917	0.59826227
431.129	0.59638815
431.34	0.5941244
431.552	0.59226409
431.763	0.58978127
431.975	0.58877077
432.186	0.58580145
432.398	0.58410961
432.609	0.58048108
432.821	0.57849481
433.032	0.57608486
433.243	0.57389627
433.455	0.57121329
433.666	0.56982365
433.877	0.56857274
434.089	0.56667185
434.3	0.56421355
434.511	0.56126062
434.723	0.55892653
434.934	0.55614305
435.145	0.55301115
435.356	0.54961626
435.568	0.54780832
435.779	0.54546145
435.99	0.54247682
436.201	0.5403639
436.412	0.53795579
436.624	0.53644592
436.835	0.53502144
437.046	0.53333916
437.257	0.53115795
437.468	0.53074371
437.679	0.529142
437.89	0.52729401
438.101	0.52568591
438.312	0.5233462
438.523	0.52068228
438.734	0.51880462
438.945	0.51608767
439.156	0.51295416
439.367	0.51085944
439.578	0.50863605
439.789	0.50567993
440	0.50405917
440.211	0.50146074
440.422	0.49920452
440.633	0.4975134
440.844	0.49480487
441.055	0.49211142
441.266	0.49062398
441.477	0.48747503
441.687	0.48529901
441.898	0.48330653
442.109	0.48079889
442.32	0.4785867
442.531	0.47569393
442.741	0.4722594
442.952	0.47008938
443.163	0.46794792
443.374	0.46513754
443.584	0.46274918
443.795	0.46078429
444.006	0.45901752
444.216	0.45695418
444.427	0.45443851
444.638	0.451952
444.848	0.4496189
445.059	0.44719502
445.27	0.44453808
445.48	0.44163178
445.691	0.43978041
445.901	0.43798126
446.112	0.43570638
446.323	0.43318484
446.533	0.43071201
446.744	0.42816181
446.954	0.42590228
447.165	0.42341136
447.375	0.42121249
447.586	0.41907329
447.796	0.41708097
448.006	0.41484388
448.217	0.41292975
448.427	0.41094312
448.638	0.40861207
448.848	0.40614361
449.058	0.403634
449.269	0.40137696
449.479	0.39922319
449.689	0.39683183
449.9	0.39444738
450.11	0.39205285
450.32	0.39013535
450.531	0.38773584
450.741	0.38543393
450.951	0.3833875
451.161	0.3811226
451.372	0.37898936
451.582	0.377527
451.792	0.37485719
452.002	0.37274047
452.212	0.37039381
452.422	0.36817911
452.633	0.36610821
452.843	0.36437494
453.053	0.36147069
453.263	0.35986442
453.473	0.35786036
453.683	0.35615235
453.893	0.35401898
454.103	0.35236811
454.313	0.35034774
454.523	0.3485774
454.733	0.34641504
454.943	0.3447442
455.153	0.3429249
455.363	0.34099208
455.573	0.33888912
455.783	0.33703088
455.993	0.33490432
456.203	0.33328052
456.413	0.33143399
456.623	0.32928864
456.833	0.32797816
457.042	0.32609757
457.252	0.32425028
457.462	0.32263226
457.672	0.32075087
457.882	0.31886226
458.091	0.31710494
458.301	0.31474292
458.511	0.31301154
458.721	0.31102711
458.931	0.30919665
459.14	0.30755967
459.35	0.3059
459.56	0.30441517
459.769	0.30300039
459.979	0.30121602
460.189	0.29967011
460.398	0.29784144
460.608	0.29627163
460.817	0.29452802
461.027	0.29288718
461.237	0.29121471
461.446	0.28962797
461.656	0.28836897
461.865	0.28696061
462.075	0.28536652
462.284	0.28399773
462.494	0.28250898
462.703	0.2808248
462.913	0.27947003
463.122	0.27775684
463.332	0.27636251
463.541	0.27514736
463.751	0.27368732
463.96	0.27223018
464.169	0.27106265
464.379	0.2698571
464.588	0.26867151
464.797	0.26744072
465.007	0.26619842
465.216	0.26514692
465.425	0.26419641
465.635	0.26319387
465.844	0.26208813
466.053	0.26098278
466.263	0.25974377
466.472	0.25830074
466.681	0.25717644
466.89	0.25587861
467.099	0.25471634
467.309	0.25359914
467.518	0.25261475
467.727	0.25180148
467.936	0.25090215
468.145	0.24988806
468.354	0.24905468
468.563	0.24800813
468.772	0.2468491
468.982	0.24575089
469.191	0.24488887
469.4	0.24394653
469.609	0.24294078
469.818	0.24207882
470.027	0.24128873
470.236	0.24047394
470.445	0.23958813
470.654	0.23848629
470.863	0.23761391
471.072	0.23687581
471.28	0.23586233
471.489	0.23508647
471.698	0.23442993
471.907	0.23369886
472.116	0.23307945
472.325	0.23246722
472.534	0.23180842
472.743	0.23113047
472.951	0.23056156
473.16	0.22997294
473.369	0.22936242
473.578	0.22879886
473.786	0.22823267
473.995	0.22769752
474.204	0.22734141
474.413	0.22662629
474.621	0.22604962
474.83	0.22565319
475.039	0.22516987
475.247	0.22464902
475.456	0.22414965
475.665	0.22349672
475.873	0.22296982
476.082	0.22231272
476.291	0.22174429
476.499	0.22137389
476.708	0.22090944
476.916	0.22056692
477.125	0.22036861
477.333	0.22014629
477.542	0.21998917
477.75	0.21965867
477.959	0.21928058
478.167	0.21908511
478.376	0.21860488
478.584	0.21824373
478.793	0.21793778
479.001	0.21766442
479.209	0.21741869
479.418	0.21718336
479.626	0.21685545
479.834	0.21673192
480.043	0.21655338
480.251	0.21641
480.459	0.21625566
480.668	0.21619178
480.876	0.21607902
481.084	0.2160008
481.293	0.21590301
481.501	0.2157466
481.709	0.21570934
481.917	0.21559267
482.125	0.21554684
482.334	0.21547707
482.542	0.21550601
482.75	0.21553144
482.958	0.21566949
483.166	0.21568387
483.374	0.215797
483.583	0.21586511
483.791	0.21590615
483.999	0.21587525
484.207	0.21593857
484.415	0.21598924
484.623	0.21600905
484.831	0.21608553
485.039	0.21615273
485.247	0.21633587
485.455	0.21646615
485.663	0.21653194
485.871	0.21659081
486.079	0.21671029
486.287	0.21685451
486.495	0.21700718
486.702	0.21711615
486.91	0.21733877
487.118	0.21757887
487.326	0.21780648
487.534	0.2181725
487.742	0.21847701
487.95	0.21870669
488.157	0.21898298
488.365	0.21927647
488.573	0.21961149
488.781	0.22000285
488.988	0.22038217
489.196	0.22074935
489.404	0.22117773
489.612	0.22160599
489.819	0.22203452
490.027	0.22242061
490.235	0.22275937
490.442	0.22306859
490.65	0.22338738
490.857	0.22381148
491.065	0.22421767
491.273	0.22467544
491.48	0.22515737
491.688	0.2256397
491.895	0.22621685
492.103	0.22682358
492.31	0.22741375
492.518	0.22789154
492.725	0.22835393
492.933	0.228807
493.14	0.22918908
493.348	0.22958537
493.555	0.23001102
493.763	0.23038319
493.97	0.23104838
494.177	0.23161408
494.385	0.23225363
494.592	0.23293229
494.8	0.2335211
495.007	0.23422142
495.214	0.2349234
495.422	0.23562554
495.629	0.23638576
495.836	0.23706315
496.043	0.23785829
496.251	0.23859974
496.458	0.23918847
496.665	0.23979913
496.872	0.24037265
497.08	0.24095623
497.287	0.24157734
497.494	0.24228061
497.701	0.24295018
497.908	0.2437477
498.115	0.24445375
498.322	0.24514859
498.53	0.24584851
498.737	0.24665343
498.944	0.24731684
499.151	0.24805548
499.358	0.24875093
499.565	0.2496142
499.772	0.25039876
499.979	0.2512613
500.186	0.25210438
500.393	0.25297858
500.6	0.25389333
500.807	0.25482195
501.014	0.2557031
501.221	0.25668146
501.427	0.2575739
501.634	0.2584704
501.841	0.25936315
502.048	0.26021246
502.255	0.2609803
502.462	0.26183874
502.669	0.26268569
502.875	0.26352875
503.082	0.26431606
503.289	0.26509915
503.496	0.26593512
503.702	0.26688622
503.909	0.26784746
504.116	0.26880651
504.323	0.26976717
504.529	0.27077497
504.736	0.27176571
504.943	0.27277024
505.149	0.27376733
505.356	0.27478672
505.563	0.27581664
505.769	0.27684339
505.976	0.27783945
506.182	0.27899609
506.389	0.28011465
506.595	0.28127818
506.802	0.2822494
507.008	0.28321516
507.215	0.28426914
507.421	0.28529708
507.628	0.28624983
507.834	0.28724861
508.041	0.28817678
508.247	0.28919996
508.454	0.29036694
508.66	0.29140853
508.866	0.29241408
509.073	0.29351537
509.279	0.29455162
509.486	0.29554163
509.692	0.29649239
509.898	0.29747468
510.105	0.29855171
510.311	0.29968714
510.517	0.30075072
510.723	0.30183782
510.93	0.30296554
511.136	0.30416051
511.342	0.30523843
511.548	0.30628031
511.754	0.30737842
511.961	0.30850954
512.167	0.30959521
512.373	0.31076863
512.579	0.31201472
512.785	0.31319413
512.991	0.31447099
513.197	0.31574216
513.404	0.31701959
513.61	0.31837222
513.816	0.31956362
514.022	0.32073875
514.228	0.32191063
514.434	0.32304863
514.64	0.32417951
514.846	0.32534806
515.052	0.32638299
515.258	0.32752232
515.464	0.32864663
515.669	0.32982043
515.875	0.33099284
516.081	0.33224228
516.287	0.33354868
516.493	0.3349264
516.699	0.33620727
516.905	0.3374324
517.111	0.33861802
517.316	0.33985991
517.522	0.34103938
517.728	0.34214183
517.934	0.34331601
518.139	0.344526
518.345	0.34574414
518.551	0.34708129
518.757	0.34822392
518.962	0.3494089
519.168	0.35066237
519.374	0.35179423
519.579	0.3530026
519.785	0.35433378
519.991	0.35564829
520.196	0.35701117
520.402	0.35831862
520.607	0.35965703
520.813	0.36115208
521.018	0.36239863
521.224	0.36359611
521.429	0.36489613
521.635	0.36626322
521.84	0.3675504
522.046	0.36887212
522.251	0.37010851
522.457	0.37146055
522.662	0.37284161
522.868	0.37408447
523.073	0.37524316
523.279	0.37654025
523.484	0.37765942
523.689	0.37887087
523.895	0.38022541
524.1	0.38151298
524.305	0.38286923
524.511	0.38423447
524.716	0.38556586
524.921	0.38689561
525.126	0.38819254
525.332	0.38941621
525.537	0.3907141
525.742	0.39200343
525.947	0.39333978
526.153	0.39463171
526.358	0.39598157
526.563	0.39736709
526.768	0.39870125
526.973	0.40003899
527.178	0.4013422
527.383	0.40256532
527.588	0.40379494
527.794	0.40502057
527.999	0.40629824
528.204	0.40758953
528.409	0.4088366
528.614	0.41016995
528.819	0.41148361
529.024	0.4127169
529.229	0.41393304
529.434	0.41526562
529.639	0.4165153
529.843	0.41784119
530.048	0.41904849
530.253	0.42038792
530.458	0.42188633
530.663	0.42330268
530.868	0.42463635
531.073	0.4259678
531.278	0.42715184
531.482	0.42841973
531.687	0.42973919
531.892	0.43097693
532.097	0.43223947
532.302	0.4334541
532.506	0.43474184
532.711	0.43605299
532.916	0.43740942
533.12	0.43869767
533.325	0.43998606
533.53	0.44134064
533.734	0.44269457
533.939	0.44398908
534.144	0.445337
534.348	0.44663544
534.553	0.44798005
534.757	0.44927646
534.962	0.4506032
535.167	0.45192664
535.371	0.45321491
535.576	0.45455334
535.78	0.4558807
535.985	0.457107
536.189	0.45829031
536.394	0.45954134
536.598	0.4607746
536.803	0.46203198
537.007	0.46321253
537.211	0.46447328
537.416	0.46562449
537.62	0.46692045
537.825	0.46815044
538.029	0.469544
538.233	0.47086332
538.438	0.47226648
538.642	0.47343675
538.846	0.4748656
539.05	0.47613342
539.255	0.47736439
539.459	0.47857944
539.663	0.47983646
539.867	0.48105283
540.072	0.48242814
540.276	0.48371316
540.48	0.48515836
540.684	0.48647661
540.888	0.4878036
541.092	0.48903955
541.297	0.49029028
541.501	0.49152168
541.705	0.49277122
541.909	0.49384085
542.113	0.49493814
542.317	0.49608713
542.521	0.49737274
542.725	0.49864588
542.929	0.49986656
543.133	0.50097335
543.337	0.50220786
543.541	0.50355716
543.745	0.50471983
543.949	0.5059326
544.153	0.50704502
544.357	0.50817635
544.56	0.50947392
544.764	0.51073999
544.968	0.51192355
545.172	0.51312628
545.376	0.51436805
545.58	0.51563836
545.783	0.51687745
545.987	0.51791707
546.191	0.51903121
546.395	0.52022346
546.598	0.52142401
546.802	0.52258198
547.006	0.52376603
547.21	0.52479608
547.413	0.52610409
547.617	0.52739741
547.821	0.52859816
548.024	0.52982569
548.228	0.53090229
548.431	0.53198258
548.635	0.53322516
548.839	0.53430528
549.042	0.5353876
549.246	0.53637818
549.449	0.53746356
549.653	0.53860659
549.856	0.53976227
550.06	0.54083271
550.263	0.54199422
550.467	0.54316787
550.67	0.54450211
550.874	0.54567665
551.077	0.54703994
551.28	0.54829154
551.484	0.54955668
551.687	0.55072259
551.891	0.55193332
552.094	0.55294179
552.297	0.55404106
552.501	0.55501397
552.704	0.55617961
552.907	0.55722722
553.11	0.5582618
553.314	0.55921952
553.517	0.56019522
553.72	0.56127195
553.923	0.56228499
554.127	0.56337269
554.33	0.56438678
554.533	0.56549462
554.736	0.56648107
554.939	0.56761048
555.142	0.56867322
555.345	0.56972267
555.549	0.57069581
555.752	0.5716857
555.955	0.57268943
556.158	0.5738889
556.361	0.57487752
556.564	0.5759382
556.767	0.57708438
556.97	0.57813847
557.173	0.57924972
557.376	0.5803204
557.579	0.5812301
557.782	0.58228175
557.984	0.5833528
558.187	0.58432428
558.39	0.58518959
558.593	0.58628852
558.796	0.58723364
558.999	0.58814112
559.202	0.58916274
559.404	0.58986537
559.607	0.5907772
559.81	0.5917429
560.013	0.59258436
560.216	0.5936043
560.418	0.59469158
560.621	0.59559093
560.824	0.59669032
561.026	0.59768682
561.229	0.59867344
561.432	0.59961604
561.634	0.60055801
561.837	0.60139752
562.04	0.60237271
562.242	0.60337014
562.445	0.60416137
562.647	0.60510111
562.85	0.60590435
563.053	0.60669683
563.255	0.60760242
563.458	0.60848119
563.66	0.60929407
563.863	0.6103492
564.065	0.6112214
564.268	0.61218166
564.47	0.61317251
564.672	0.61397828
564.875	0.61487675
565.077	0.61572815
565.28	0.61648051
565.482	0.61732804
565.684	0.61816587
565.887	0.61894568
566.089	0.61994026
566.291	0.62074003
566.494	0.6215887
566.696	0.62233357
566.898	0.62317493
567.1	0.62401364
567.303	0.62482926
567.505	0.62549826
567.707	0.62619754
567.909	0.62685141
568.111	0.62772998
568.314	0.62847365
568.516	0.62922155
568.718	0.62994954
568.92	0.63078854
569.122	0.63166
569.324	0.63251859
569.526	0.63311799
569.728	0.6339241
569.93	0.63460427
570.132	0.63530988
570.334	0.63594212
570.536	0.63646021
570.738	0.63701593
570.94	0.63767576
571.142	0.63835334
571.344	0.63891023
571.546	0.63945243
571.748	0.64015542
571.95	0.64078864
572.152	0.64152352
572.354	0.64224923
572.555	0.64294734
572.757	0.64384193
572.959	0.64459891
573.161	0.64511528
573.363	0.64579832
573.564	0.64654443
573.766	0.64710283
573.968	0.64765278
574.17	0.64796158
574.371	0.64853942
574.573	0.6492404
574.775	0.64978843
574.976	0.65028194
575.178	0.65077145
575.38	0.65115548
575.581	0.65167245
575.783	0.65216865
575.985	0.65260328
576.186	0.65310695
576.388	0.65346166
576.589	0.65393987
576.791	0.65457823
576.992	0.65519918
577.194	0.65571835
577.395	0.65623486
577.597	0.65685396
577.798	0.65756165
578	0.65812882
578.201	0.65860369
578.402	0.65909522
578.604	0.65947679
578.805	0.66000863
579.007	0.66041376
579.208	0.66083558
579.409	0.66136757
579.611	0.66176229
579.812	0.66229861
580.013	0.66282957
580.215	0.66302113
580.416	0.66341691
580.617	0.66373409
580.818	0.66419366
581.019	0.66459955
581.221	0.66494101
581.422	0.66531608
581.623	0.66598142
581.824	0.66629905
582.025	0.66676736
582.226	0.66712168
582.428	0.66753851
582.629	0.66786943
582.83	0.66817466
583.031	0.66831977
583.232	0.66875163
583.433	0.66910529
583.634	0.66925242
583.835	0.66948521
584.036	0.66978107
584.237	0.67008632
584.438	0.67038693
584.639	0.67051759
584.84	0.67065413
585.041	0.67077663
585.242	0.67092964
585.442	0.67102471
585.643	0.67131623
585.844	0.67148785
586.045	0.67181721
586.246	0.67196379
586.447	0.67227455
586.647	0.67245157
586.848	0.6727021
587.049	0.67276489
587.25	0.67286045
587.45	0.67289519
587.651	0.67311441
587.852	0.67321537
588.053	0.67345789
588.253	0.6735149
588.454	0.67359104
588.655	0.67366384
588.855	0.6736694
589.056	0.67373713
589.256	0.67401232
589.457	0.67414736
589.658	0.67436828
589.858	0.67440999
590.059	0.67469478
590.259	0.6750066
590.46	0.67506304
590.66	0.67507334
590.861	0.67507
591.061	0.67495781
591.262	0.67512733
591.462	0.67505887
591.662	0.67495165
591.863	0.67489887
592.063	0.67491303
592.264	0.67491315
592.464	0.6750784
592.664	0.67511438
592.865	0.67527802
593.065	0.6751962
593.265	0.67532111
593.465	0.67525495
593.666	0.67521162
593.866	0.67514064
594.066	0.6751458
594.266	0.67505009
594.467	0.6749931
594.667	0.67490224
594.867	0.67486234
595.067	0.67474884
595.267	0.67460615
595.467	0.67436612
595.668	0.67411225
595.868	0.67404469
596.068	0.67387079
596.268	0.67362412
596.468	0.67349433
596.668	0.67337198
596.868	0.67324389
597.068	0.67325472
597.268	0.67315173
597.468	0.67298562
597.668	0.67288208
597.868	0.672761
598.068	0.67258903
598.268	0.67250834
598.467	0.67233117
598.667	0.67216046
598.867	0.6719627
599.067	0.67185454
599.267	0.67169583
599.467	0.6714051
599.667	0.67099897
599.866	0.67067602
600.066	0.67043541
600.266	0.67004897
600.466	0.66963823
600.665	0.66924111
600.865	0.66887815
601.065	0.66863547
601.264	0.66822039
601.464	0.66782099
601.664	0.66758218
601.863	0.66730668
602.063	0.66700205
602.263	0.66663244
602.462	0.6663603
602.662	0.66618819
602.861	0.66584713
603.061	0.66556294
603.26	0.6651458
603.46	0.6648121
603.659	0.66466947
603.859	0.66441667
604.058	0.66407019
604.258	0.66384096
604.457	0.66370434
604.657	0.66340531
604.856	0.66308214
605.056	0.66269282
605.255	0.66223622
605.454	0.66180184
605.654	0.66125099
605.853	0.66071015
606.052	0.66015859
606.252	0.65962066
606.451	0.65916421
606.65	0.6588026
606.849	0.65822792
607.049	0.65786112
607.248	0.65722118
607.447	0.65674036
607.646	0.6564036
607.845	0.65586533
608.045	0.65503442
608.244	0.65467126
608.443	0.65406862
608.642	0.65368316
608.841	0.65324232
609.04	0.65266921
609.239	0.65222426
609.438	0.65190539
609.637	0.65138071
609.836	0.65092708
610.035	0.65041975
610.234	0.64992536
610.433	0.64937804
610.632	0.64882527
610.831	0.64831626
611.03	0.647694
611.229	0.64725028
611.428	0.64675881
611.627	0.64621646
611.826	0.64570902
612.025	0.64529816
612.224	0.64465226
612.422	0.64411883
612.621	0.64335749
612.82	0.64267998
613.019	0.64208971
613.218	0.64145535
613.416	0.64061227
613.615	0.64001958
613.814	0.63932655
614.012	0.63875309
614.211	0.63798687
614.41	0.6372671
614.608	0.63652559
614.807	0.63584683
615.006	0.63517714
615.204	0.63440142
615.403	0.63379266
615.602	0.63325562
615.8	0.63270705
615.999	0.63195734
616.197	0.63138672
616.396	0.63079101
616.594	0.63021476
616.793	0.62950533
616.991	0.6287256
617.19	0.62791193
617.388	0.62742702
617.586	0.62663743
617.785	0.62575091
617.983	0.62496519
618.182	0.62415251
618.38	0.62332841
618.578	0.62261372
618.777	0.62180257
618.975	0.62107876
619.173	0.62033577
619.372	0.61959025
619.57	0.61876357
619.768	0.61818735
619.966	0.61736718
620.165	0.61651835
620.363	0.61585593
620.561	0.61508186
620.759	0.61438282
620.957	0.61373628
621.155	0.61283966
621.354	0.61200892
621.552	0.61131671
621.75	0.61030078
621.948	0.60955608
622.146	0.60866082
622.344	0.60770419
622.542	0.60690188
622.74	0.60602014
622.938	0.60511253
623.136	0.60440436
623.334	0.60370224
623.532	0.60285011
623.73	0.60215062
623.928	0.60142323
624.126	0.60067758
624.324	0.59989639
624.522	0.59896479
624.719	0.59786101
624.917	0.5971015
625.115	0.5961619
625.313	0.59531953
625.511	0.59453628
625.708	0.59354741
625.906	0.59263897
626.104	0.59180377
626.302	0.59092215
626.499	0.59001529
626.697	0.5889551
626.895	0.58784741
627.093	0.5869151
627.29	0.58604514
627.488	0.5851556
627.686	0.58414501
627.883	0.58308048
628.081	0.58199349
628.278	0.58114552
628.476	0.58013231
628.673	0.57910922
628.871	0.57815893
629.068	0.57723284
629.266	0.57636235
629.463	0.57552346
629.661	0.57462852
629.858	0.57370698
630.056	0.57277655
630.253	0.57181606
630.451	0.57078322
630.648	0.56974904
630.845	0.56874876
631.043	0.5676913
631.24	0.56684414
631.438	0.56591029
631.635	0.56499825
631.832	0.56390045
632.029	0.56301071
632.227	0.56190833
632.424	0.56081042
632.621	0.5596097
632.818	0.5584893
633.016	0.55733999
633.213	0.5564272
633.41	0.55538655
633.607	0.55447952
633.804	0.55356859
634.001	0.55254033
634.199	0.55147794
634.396	0.55046427
634.593	0.54930912
634.79	0.54829684
634.987	0.54722639
635.184	0.54617087
635.381	0.54522219
635.578	0.54423361
635.775	0.54306249
635.972	0.54204361
636.169	0.54090255
636.366	0.53983921
636.563	0.53868222
636.76	0.53753455
636.957	0.53651278
637.153	0.53546986
637.35	0.53462627
637.547	0.53372596
637.744	0.53264583
637.941	0.53182796
638.138	0.53088894
638.334	0.52978811
638.531	0.52890491
638.728	0.52777821
638.925	0.52670818
639.121	0.52570225
639.318	0.52454074
639.515	0.52330396
639.711	0.52225414
639.908	0.52081684
640.105	0.51949346
640.301	0.5182305
640.498	0.51708487
640.695	0.51600238
640.891	0.51502177
641.088	0.5139848
641.284	0.51314273
641.481	0.51231577
641.677	0.51132534
641.874	0.51017841
642.07	0.50914825
642.267	0.50818192
642.463	0.50700797
642.66	0.50597556
642.856	0.50480476
643.053	0.50364186
643.249	0.50265482
643.445	0.50147913
643.642	0.50015769
643.838	0.49908743
644.034	0.49786731
644.231	0.49662659
644.427	0.4955008
644.623	0.49428935
644.82	0.49322431
645.016	0.49225772
645.212	0.49104414
645.408	0.49007
645.604	0.48923692
645.801	0.48823842
645.997	0.48719784
646.193	0.48606502
646.389	0.48501704
646.585	0.48408602
646.781	0.4829174
646.977	0.48179795
647.173	0.48071968
647.37	0.47965361
647.566	0.47852744
647.762	0.47742671
647.958	0.47640531
648.154	0.4752856
648.35	0.47420867
648.546	0.47305593
648.742	0.47202752
648.937	0.47084456
649.133	0.46971883
649.329	0.46854659
649.525	0.46747597
649.721	0.46625366
649.917	0.46525537
650.113	0.46399703
650.309	0.46310392
650.504	0.46192747
650.7	0.46083966
650.896	0.45973034
651.092	0.4586641
651.287	0.45750513
651.483	0.45650286
651.679	0.45536847
651.875	0.45441226
652.07	0.45330368
652.266	0.45220016
652.462	0.45115859
652.657	0.44996683
652.853	0.4488181
653.048	0.44760673
653.244	0.44629513
653.44	0.44518407
653.635	0.44400949
653.831	0.44289582
654.026	0.44196141
654.222	0.44082413
654.417	0.43981091
654.613	0.43871768
654.808	0.43748933
655.004	0.43641439
655.199	0.43518096
655.394	0.43396816
655.59	0.43293674
655.785	0.43168451
655.98	0.43059115
656.176	0.42937764
656.371	0.42836209
656.566	0.42726527
656.762	0.42604535
656.957	0.4248336
657.152	0.42381
657.348	0.42272558
657.543	0.42178419
657.738	0.42053894
657.933	0.41938714
658.128	0.41824361
658.324	0.41711409
658.519	0.41594543
658.714	0.41486069
658.909	0.41371456
659.104	0.4126697
659.299	0.41155375
659.494	0.41047669
659.689	0.40940436
659.884	0.40822907
660.079	0.40702028
660.274	0.40581109
660.469	0.40464793
660.664	0.40357529
660.859	0.40242258
661.054	0.40132068
661.249	0.40028215
661.444	0.39916805
661.639	0.39805418
661.834	0.39691002
662.029	0.39579857
662.224	0.39470034
662.418	0.39355978
662.613	0.39254856
662.808	0.39149628
663.003	0.39054475
663.198	0.38946235
663.392	0.38828385
663.587	0.38738272
663.782	0.38620616
663.977	0.38495905
664.171	0.38393603
664.366	0.38274019
664.561	0.38168011
664.755	0.38063413
664.95	0.37948124
665.144	0.37846145
665.339	0.37755493
665.534	0.37653262
665.728	0.37559158
665.923	0.37458694
666.117	0.37352987
666.312	0.37239242
666.506	0.37139234
666.701	0.37019674
666.895	0.3690312
667.09	0.36780306
667.284	0.36681828
667.479	0.36579757
667.673	0.36475936
667.867	0.36365919
668.062	0.36256891
668.256	0.36145551
668.45	0.36052838
668.645	0.35928899
668.839	0.35818409
669.033	0.35708494
669.228	0.3560795
669.422	0.35505085
669.616	0.35407625
669.81	0.35303808
670.004	0.3520623
670.199	0.35107925
670.393	0.3501096
670.587	0.34898926
670.781	0.34801106
670.975	0.34696366
671.169	0.34585284
671.363	0.34476436
671.558	0.34370476
671.752	0.34269598
671.946	0.34178694
672.14	0.34073969
672.334	0.3396264
672.528	0.33864008
672.722	0.33750278
672.916	0.33652529
673.11	0.33545072
673.304	0.334532
673.497	0.33354276
673.691	0.33267468
673.885	0.33163894
674.079	0.33075736
674.273	0.32972117
674.467	0.32877666
674.661	0.32762972
674.854	0.32651534
675.048	0.32549837
675.242	0.32460703
675.436	0.32371489
675.629	0.32276689
675.823	0.32171413
676.017	0.32079406
676.211	0.31988338
676.404	0.31889357
676.598	0.31784804
676.792	0.31689282
676.985	0.31596448
677.179	0.31506134
677.372	0.31408022
677.566	0.31314359
677.76	0.31211122
677.953	0.3110959
678.147	0.31006098
678.34	0.30909695
678.534	0.30816763
678.727	0.30734461
678.921	0.3065744
679.114	0.30580655
679.307	0.30506466
679.501	0.30424528
679.694	0.30333053
679.888	0.30238666
680.081	0.30142254
680.274	0.30036053
680.468	0.29937906
680.661	0.29836075
680.854	0.29740957
681.048	0.29638075
681.241	0.29530739
681.434	0.29421106
681.627	0.29311522
681.821	0.29203175
682.014	0.2910707
682.207	0.29004752
682.4	0.2891591
682.593	0.28835317
682.786	0.28746242
682.98	0.28662204
683.173	0.28583916
683.366	0.28490783
683.559	0.28404913
683.752	0.28312869
683.945	0.28214732
684.138	0.28121318
684.331	0.28020433
684.524	0.27924367
684.717	0.2782637
684.91	0.27731227
685.103	0.27638558
685.296	0.27549116
685.489	0.27472413
685.682	0.27399562
685.874	0.27319431
686.067	0.27239532
686.26	0.27167965
686.453	0.27097815
686.646	0.27025048
686.839	0.26952692
687.031	0.26876483
687.224	0.26802106
687.417	0.26742751
687.61	0.26654265
687.802	0.26570796
687.995	0.26489417
688.188	0.26397593
688.38	0.26305875
688.573	0.26209778
688.766	0.2611327
688.958	0.26023058
689.151	0.25927344
689.343	0.25845376
689.536	0.2575858
689.729	0.25680385
689.921	0.25607138
690.114	0.25520104
690.306	0.2545088
690.499	0.25388897
690.691	0.25310143
690.884	0.25241152
691.076	0.25167474
691.268	0.25084992
691.461	0.25014419
691.653	0.24948117
691.846	0.24883693
692.038	0.24823546
692.23	0.24752302
692.423	0.24684507
692.615	0.24621872
692.807	0.24553151
692.999	0.24470988
693.192	0.24379663
693.384	0.24291427
693.576	0.24210935
693.768	0.24132878
693.961	0.24053293
694.153	0.23979485
694.345	0.23910889
694.537	0.2384629
694.729	0.23785089
694.921	0.23716342
695.113	0.23647329
695.305	0.23570469
695.498	0.23481249
695.69	0.2339766
695.882	0.23304475
696.074	0.23212763
696.266	0.23126238
696.458	0.23042466
696.65	0.22965795
696.842	0.22905828
697.033	0.22844221
697.225	0.22781979
697.417	0.22728826
697.609	0.22665834
697.801	0.22597176
697.993	0.22534036
698.185	0.22465196
698.376	0.22390882
698.568	0.22325219
698.76	0.22254785
698.952	0.22187224
699.144	0.22117455
699.335	0.2205538
699.527	0.21991515
699.719	0.21924771
699.91	0.21856263
700.102	0.21781075
700.294	0.21716691
700.485	0.21656811
700.677	0.21590251
700.869	0.21536614
701.06	0.21478434
701.252	0.21418766
701.443	0.21366443
701.635	0.21312682
701.826	0.21259532
702.018	0.21208352
702.209	0.21155678
702.401	0.21114353
702.592	0.21076751
702.784	0.21032106
702.975	0.20983059
703.166	0.20938749
703.358	0.20877584
703.549	0.20813509
703.741	0.20745678
703.932	0.20677837
704.123	0.20620909
704.315	0.20566172
704.506	0.2050827
704.697	0.2044414
704.888	0.20392569
705.08	0.20332985
705.271	0.2027686
705.462	0.20212451
705.653	0.20148872
705.844	0.20081337
706.035	0.20036717
706.227	0.19974221
706.418	0.19923986
706.609	0.19875164
706.8	0.1982893
706.991	0.19774397
707.182	0.19731573
707.373	0.19677834
707.564	0.19635568
707.755	0.19584579
707.946	0.19534664
708.137	0.19473478
708.328	0.19414328
708.519	0.19357929
708.71	0.19288807
708.901	0.19212554
709.092	0.19158273
709.283	0.19098182
709.473	0.19046484
709.664	0.1900864
709.855	0.18952553
710.046	0.18916034
710.237	0.18877874
710.427	0.18825528
710.618	0.18771778
710.809	0.18718935
711	0.18663089
711.19	0.1861529
711.381	0.18568152
711.572	0.18522929
711.762	0.18487708
711.953	0.18457829
712.144	0.18425119
712.334	0.18391638
712.525	0.18358356
712.715	0.18321076
712.906	0.18266475
713.097	0.18207189
713.287	0.18151206
713.478	0.18097168
713.668	0.18047221
713.859	0.18000275
714.049	0.17959678
714.239	0.17930963
714.43	0.1788582
714.62	0.17842601
714.811	0.17800407
715.001	0.17768505
715.191	0.17736439
715.382	0.17694608
715.572	0.17671578
715.762	0.17662229
715.953	0.1765249
716.143	0.17639594
716.333	0.17611123
716.523	0.17584452
716.714	0.17565704
716.904	0.17533388
717.094	0.17493142
717.284	0.17443737
717.474	0.17397206
717.664	0.17354084
717.855	0.17307405
718.045	0.17261645
718.235	0.17215293
718.425	0.17188567
718.615	0.17161616
718.805	0.17137578
718.995	0.17110377
719.185	0.17085853
719.375	0.17054918
719.565	0.17027172
719.755	0.16982547
719.945	0.16944404
720.135	0.16912913
720.325	0.16886355
720.515	0.16867765
720.704	0.16858328
720.894	0.16847067
721.084	0.16836837
721.274	0.1682057
721.464	0.16784899
721.654	0.1674896
721.843	0.16707709
722.033	0.16677798
722.223	0.16644798
722.413	0.16629424
722.602	0.16611578
722.792	0.16589883
722.982	0.16570394
723.171	0.16551721
723.361	0.16515264
723.55	0.16484901
723.74	0.16436538
723.93	0.16400676
724.119	0.16380718
724.309	0.16358633
724.498	0.16331706
724.688	0.16306354
724.877	0.16280499
725.067	0.16257546
725.256	0.16235845
725.446	0.16217337
725.635	0.1619869
725.825	0.16186221
726.014	0.1618437
726.203	0.16177837
726.393	0.16163199
726.582	0.16139129
726.771	0.16118024
726.961	0.16097003
727.15	0.16073563
727.339	0.16030919
727.529	0.15998927
727.718	0.1597199
727.907	0.15953045
728.096	0.15926722
728.286	0.15893689
728.475	0.1586484
728.664	0.15842144
728.853	0.15815067
729.042	0.1579749
729.231	0.15780223
729.42	0.15762143
729.609	0.15745428
729.799	0.15722889
729.988	0.15709183
730.177	0.15691775
730.366	0.1566353
730.555	0.15629631
730.744	0.15592066
730.933	0.15565164
731.122	0.15540288
731.31	0.15510824
731.499	0.15480161
731.688	0.15457195
731.877	0.15427242
732.066	0.15408883
732.255	0.15392588
732.444	0.15379368
732.632	0.15362269
732.821	0.15354755
733.01	0.15342986
733.199	0.15348105
733.388	0.15344448
733.576	0.15338646
733.765	0.15337217
733.954	0.15333539
734.142	0.15328507
734.331	0.15319095
734.52	0.15303193
734.708	0.15286895
734.897	0.15271112
735.086	0.15252612
735.274	0.15239033
735.463	0.15221749
735.651	0.15207939
735.84	0.15202861
736.028	0.15198076
736.217	0.15190138
736.405	0.15180347
736.594	0.15170776
736.782	0.15157553
736.971	0.15140647
737.159	0.15116543
737.347	0.15100462
737.536	0.15087988
737.724	0.15067674
737.912	0.15040226
738.101	0.1501831
738.289	0.15001358
738.477	0.14987571
738.666	0.14965069
738.854	0.14945946
739.042	0.14936134
739.23	0.14936995
739.418	0.14932442
739.607	0.14929914
739.795	0.14916486
739.983	0.14912156
740.171	0.14898151
740.359	0.14881683
740.547	0.14865127
740.735	0.14851575
740.923	0.14845297
741.112	0.14851323
741.3	0.14854931
741.488	0.14871565
741.676	0.14888065
741.864	0.14902083
742.052	0.14914956
742.239	0.149044
742.427	0.14890869
742.615	0.14869109
742.803	0.14846614
742.991	0.14823093
743.179	0.14804173
743.367	0.14795485
743.555	0.14802181
743.742	0.14806526
743.93	0.14814229
744.118	0.14816278
744.306	0.14823475
744.494	0.14830794
744.681	0.1483394
744.869	0.14842422
745.057	0.14850137
745.244	0.14862448
745.432	0.14870141
745.62	0.14877555
745.807	0.14880688
745.995	0.14880806
746.182	0.14879822
746.37	0.14876791
746.558	0.14867624
746.745	0.14860928
746.933	0.14852309
747.12	0.14845578
747.308	0.14841492
747.495	0.14824401
747.683	0.14817154
747.87	0.1481665
748.057	0.14815979
748.245	0.14814784
748.432	0.14816508
748.62	0.14814516
748.807	0.14827405
748.994	0.14835178
749.182	0.14841552
749.369	0.14849989
749.556	0.14858973
749.743	0.14857972
749.931	0.14856595
750.118	0.14858349
750.305	0.14855263
750.492	0.14851823
750.68	0.14856237
750.867	0.14855387
751.054	0.14856715
751.241	0.14858985
751.428	0.14848999
751.615	0.148398
751.802	0.1483898
751.989	0.14828773
752.176	0.1482903
752.363	0.14828063
752.55	0.14823673
752.737	0.14828608
752.924	0.14836863
753.111	0.14840928
753.298	0.14853291
753.485	0.14859527
753.672	0.14864064
753.859	0.14878589
754.046	0.14890358
754.233	0.14900068
754.42	0.14911601
754.606	0.14907147
754.793	0.14902349
754.98	0.14904527
755.167	0.14897817
755.353	0.1489793
755.54	0.14898261
755.727	0.14899031
755.914	0.14902637
756.1	0.1491222
756.287	0.14925109
756.474	0.14935865
756.66	0.14944964
756.847	0.14945952
757.033	0.14938709
757.22	0.14936918
757.407	0.14929321
757.593	0.14916793
757.78	0.14905868
757.966	0.14890738
758.153	0.14888807
758.339	0.14883538
758.526	0.14886123
758.712	0.14891073
758.898	0.14909026
759.085	0.14930743
759.271	0.14955602
759.458	0.14980544
759.644	0.15009211
759.83	0.15022218
760.017	0.15033351
760.203	0.15041877
760.389	0.1504365
760.576	0.1503943
760.762	0.15036412
760.948	0.15034756
761.134	0.15042053
761.32	0.1505478
761.507	0.15064944
761.693	0.15087861
761.879	0.15104704
762.065	0.151128
762.251	0.15129609
762.437	0.15153995
762.623	0.15170257
762.809	0.15188542
762.995	0.15199779
763.181	0.15220344
763.367	0.152455
763.553	0.15256542
763.739	0.15251556
763.925	0.1525008
764.111	0.15249819
764.297	0.15250834
764.483	0.15248447
764.669	0.15248751
764.855	0.15261092
765.041	0.15282012
765.227	0.15298412
765.412	0.15310253
765.598	0.15332829
765.784	0.15353049
765.97	0.15369037
766.156	0.15380753
766.341	0.15394447
766.527	0.15416053
766.713	0.15444391
766.898	0.15468312
767.084	0.15490469
767.27	0.15511073
767.455	0.15525348
767.641	0.15538614
767.827	0.15547862
768.012	0.15552397
768.198	0.15555316
768.383	0.15572886
768.569	0.15590054
768.754	0.15614448
768.94	0.15631231
769.125	0.15647391
769.311	0.15662627
769.496	0.15684876
769.682	0.15702115
769.867	0.15722628
770.052	0.15738979
770.238	0.157496
770.423	0.15756426
770.608	0.15756635
770.794	0.15747895
770.979	0.15736701
771.164	0.15726357
771.35	0.15710606
771.535	0.15715504
771.72	0.15731161
771.905	0.15758624
772.09	0.15772025
772.276	0.1578709
772.461	0.15800975
772.646	0.15828851
772.831	0.15855342
773.016	0.15873552
773.201	0.15889037
773.386	0.15921654
773.571	0.15949315
773.756	0.15982353
773.941	0.16005126
774.126	0.16026469
774.311	0.16048975
774.496	0.16064892
774.681	0.16075553
774.866	0.16092772
775.051	0.16098085
775.236	0.16118834
775.421	0.16133994
775.606	0.16148282
775.791	0.16158879
775.976	0.16168581
776.16	0.16173282
776.345	0.16184136
776.53	0.16186313
776.715	0.16189094
776.899	0.16185165
777.084	0.16182275
777.269	0.16188427
777.454	0.16192417
777.638	0.16203016
777.823	0.16209825
778.008	0.1622136
778.192	0.16248055
778.377	0.16282387
778.561	0.16308788
778.746	0.16340986
778.931	0.16364602
779.115	0.16394238
779.3	0.16409623
779.484	0.16418363
779.669	0.16424956
779.853	0.16429896
780.037	0.16428179
780.222	0.16422322
780.406	0.16408914
780.591	0.16400715
780.775	0.16393943
780.959	0.16382159
781.144	0.16366597
781.328	0.16361839
781.512	0.16370195
781.697	0.16383739
781.881	0.163978
782.065	0.16413225
782.249	0.16431025
782.434	0.164616
782.618	0.16481739
782.802	0.16493374
782.986	0.16506512
783.17	0.16518643
783.354	0.16521018
783.539	0.16530181
783.723	0.16534408
783.907	0.16542063
784.091	0.16551396
784.275	0.16548563
784.459	0.16543579
784.643	0.16541984
784.827	0.16535599
785.011	0.16516528
785.195	0.16500389
785.379	0.16488077
785.563	0.1649034
785.747	0.16495715
785.93	0.16508996
786.114	0.1651644
786.298	0.16528942
786.482	0.16545078
786.666	0.1656575
786.85	0.16583885
787.033	0.16609758
787.217	0.16628678
787.401	0.16658942
787.585	0.16703111
787.768	0.16735247
787.952	0.16757591
788.136	0.16774758
788.319	0.16786914
788.503	0.16805919
788.687	0.16819141
788.87	0.16818434
789.054	0.16822138
789.237	0.16835895
789.421	0.16847741
789.605	0.16864236
789.788	0.16880397
789.972	0.16892976
790.155	0.1690847
790.338	0.16934771
790.522	0.16953989
790.705	0.16979575
790.889	0.17004847
791.072	0.17029003
791.256	0.17047974
791.439	0.17066282
791.622	0.17080816
791.806	0.17097586
791.989	0.1710042
792.172	0.17100568
792.355	0.17096038
792.539	0.17104245
792.722	0.17115972
792.905	0.17118307
793.088	0.17127893
793.271	0.17156586
793.455	0.17183085
793.638	0.17209823
793.821	0.17225245
794.004	0.17242894
794.187	0.1726749
794.37	0.17284524
794.553	0.17288969
794.736	0.17293677
794.919	0.17307642
795.102	0.17317522
795.285	0.17336181
795.468	0.17346438
795.651	0.17359114
795.834	0.17379537
796.017	0.17403041
796.2	0.17424114
796.383	0.17457543
796.566	0.17472342
796.749	0.17489212
796.931	0.17497062
797.114	0.17505428
797.297	0.17511799
797.48	0.17520804
797.663	0.17521417
797.845	0.17536866
798.028	0.17563664
798.211	0.17591932
798.393	0.17622472
798.576	0.1764242
798.759	0.17658568
798.941	0.17688322
799.124	0.17709957
799.307	0.17724526
799.489	0.1774295
799.672	0.17746979
799.854	0.17757626
800.037	0.17776102
800.219	0.17794765
800.402	0.17821092
800.584	0.17853742
800.767	0.17886191
800.949	0.17921083
801.132	0.17962622
801.314	0.17986451
801.496	0.18002884
801.679	0.18014014
801.861	0.18015126
802.043	0.18017539
802.226	0.18030317
802.408	0.18035299
802.59	0.18047441
802.772	0.18050936
802.955	0.18061617
803.137	0.18062525
803.319	0.18056801
803.501	0.18045154
803.684	0.1804127
803.866	0.18035018
804.048	0.18044569
804.23	0.18054763
804.412	0.18084738
804.594	0.18111296
804.776	0.1814883
804.958	0.18178807
805.14	0.1820696
805.322	0.18223766
805.504	0.18232736
805.686	0.18237334
805.868	0.18253436
806.05	0.18255487
806.232	0.18261718
806.414	0.1827678
806.596	0.1829109
806.778	0.18298602
806.96	0.18310478
807.141	0.18310646
807.323	0.18303066
807.505	0.18284306
807.687	0.18261433
807.869	0.18241722
808.05	0.1821276
808.232	0.18177784
808.414	0.18148669
808.595	0.1813506
808.777	0.18130414
808.959	0.18131697
809.14	0.18130766
809.322	0.18140847
809.504	0.18158221
809.685	0.18171969
809.867	0.18190227
810.048	0.18201507
810.23	0.18208821
810.411	0.18219312
810.593	0.18236319
810.774	0.18247449
810.956	0.18259046
811.137	0.18266263
811.319	0.18281152
811.5	0.18304972
811.681	0.18323675
811.863	0.18337921
812.044	0.18348954
812.225	0.18367524
812.407	0.18371015
812.588	0.18383498
812.769	0.18377753
812.951	0.18383345
813.132	0.18385509
813.313	0.183903
813.494	0.18394916
813.675	0.18414148
813.857	0.18423314
814.038	0.18439418
814.219	0.18446202
814.4	0.18450969
814.581	0.18462531
814.762	0.18463261
814.943	0.1846301
815.124	0.18465304
815.305	0.184659
815.486	0.18479415
815.667	0.18491776
815.848	0.18492457
816.029	0.18497338
816.21	0.18499697
816.391	0.18494381
816.572	0.18483811
816.753	0.18466387
816.934	0.18453451
817.115	0.18445245
817.295	0.18444511
817.476	0.18444498
817.657	0.18451333
817.838	0.18465076
818.019	0.18472672
818.199	0.18492317
818.38	0.18512917
818.561	0.18536912
818.741	0.18564715
818.922	0.18597503
819.103	0.18631287
819.283	0.18675545
819.464	0.1870093
819.645	0.18723635
819.825	0.18739385
820.006	0.187505
820.186	0.18749946
820.367	0.18750018
820.547	0.18737477
820.728	0.18740094
820.908	0.18748348
821.089	0.1876408
821.269	0.18787255
821.45	0.18828085
821.63	0.18854217
821.81	0.18892348
821.991	0.18923409
822.171	0.18945261
822.351	0.18969874
822.532	0.18992357
822.712	0.19011587
822.892	0.19041716
823.072	0.19052042
823.253	0.19053782
823.433	0.19064164
823.613	0.19066005
823.793	0.19066809
823.973	0.19056885
824.154	0.19044273
824.334	0.19036739
824.514	0.19046761
824.694	0.19053056
824.874	0.19067958
825.054	0.19086035
825.234	0.19112959
825.414	0.19138869
825.594	0.19176189
825.774	0.19207138
825.954	0.19233499
826.134	0.1925975
826.314	0.19273844
826.494	0.19278763
826.674	0.19276589
826.854	0.19269752
827.033	0.19263146
827.213	0.19252127
827.393	0.19229416
827.573	0.19217072
827.753	0.19215575
827.932	0.19229168
828.112	0.19244942
828.292	0.19254571
828.472	0.19266677
828.651	0.19292833
828.831	0.19304491
829.011	0.19314043
829.19	0.19309167
829.37	0.19321495
829.549	0.19339325
829.729	0.19361027
829.909	0.19376228
830.088	0.19402108
830.268	0.19419137
830.447	0.19448852
830.627	0.19454461
830.806	0.19458752
830.986	0.19462221
831.165	0.19470685
831.344	0.19481502
831.524	0.19484538
831.703	0.19490862
831.883	0.1949525
832.062	0.19498703
832.241	0.19499082
832.421	0.19486006
832.6	0.19474702
832.779	0.19479493
832.958	0.19479825
833.138	0.194914
833.317	0.1951056
833.496	0.19528556
833.675	0.19549825
833.854	0.19571743
834.034	0.19588288
834.213	0.19596306
834.392	0.19601996
834.571	0.19589702
834.75	0.19589357
834.929	0.19598361
835.108	0.19594321
835.287	0.19598676
835.466	0.19607396
835.645	0.19618514
835.824	0.19644667
836.003	0.19664393
836.182	0.19659312
836.361	0.1965675
836.54	0.19645865
836.719	0.19637552
836.897	0.19634728
837.076	0.1963013
837.255	0.19617848
837.434	0.19628209
837.613	0.19632681
837.791	0.19639365
837.97	0.19649736
838.149	0.19638735
838.328	0.19633076
838.506	0.19636408
838.685	0.19644768
838.864	0.1966241
839.042	0.19678736
839.221	0.1969538
839.4	0.19727511
839.578	0.19745878
839.757	0.1975625
839.935	0.19762018
840.114	0.19765372
840.292	0.19770753
840.471	0.1977792
840.649	0.19772891
840.828	0.19765619
841.006	0.19771465
841.185	0.19772901
841.363	0.19783067
841.541	0.1979339
841.72	0.198
841.898	0.19808376
842.076	0.19831496
842.255	0.19841141
842.433	0.19850781
842.611	0.19852221
842.789	0.19842651
842.968	0.19841692
843.146	0.19834406
843.324	0.19818834
843.502	0.19819249
843.68	0.19815403
843.859	0.19802995
844.037	0.19803207
844.215	0.19796813
844.393	0.19807534
844.571	0.19825451
844.749	0.19832302
844.927	0.19841375
845.105	0.19857971
845.283	0.1987781
845.461	0.19892599
845.639	0.19905185
845.817	0.19905432
845.995	0.19918819
846.173	0.19931606
846.351	0.19942506
846.529	0.19954484
846.706	0.19952506
846.884	0.19947664
847.062	0.19949283
847.24	0.1993061
847.418	0.19904983
847.595	0.19886215
847.773	0.19859244
847.951	0.19848746
848.129	0.19843642
848.306	0.19841348
848.484	0.19850154
848.662	0.19865374
848.839	0.19870006
849.017	0.19877723
849.194	0.19886712
849.372	0.19887831
849.549	0.19892856
849.727	0.19902546
849.905	0.19906854
850.082	0.19916409
850.26	0.19924109
850.437	0.19928905
850.614	0.1994456
850.792	0.1994859
850.969	0.19943489
851.147	0.1994602
851.324	0.19939073
851.501	0.19932113
851.679	0.19918181
851.856	0.19907972
852.033	0.19904333
852.211	0.19894383
852.388	0.1988313
852.565	0.19892342
852.742	0.19899886
852.92	0.19905258
853.097	0.19912762
853.274	0.19912774
853.451	0.19911113
853.628	0.19904887
853.805	0.19891054
853.982	0.19872825
854.159	0.19858492
854.336	0.19825719
854.514	0.19802156
854.691	0.19788179
854.868	0.19789696
855.045	0.19787375
855.221	0.19791366
855.398	0.19798804
855.575	0.1980528
855.752	0.19808103
855.929	0.19815939
856.106	0.19809578
856.283	0.19801405
856.46	0.19789584
856.637	0.19781101
856.813	0.1978906
856.99	0.19795755
857.167	0.19793975
857.344	0.19801446
857.52	0.19809979
857.697	0.19799864
857.874	0.19789392
858.05	0.19775435
858.227	0.19763125
858.404	0.1974555
858.58	0.19731017
858.757	0.19724015
858.933	0.19736856
859.11	0.19741749
859.287	0.19735303
859.463	0.19741297
859.64	0.19765696
859.816	0.19775294
859.993	0.19786153
860.169	0.19804869
860.345	0.19809445
860.522	0.19818369
860.698	0.19795687
860.875	0.19770846
861.051	0.19744535
861.227	0.19701577
861.404	0.19663345
861.58	0.19652811
861.756	0.19647403
861.932	0.19668982
862.109	0.19667568
862.285	0.19681602
862.461	0.1971482
862.637	0.1972622
862.813	0.19742097
862.99	0.19751937
863.166	0.19737932
863.342	0.19747459
863.518	0.19744614
863.694	0.19730323
863.87	0.19724822
864.046	0.19714427
864.222	0.1970998
864.398	0.19706885
864.574	0.1969212
864.75	0.19677747
864.926	0.19663013
865.102	0.19651478
865.278	0.19617322
865.454	0.19583464
865.63	0.19564042
865.805	0.19546693
865.981	0.19546748
866.157	0.19557119
866.333	0.19557366
866.509	0.1957855
866.684	0.19592696
866.86	0.19605511
867.036	0.1960708
867.212	0.19593332
867.387	0.19567208
867.563	0.19556534
867.739	0.19540749
867.914	0.1953186
868.09	0.19513105
868.265	0.19516195
868.441	0.1951881
868.617	0.195291
868.792	0.1952289
868.968	0.19531842
869.143	0.19546254
869.319	0.19557049
869.494	0.19550516
869.67	0.19560483
869.845	0.19557999
870.02	0.19581245
870.196	0.19592843
870.371	0.19581802
870.546	0.19579659
870.722	0.19593264
870.897	0.19584923
871.072	0.19584214
871.248	0.19550142
871.423	0.19515377
871.598	0.19494441
871.773	0.19469306
871.949	0.19434543
872.124	0.19419576
872.299	0.19402427
872.474	0.19386926
872.649	0.19354855
872.824	0.19330469
872.999	0.19318756
873.174	0.19303161
873.349	0.19288386
873.524	0.19264573
873.699	0.19245546
873.874	0.19239383
874.049	0.1922601
874.224	0.1920155
874.399	0.1918657
874.574	0.19165726
874.749	0.19144385
874.924	0.19136811
875.099	0.19127837
875.274	0.1912646
875.449	0.19129898
875.623	0.19118414
875.798	0.19102658
875.973	0.19101126
876.148	0.19081651
876.322	0.19072115
876.497	0.19057155
876.672	0.19046162
876.846	0.1904354
877.021	0.19050848
877.196	0.190423
877.37	0.1906902
877.545	0.19080362
877.72	0.19085027
877.894	0.19085256
878.069	0.19063263
878.243	0.190319
878.418	0.19023967
878.592	0.19000108
878.767	0.18977913
878.941	0.18958083
879.116	0.18928424
879.29	0.18919359
879.464	0.18911923
879.639	0.18904962
879.813	0.18906089
879.987	0.18897793
880.162	0.1887347
880.336	0.1885932
880.51	0.18848557
880.685	0.18831297
880.859	0.18811473
881.033	0.18769094
881.207	0.18734672
881.381	0.18721438
881.556	0.18715051
881.73	0.18700401
881.904	0.18697334
882.078	0.18670191
882.252	0.18676585
882.426	0.1868951
882.6	0.18703502
882.774	0.18714914
882.948	0.18732794
883.122	0.18718518
883.296	0.18726537
883.47	0.18714231
883.644	0.187091
883.818	0.18683109
883.992	0.18656479
884.166	0.18648279
884.34	0.18655155
884.514	0.18655621
884.687	0.18647503
884.861	0.18626427
885.035	0.18621561
885.209	0.18622891
885.382	0.18597974
885.556	0.18577232
885.73	0.18565243
885.904	0.18557229
886.077	0.18529758
886.251	0.1851753
886.425	0.18502079
886.598	0.18500606
886.772	0.18483905
886.945	0.18450766
887.119	0.18423033
887.292	0.18426276
887.466	0.18417442
887.64	0.18392311
887.813	0.18376232
887.986	0.18371039
888.16	0.1838586
888.333	0.18390059
888.507	0.18381228
888.68	0.18372017
888.854	0.1836059
889.027	0.18329993
889.2	0.18309906
889.374	0.1826919
889.547	0.18236458
889.72	0.18218236
889.893	0.18192647
890.067	0.18175252
890.24	0.18157253
890.413	0.18144496
890.586	0.18141605
890.759	0.18146442
890.933	0.1813
891.106	0.18097657
891.279	0.1807384
891.452	0.18053213
891.625	0.18020241
891.798	0.17983054
891.971	0.17931029
892.144	0.17892055
892.317	0.1788112
892.49	0.17860026
892.663	0.17867606
892.836	0.17872501
893.009	0.17877413
893.182	0.17884163
893.355	0.17890653
893.527	0.17885539
893.7	0.17891826
893.873	0.17865092
894.046	0.17842655
894.219	0.17830329
894.391	0.17815321
894.564	0.17804821
894.737	0.17788203
894.91	0.17772706
895.082	0.17744935
895.255	0.17729059
895.428	0.17710002
895.6	0.1770375
895.773	0.17684875
895.945	0.17672635
896.118	0.17650534
896.291	0.17650978
896.463	0.17637547
896.636	0.17628536
896.808	0.17619783
896.981	0.17621145
897.153	0.17603753
897.326	0.17597629
897.498	0.17575918
897.67	0.17563125
897.843	0.1754572
898.015	0.17510312
898.187	0.17466636
898.36	0.17438832
898.532	0.1739841
898.704	0.17388532
898.877	0.17359319
899.049	0.17337472
899.221	0.17337823
899.393	0.17338151
899.566	0.17344641
899.738	0.1736942
899.91	0.1737039
900.082	0.17400619
900.254	0.17411967
900.426	0.17416904
900.598	0.17415972
900.77	0.1740187
900.942	0.17365772
901.114	0.17320178
901.286	0.17265048
901.458	0.17223623
901.63	0.17185688
901.802	0.17156776
901.974	0.17136007
902.146	0.17129511
902.318	0.17143005
902.49	0.17141481
902.662	0.17133814
902.834	0.17120565
903.005	0.17106123
903.177	0.17084899
903.349	0.17050534
903.521	0.16999999
903.693	0.1697032
903.864	0.16938528
904.036	0.1690801
904.208	0.16879428
904.379	0.16860938
904.551	0.16853912
904.723	0.16836916
904.894	0.16807231
905.066	0.16783795
905.237	0.1674913
905.409	0.16712799
905.58	0.16678535
905.752	0.16651323
905.923	0.16640562
906.095	0.16636515
906.266	0.16623209
906.438	0.16626502
906.609	0.16635161
906.78	0.16622285
906.952	0.16611736
907.123	0.1658628
907.295	0.16571195
907.466	0.16555802
907.637	0.16539631
907.808	0.16503996
907.98	0.164877
908.151	0.16470054
908.322	0.16475386
908.493	0.16463798
908.665	0.16462412
908.836	0.16443588
909.007	0.16432227
909.178	0.16421134
909.349	0.1639082
909.52	0.16368444
909.691	0.16337304
909.862	0.16303842
910.033	0.16269511
910.204	0.16251232
910.375	0.16221253
910.546	0.16206421
910.717	0.16154726
910.888	0.16135112
911.059	0.16103707
911.23	0.16085731
911.401	0.16060424
911.572	0.16051569
911.742	0.1603186
911.913	0.16054796
912.084	0.1604541
912.255	0.16039173
912.426	0.16029676
912.596	0.16018622
912.767	0.16014082
912.938	0.16017343
913.108	0.16012665
913.279	0.15999573
913.45	0.1599935
913.62	0.15998463
913.791	0.16004095
913.962	0.15984932
914.132	0.15959114
914.303	0.15924521
914.473	0.15900574
914.644	0.15868655
914.814	0.15847559
914.985	0.15831565
915.155	0.15807636
915.326	0.15797542
915.496	0.15783757
915.666	0.15768512
915.837	0.15762777
916.007	0.15730935
916.177	0.15679747
916.348	0.15659223
916.518	0.15637207
916.688	0.15609694
916.858	0.15595359
917.029	0.15574478
917.199	0.15557572
917.369	0.15566329
917.539	0.15562136
917.709	0.15558772
917.88	0.15544707
918.05	0.15523947
918.22	0.15512551
918.39	0.15521573
918.56	0.15511043
918.73	0.15506009
918.9	0.15478512
919.07	0.15466698
919.24	0.15463446
919.41	0.15450797
919.58	0.15428397
919.75	0.15410717
919.92	0.15378648
920.09	0.15366119
920.26	0.15343876
920.429	0.15314483
920.599	0.1526994
920.769	0.15227975
920.939	0.15189526
921.109	0.15155929
921.278	0.15117301
921.448	0.15089886
921.618	0.15060088
921.787	0.15046181
921.957	0.15025872
922.127	0.14996051
922.296	0.14993645
922.466	0.14974937
922.636	0.14953032
922.805	0.14920292
922.975	0.14875404
923.144	0.14843208
923.314	0.1480714
923.483	0.14744915
923.653	0.14689043
923.822	0.14635902
923.992	0.14604293
924.161	0.14597581
924.331	0.14561905
924.5	0.14535205
924.669	0.14515171
924.839	0.14500068
925.008	0.1449374
925.177	0.14474396
925.347	0.14446052
925.516	0.1443492
925.685	0.14436462
925.854	0.14423023
926.023	0.14426662
926.193	0.14430494
926.362	0.14433576
926.531	0.14429535
926.7	0.14433146
926.869	0.14423319
927.038	0.14404116
927.207	0.14385995
927.376	0.1436694
927.545	0.14347381
927.715	0.14332391
927.884	0.14311174
928.052	0.14300845
928.221	0.14282656
928.39	0.14254558
928.559	0.14217135
928.728	0.14182865
928.897	0.1415389
929.066	0.14118084
929.235	0.1407461
929.404	0.14069508
929.572	0.14056708
929.741	0.1404534
929.91	0.14039913
930.079	0.14014864
930.247	0.14018594
930.416	0.14023056
930.585	0.14001637
930.753	0.13983794
930.922	0.1397686
931.091	0.13973299
931.259	0.13965802
931.428	0.13954591
931.596	0.13934896
931.765	0.13944246
931.934	0.13954441
932.102	0.13932122
932.27	0.13937228
932.439	0.13943637
932.607	0.13928249
932.776	0.13940954
932.944	0.13932762
933.113	0.13918841
933.281	0.13923099
933.449	0.13882233
933.618	0.13865042
933.786	0.13856732
933.954	0.13812686
934.123	0.13762839
934.291	0.13724237
934.459	0.13706494
934.627	0.13695003
934.795	0.13676772
934.964	0.13640417
935.132	0.13622608
935.3	0.13635251
935.468	0.13626764
935.636	0.13603275
935.804	0.13584483
935.972	0.13571587
936.14	0.13568575
936.308	0.13567886
936.476	0.13559088
936.644	0.13581478
936.812	0.13604893
936.98	0.1360834
937.148	0.13612467
937.316	0.13618436
937.484	0.13629981
937.652	0.13647357
937.82	0.13645918
937.987	0.13626966
938.155	0.13622398
938.323	0.13642213
938.491	0.13631357
938.658	0.13637458
938.826	0.13625183
938.994	0.13632751
939.162	0.13636999
939.329	0.13673252
939.497	0.13666496
939.665	0.1366651
939.832	0.13691708
940	0.13693862
940.167	0.13730988
940.335	0.13722667
940.502	0.13682634
940.67	0.1368147
940.837	0.13723345
941.005	0.13678171
941.172	0.13698221
941.34	0.13638042
941.507	0.13701711
941.674	0.13799975
941.842	0.13798439
942.009	0.13909131
942.177	0.13882444
942.344	0.13903302
942.511	0.13932199
942.678	0.1394237
942.846	0.13884857
943.013	0.13922236
943.18	0.13798002
943.347	0.1386448
943.514	0.13817137
943.682	0.13910383
943.849	0.13830455
944.016	0.13746103
944.183	0.13793897
944.35	0.13807022
944.517	0.13848019
944.684	0.13885306
944.851	0.13610664
945.018	0.13579685
945.185	0.13546136
945.352	0.13372262
945.519	0.13346624
945.686	0.13231926
945.853	0.13210046
946.02	0.13219381
946.187	0.13142587
946.353	0.13245264
946.52	0.13218044
946.687	0.13118251
946.854	0.13130934
947.021	0.13079733
947.187	0.1310639
947.354	0.13096986
947.521	0.13010888
947.687	0.13040891
947.854	0.13053491
948.021	0.12916667
948.187	0.12836527
948.354	0.12807543
948.52	0.12817798
948.687	0.12805005
948.854	0.12707257
949.02	0.12633482
949.187	0.12641214
949.353	0.1255547
949.52	0.12428891
949.686	0.12347153
949.852	0.12268827
950.019	0.12251435
950.185	0.1221583
950.352	0.12152535
950.518	0.12102929
950.684	0.1209448
950.851	0.12040702
951.017	0.11937628
951.183	0.11940417
951.349	0.11870039
951.516	0.11840233
951.682	0.11863419
951.848	0.11832414
952.014	0.11792023
952.18	0.11791287
952.346	0.1170879
952.512	0.1168151
952.679	0.1167512
952.845	0.11670647
953.011	0.11660553
953.177	0.11641775
953.343	0.11600788
953.509	0.11604917
953.675	0.11638743
953.841	0.11634757
954.007	0.11621564
954.172	0.11614783
954.338	0.11538556
954.504	0.11479296
954.67	0.11393232
954.836	0.11323605
955.002	0.11253725
955.167	0.11138523
955.333	0.11017283
955.499	0.10996937
955.665	0.10963618
955.83	0.10920492
955.996	0.10848134
956.162	0.10768868
956.327	0.10697259
956.493	0.10670789
956.659	0.10675101
956.824	0.106702
956.99	0.1063747
957.155	0.10630309
957.321	0.10622636
957.486	0.10650376
957.652	0.10656684
957.817	0.10639307
957.983	0.1061183
958.148	0.1061014
958.314	0.10581267
958.479	0.10545975
958.644	0.10541812
958.81	0.10548105
958.975	0.10523203
959.14	0.10509786
959.306	0.10477987
959.471	0.10462566
959.636	0.10440861
959.801	0.10438531
959.967	0.10397141
960.132	0.10344829
960.297	0.10312737
960.462	0.10319876
960.627	0.10325961
960.792	0.10288722
960.957	0.10242778
961.123	0.1024451
961.288	0.10238651
961.453	0.10248435
961.618	0.10237487
961.783	0.10191105
961.948	0.10205028
962.113	0.10165883
962.277	0.10097671
962.442	0.10089852
962.607	0.10073258
962.772	0.10049553
962.937	0.09985425
963.102	0.09949229
963.267	0.0991193
963.431	0.09897788
963.596	0.09859341
963.761	0.09813102
963.926	0.09773126
964.09	0.0978966
964.255	0.09780032
964.42	0.09780178
964.584	0.0978618
964.749	0.09766619
964.914	0.09736708
965.078	0.09703685
965.243	0.09667453
965.407	0.09644562
965.572	0.09631962
965.736	0.09630999
965.901	0.09636136
966.065	0.09637439
966.23	0.09631502
966.394	0.09672506
966.559	0.09654093
966.723	0.09637061
966.887	0.0958004
967.052	0.0953756
967.216	0.09494426
967.38	0.09419306
967.545	0.09366758
967.709	0.09375122
967.873	0.09387523
968.037	0.09367601
968.202	0.09374897
968.366	0.09369647
968.53	0.09413459
968.694	0.09400211
968.858	0.09375765
969.022	0.09352201
969.187	0.09354404
969.351	0.09348951
969.515	0.0935076
969.679	0.0934994
969.843	0.09351741
970.007	0.09348822
970.171	0.09326268
970.335	0.09320159
970.499	0.09295659
970.662	0.09292769
970.826	0.0928136
970.99	0.09267427
971.154	0.09262343
971.318	0.09239429
971.482	0.09212653
971.645	0.09215869
971.809	0.09196864
971.973	0.09158328
972.137	0.09133154
972.3	0.09095997
972.464	0.09116051
972.628	0.0912037
972.791	0.09071829
972.955	0.09074862
973.119	0.09052074
973.282	0.09012072
973.446	0.0898132
973.609	0.08966395
973.773	0.08922503
973.936	0.0888293
974.1	0.0881876
974.263	0.08815848
974.427	0.08812881
974.59	0.08796443
974.754	0.08723909
974.917	0.08728317
975.08	0.0875151
975.244	0.08770321
975.407	0.08777642
975.57	0.08803045
975.734	0.0878701
975.897	0.08812238
976.06	0.08802052
976.223	0.08798541
976.387	0.08795487
976.55	0.08764712
976.713	0.08715278
976.876	0.08728177
977.039	0.08700751
977.202	0.08679844
977.365	0.08653312
977.528	0.08595533
977.692	0.08565342
977.855	0.08499947
978.018	0.08446655
978.181	0.08412766
978.344	0.08373377
978.506	0.08349735
978.669	0.08328031
978.832	0.08324434
978.995	0.08326687
979.158	0.08313272
979.321	0.08273602
979.484	0.08241701
979.646	0.08215252
979.809	0.08227422
979.972	0.08181611
980.135	0.08171382
980.297	0.08174331
980.46	0.08181478
980.623	0.08199552
980.786	0.08144924
980.948	0.08131687
981.111	0.08127467
981.273	0.08130351
981.436	0.08108393
981.599	0.08093622
981.761	0.0804059
981.924	0.08089613
982.086	0.0803093
982.249	0.08041959
982.411	0.08022692
982.573	0.079858
982.736	0.07997991
982.898	0.08030575
983.061	0.08026166
983.223	0.08038535
983.385	0.08025622
983.548	0.08066374
983.71	0.08081323
983.872	0.08088532
984.034	0.08099516
984.197	0.08043262
984.359	0.08065574
984.521	0.08060202
984.683	0.08016749
984.845	0.08041792
985.008	0.07983591
985.17	0.0794145
985.332	0.0796242
985.494	0.07916066
985.656	0.07885452
985.818	0.07856123
985.98	0.07789484
986.142	0.0775375
986.304	0.07723112
986.466	0.07669876
986.628	0.0767683
986.79	0.07709189
986.952	0.07701064
987.113	0.07713856
987.275	0.07706867
987.437	0.07698367
987.599	0.07691686
987.761	0.07637721
987.922	0.07544155
988.084	0.07517264
988.246	0.07488684
988.408	0.07463821
988.569	0.07483443
988.731	0.07497429
988.893	0.07500524
989.054	0.07558025
989.216	0.07591333
989.377	0.0757118
989.539	0.07605819
989.701	0.07599798
989.862	0.07574206
990.024	0.0755855
990.185	0.07509108
990.347	0.07485768
990.508	0.07513732
990.669	0.07488288
990.831	0.07465294
990.992	0.07491152
991.154	0.07468541
991.315	0.07477133
991.476	0.07442739
991.638	0.07441817
991.799	0.07424294
991.96	0.07424627
992.121	0.07400742
992.283	0.07438122
992.444	0.07432036
992.605	0.07440019
992.766	0.07384468
992.927	0.07332066
993.088	0.07297776
993.249	0.07267003
993.41	0.0720585
993.572	0.07205162
993.733	0.07191871
993.894	0.07198375
994.055	0.07188449
994.216	0.07155248
994.376	0.07114259
994.537	0.07163829
994.698	0.07114533
994.859	0.07059753
995.02	0.07040037
995.181	0.0700265
995.342	0.06987977
995.503	0.06956375
995.663	0.06822324
995.824	0.06794794
995.985	0.06820209
996.146	0.06761134
996.306	0.06805968
996.467	0.06826906
996.628	0.06854641
996.788	0.06917757
996.949	0.0693766
997.11	0.06900435
997.27	0.06884331
997.431	0.06863439
997.591	0.06722703
997.752	0.06700901
997.912	0.06729534
998.073	0.06712763
998.233	0.06709457
998.394	0.06748289
998.554	0.06784457
998.714	0.06877076
998.875	0.06846947
999.035	0.0678195
999.196	0.06743155
999.356	0.06756804
999.516	0.06727005
999.676	0.06688754
999.837	0.06669012
999.997	0.06638214
1000.157	0.06615198
1000.317	0.06564238
1000.477	0.0653041
1000.638	0.06503409
1000.798	0.06484599
1000.958	0.06489302
1001.118	0.06551486
1001.278	0.06573369
1001.438	0.0657924
1001.598	0.06571286
1001.758	0.06604204
1001.918	0.06593148
1002.078	0.06533434
1002.238	0.06476439
1002.398	0.06494908
1002.558	0.06475739
1002.718	0.06473183
1002.878	0.06419755
1003.037	0.0635704
1003.197	0.0634694
1003.357	0.06371027
1003.517	0.06365384
1003.677	0.06343566
1003.836	0.06302791
1003.996	0.0629177
1004.156	0.0634736
1004.315	0.06371737
1004.475	0.0634522
1004.635	0.06323075
1004.794	0.06332074
1004.954	0.06309283
1005.114	0.06303204
1005.273	0.06321113
1005.433	0.06310249
1005.592	0.06316159
1005.752	0.06269864
1005.911	0.06299909
1006.071	0.06343705
1006.23	0.0629482
1006.389	0.06263024
1006.549	0.0626161
1006.708	0.06272577
1006.868	0.06226181
1007.027	0.06230839
1007.186	0.0620717
1007.345	0.06263615
1007.505	0.06270441
1007.664	0.06281288
1007.823	0.06218007
1007.982	0.06257477
1008.142	0.06258898
1008.301	0.0628999
1008.46	0.06246493
1008.619	0.06179341
1008.778	0.0616046
1008.937	0.06215599
1009.096	0.06200171
1009.255	0.06168011
1009.414	0.06116931
1009.573	0.06127635
1009.732	0.06211322
1009.891	0.06219848
1010.05	0.06208824
1010.209	0.06209505
1010.368	0.06188841
1010.527	0.06256721
1010.686	0.06327995
1010.845	0.06225142
1011.003	0.06244668
1011.162	0.06222108
1011.321	0.0623834
1011.48	0.06300968
1011.638	0.06214841
1011.797	0.06214897
1011.956	0.0622569
1012.115	0.06233379
1012.273	0.06212365
1012.432	0.06168153
1012.59	0.06178118
1012.749	0.06232817
1012.908	0.06142788
1013.066	0.06241959
1013.225	0.06263169
1013.383	0.06297681
1013.542	0.06307293
1013.7	0.06259751
1013.859	0.06248728
1014.017	0.06339416
1014.175	0.06223375
1014.334	0.06221124
1014.492	0.06216266
1014.65	0.06221193
1014.809	0.0624295
1014.967	0.06168344
1015.125	0.06113212
1015.284	0.06217614
1015.442	0.06131909
1015.6	0.06132145
1015.758	0.06161052
1015.916	0.06110733
1016.075	0.06152444
1016.233	0.06224184
1016.391	0.06201605
1016.549	0.0619037
1016.707	0.06174871
1016.865	0.06189743
1017.023	0.06304193
1017.181	0.06311232
1017.339	0.0626407
1017.497	0.06299229
1017.655	0.06417296
1017.813	0.06575695
1017.971	0.06489625
1018.129	0.06404445
1018.286	0.06382163
1018.444	0.06318939
1018.602	0.06315683
1018.76	0.06248857
1018.918	0.06147489
1019.075	0.06198876
1019.233	0.06201544
1019.391	0.06201216
1019.549	0.06246143
1019.706	0.06228889
1019.864	0.06260666
1020.022	0.0632968
1020.179	0.06388862
1020.337	0.06498134
1020.494	0.06540236
1020.652	0.06463862
1020.809	0.06407488
1020.967	0.06325679
1021.124	0.06285034
1021.282	0.06336117
1021.439	0.06301379
1021.597	0.06332732
1021.754	0.06413995
1021.911	0.06450236
1022.069	0.06450095
1022.226	0.06251389
1022.384	0.06210056
1022.541	0.06015045
1022.698	0.05945365
1022.855	0.05957343
1023.013	0.05940251
1023.17	0.05870467
1023.327	0.06143974
1023.484	0.06041621
1023.641	0.06159166
1023.798	0.06243585
1023.956	0.06327545
1024.113	0.06305245
1024.27	0.06440092
1024.427	0.06367536
1024.584	0.06486573
1024.741	0.06521684
1024.898	0.0648366
1025.055	0.06313526
1025.212	0.0634229
1025.369	0.06281777
1025.525	0.06272637
1025.682	0.06283618
1025.839	0.06411411
1025.996	0.06591877
1026.153	0.06653364
1026.31	0.06839987
1026.466	0.06796814
1026.623	0.06720811
1026.78	0.0675745
1026.937	0.06751966
1027.093	0.0667333
1027.25	0.06753379
1027.407	0.0657994
1027.563	0.06753246
1027.72	0.06791744
1027.876	0.06786336
1028.033	0.06697959
1028.19	0.06603865
1028.346	0.06443976
1028.503	0.06388393
1028.659	0.06474146
1028.816	0.06576402
1028.972	0.06698944
1029.128	0.06776682
1029.285	0.06634414
1029.441	0.06969437
1029.598	0.07157846
1029.754	0.07258701
1029.91	0.07243384
1030.067	0.0706161
1030.223	0.06996116
1030.379	0.07012322
1030.535	0.06983384
1030.691	0.06908766
1030.848	0.06693476
1031.004	0.06652079
1031.16	0.06856031
1031.316	0.06922876
1031.472	0.07263972
1031.628	0.07193458
1031.784	0.07487223
1031.94	0.07522046
1032.096	0.07585186
1032.252	0.07675656
1032.408	0.07712543
1032.564	0.07534767
1032.72	0.07642275
1032.876	0.07086689
1033.032	0.06896038
1033.188	0.06942302
1033.344	0.06660321
1033.5	0.06582218
1033.655	0.06566818
1033.811	0.06394968
1033.967	0.06740143
