Data from 1_mm_pl_60pc_Absorbance__0__17-01-12-032.txt Node

Date: Wed Mar 08 17:01:12 CET 2023
User: Ange
Spectrometer: FLMT08341
Trigger mode: 0
Integration Time (sec): 1.000000E-2
Scans to average: 400
Electric dark correction enabled: true
Nonlinearity correction enabled: false
Boxcar width: 3
XAxis mode: Wavelengths
Number of Pixels in Spectrum: 3648
>>>>>Begin Spectral Data<<<<<
345.271	-0.01644904
345.487	-0.01446189
345.704	-0.02271485
345.921	-0.02708789
346.137	-0.02216158
346.354	-0.01450948
346.571	-0.00643125
346.787	0.06667787
347.004	-0.05343232
347.22	-0.09453462
347.437	0.06011564
347.653	0.08037768
347.87	-0.30240114
348.086	-0.22197236
348.303	0.32961931
348.519	0.28191268
348.736	0.28012661
348.952	0.30014138
349.169	0.3030836
349.385	0.31865283
349.601	0.31653345
349.818	0.31528057
350.034	0.31167469
350.251	0.31067762
350.467	0.31443265
350.683	0.30490445
350.9	0.3030788
351.116	0.30015942
351.332	0.29603622
351.549	0.3041302
351.765	0.31060939
351.981	0.31402022
352.197	0.32944713
352.414	0.33833489
352.63	0.34355853
352.846	0.35185684
353.062	0.34729391
353.278	0.34344961
353.495	0.35232424
353.711	0.35207701
353.927	0.35458691
354.143	0.35622458
354.359	0.35423583
354.575	0.35430919
354.792	0.36393465
355.008	0.3577934
355.224	0.35368023
355.44	0.35136996
355.656	0.35007668
355.872	0.35562016
356.088	0.37515312
356.304	0.37565884
356.52	0.37566463
356.736	0.38175609
356.952	0.38644513
357.168	0.3903729
357.384	0.39534209
357.6	0.38180463
357.816	0.38775344
358.032	0.39433564
358.248	0.40196493
358.464	0.40326236
358.679	0.40581473
358.895	0.40485677
359.111	0.41368746
359.327	0.40648261
359.543	0.40987072
359.759	0.41507128
359.974	0.41536821
360.19	0.41453089
360.406	0.41566041
360.622	0.41351342
360.838	0.41384449
361.053	0.41578102
361.269	0.41667821
361.485	0.41954873
361.701	0.42360968
361.916	0.42077619
362.132	0.42216636
362.348	0.426224
362.563	0.4274652
362.779	0.42355627
362.995	0.42716942
363.21	0.43101887
363.426	0.43458922
363.641	0.43630547
363.857	0.4416647
364.073	0.43856302
364.288	0.43761171
364.504	0.44424024
364.719	0.44621793
364.935	0.44762378
365.15	0.44998477
365.366	0.4501355
365.581	0.45657026
365.797	0.45985
366.012	0.45398218
366.228	0.44952708
366.443	0.45652815
366.658	0.45775722
366.874	0.45719766
367.089	0.46100792
367.305	0.46432879
367.52	0.46820431
367.735	0.47195107
367.951	0.46708926
368.166	0.47090258
368.381	0.47785482
368.597	0.47775136
368.812	0.48212341
369.027	0.48630459
369.243	0.489054
369.458	0.50085936
369.673	0.50223791
369.888	0.50199144
370.104	0.49852036
370.319	0.50033754
370.534	0.49641356
370.749	0.49817442
370.964	0.49591924
371.179	0.49528012
371.395	0.49291874
371.61	0.49974176
371.825	0.49499391
372.04	0.4974094
372.255	0.49585856
372.47	0.4933361
372.685	0.49154239
372.9	0.49359865
373.115	0.49018388
373.33	0.49352943
373.545	0.49623267
373.76	0.49998406
373.975	0.50065434
374.19	0.50125332
374.405	0.50462951
374.62	0.51105697
374.835	0.5161702
375.05	0.51681672
375.265	0.51905948
375.48	0.52292587
375.695	0.53245463
375.91	0.53075453
376.125	0.52587735
376.339	0.52100886
376.554	0.52206629
376.769	0.5223461
376.984	0.5221719
377.199	0.52361187
377.414	0.5238342
377.628	0.52955495
377.843	0.53531763
378.058	0.53866741
378.273	0.54273005
378.487	0.54526582
378.702	0.54326198
378.917	0.54488412
379.131	0.54342811
379.346	0.53864994
379.561	0.53613473
379.775	0.5334301
379.99	0.53007571
380.205	0.52847363
380.419	0.52708734
380.634	0.5227081
380.848	0.52911676
381.063	0.53129638
381.278	0.53526464
381.492	0.53401479
381.707	0.53869765
381.921	0.53976511
382.136	0.54938123
382.35	0.54633404
382.565	0.5449716
382.779	0.54613313
382.994	0.55000209
383.208	0.54714504
383.422	0.5527854
383.637	0.55038688
383.851	0.5550976
384.066	0.55859165
384.28	0.56013294
384.494	0.56163657
384.709	0.56534409
384.923	0.56640699
385.137	0.56443898
385.352	0.56493638
385.566	0.56667573
385.78	0.5660908
385.995	0.56553964
386.209	0.56351416
386.423	0.56527747
386.637	0.56932538
386.852	0.56684774
387.066	0.56641958
387.28	0.56432245
387.494	0.56863591
387.708	0.57128252
387.923	0.56920267
388.137	0.57140157
388.351	0.5753332
388.565	0.57808782
388.779	0.58014744
388.993	0.58399039
389.207	0.58486455
389.421	0.58695615
389.635	0.5846094
389.85	0.58293272
390.064	0.58323432
390.278	0.58566496
390.492	0.58543738
390.706	0.58697538
390.92	0.58815659
391.134	0.59159762
391.348	0.59741346
391.561	0.59636636
391.775	0.59485852
391.989	0.59149804
392.203	0.59357463
392.417	0.59484594
392.631	0.59823387
392.845	0.59543356
393.059	0.59989514
393.273	0.60068076
393.486	0.59996868
393.7	0.59657993
393.914	0.59907889
394.128	0.59728322
394.342	0.59662349
394.555	0.59220019
394.769	0.5925608
394.983	0.59553889
395.197	0.59849518
395.41	0.59695139
395.624	0.59850181
395.838	0.59872075
396.051	0.6042637
396.265	0.60422251
396.479	0.60536322
396.692	0.60565
396.906	0.60497697
397.12	0.60392727
397.333	0.60744472
397.547	0.60520456
397.76	0.60918225
397.974	0.60954902
398.187	0.61129866
398.401	0.61373975
398.614	0.61457914
398.828	0.61485666
399.041	0.6163432
399.255	0.61430176
399.468	0.61423254
399.682	0.61368898
399.895	0.61479969
400.109	0.6139981
400.322	0.61251196
400.536	0.6101543
400.749	0.61380925
400.962	0.61466187
401.176	0.6146062
401.389	0.61375072
401.602	0.61180061
401.816	0.61268211
402.029	0.61482416
402.242	0.61248413
402.456	0.61133199
402.669	0.60868767
402.882	0.60550719
403.095	0.60946173
403.309	0.60914945
403.522	0.60940523
403.735	0.60894989
403.948	0.60974883
404.161	0.61610994
404.375	0.61838457
404.588	0.61757276
404.801	0.61786191
405.014	0.61660942
405.227	0.61918431
405.44	0.61990461
405.653	0.61837325
405.866	0.61626045
406.079	0.6154246
406.293	0.6146529
406.506	0.61493237
406.719	0.61340604
406.932	0.61258983
407.145	0.60993395
407.358	0.61392032
407.571	0.61272261
407.784	0.61354155
407.996	0.61403717
408.209	0.6115497
408.422	0.61061799
408.635	0.61145592
408.848	0.60995185
409.061	0.60814755
409.274	0.60739059
409.487	0.60639236
409.7	0.60661475
409.912	0.60757109
410.125	0.60748313
410.338	0.60666052
410.551	0.60663616
410.764	0.60644653
410.976	0.60614313
411.189	0.60660323
411.402	0.60402793
411.615	0.60325159
411.827	0.60265184
412.04	0.60342525
412.253	0.60161045
412.465	0.60020704
412.678	0.59895664
412.891	0.60027077
413.103	0.59715697
413.316	0.59567642
413.529	0.59626336
413.741	0.59736594
413.954	0.59821771
414.166	0.59776305
414.379	0.59633376
414.591	0.59807345
414.804	0.5969651
415.016	0.59552911
415.229	0.59358653
415.441	0.59147537
415.654	0.59170436
415.866	0.59096159
416.079	0.59067924
416.291	0.59003135
416.504	0.59038132
416.716	0.59033128
416.928	0.59012563
417.141	0.5882646
417.353	0.58790613
417.566	0.58451159
417.778	0.58463434
417.99	0.58121646
418.203	0.57874741
418.415	0.5772496
418.627	0.57693895
418.839	0.57603122
419.052	0.57761828
419.264	0.5761386
419.476	0.57663888
419.688	0.5767778
419.901	0.57626652
420.113	0.57460329
420.325	0.57295244
420.537	0.57007416
420.749	0.56942968
420.961	0.56865614
421.174	0.56681854
421.386	0.56484357
421.598	0.56369147
421.81	0.56250508
422.022	0.56178587
422.234	0.5605983
422.446	0.55827058
422.658	0.55698657
422.87	0.55661214
423.082	0.55592763
423.294	0.55440341
423.506	0.55307555
423.718	0.55151001
423.93	0.54959349
424.142	0.54799594
424.354	0.54569423
424.566	0.54338789
424.778	0.54250014
424.99	0.54111667
425.202	0.53922113
425.414	0.53862889
425.625	0.53827266
425.837	0.53626751
426.049	0.53578293
426.261	0.53391058
426.473	0.53171903
426.684	0.53092952
426.896	0.53016779
427.108	0.52787753
427.32	0.52750415
427.531	0.52543238
427.743	0.52417688
427.955	0.52452316
428.167	0.52218061
428.378	0.52006192
428.59	0.51889086
428.802	0.51729049
429.013	0.51573457
429.225	0.51402372
429.436	0.51145895
429.648	0.51068422
429.86	0.50958462
430.071	0.50848145
430.283	0.50726022
430.494	0.50569522
430.706	0.50427827
430.917	0.50246884
431.129	0.50100449
431.34	0.49915073
431.552	0.49751325
431.763	0.4952957
431.975	0.49397362
432.186	0.49162852
432.398	0.49007455
432.609	0.48721274
432.821	0.48574987
433.032	0.48395343
433.243	0.48227494
433.455	0.48045749
433.666	0.47948231
433.877	0.47860773
434.089	0.47709831
434.3	0.47491488
434.511	0.47224249
434.723	0.47032675
434.934	0.46794344
435.145	0.46535632
435.356	0.46288882
435.568	0.46126201
435.779	0.45927454
435.99	0.45725626
436.201	0.45560993
436.412	0.45404398
436.624	0.45300317
436.835	0.45124966
437.046	0.44992041
437.257	0.44835809
437.468	0.4477708
437.679	0.4464778
437.89	0.4448219
438.101	0.44311348
438.312	0.44163684
438.523	0.43948776
438.734	0.43794779
438.945	0.43584978
439.156	0.4334437
439.367	0.431817
439.578	0.4302649
439.789	0.42800638
440	0.426695
440.211	0.42442915
440.422	0.42274212
440.633	0.42137598
440.844	0.41924517
441.055	0.41696906
441.266	0.41554031
441.477	0.41329418
441.687	0.41158175
441.898	0.40986511
442.109	0.407732
442.32	0.40584951
442.531	0.40359734
442.741	0.40106943
442.952	0.39904916
443.163	0.39735127
443.374	0.39483179
443.584	0.39289276
443.795	0.39128928
444.006	0.38989368
444.216	0.38823852
444.427	0.38618752
444.638	0.38412799
444.848	0.38264845
445.059	0.38079344
445.27	0.3785843
445.48	0.3762457
445.691	0.374582
445.901	0.37326321
446.112	0.37163298
446.323	0.36958667
446.533	0.36760137
446.744	0.36576531
446.954	0.36399458
447.165	0.36201131
447.375	0.36032687
447.586	0.35861357
447.796	0.35703662
448.006	0.35538953
448.217	0.35391833
448.427	0.35241582
448.638	0.35034002
448.848	0.34813458
449.058	0.34612115
449.269	0.34426118
449.479	0.34243241
449.689	0.34053606
449.9	0.33873536
450.11	0.33712296
450.32	0.33588701
450.531	0.33406272
450.741	0.33223857
450.951	0.33073232
451.161	0.32896871
451.372	0.32734073
451.582	0.32631129
451.792	0.324298
452.002	0.32291824
452.212	0.32120819
452.422	0.3195282
452.633	0.31776781
452.843	0.31636957
453.053	0.31397672
453.263	0.31253238
453.473	0.31070255
453.683	0.30934585
453.893	0.30742837
454.103	0.30613044
454.313	0.30446896
454.523	0.30316654
454.733	0.30152789
454.943	0.30024641
455.153	0.29878442
455.363	0.29742775
455.573	0.29588129
455.783	0.29434568
455.993	0.29262083
456.203	0.29141565
456.413	0.29002596
456.623	0.28846254
456.833	0.28744324
457.042	0.28595455
457.252	0.28458564
457.462	0.28323261
457.672	0.28177521
457.882	0.28012743
458.091	0.27865244
458.301	0.27673274
458.511	0.275345
458.721	0.27372633
458.931	0.27244972
459.14	0.27095125
459.35	0.2697054
459.56	0.26844853
459.769	0.26765184
459.979	0.26637451
460.189	0.26522768
460.398	0.26387391
460.608	0.26280346
460.817	0.26156063
461.027	0.26044739
461.237	0.25909642
461.446	0.2578689
461.656	0.25686961
461.865	0.25573498
462.075	0.25441197
462.284	0.25340939
462.494	0.25218122
462.703	0.25080733
462.913	0.24974345
463.122	0.24855794
463.332	0.24759514
463.541	0.24677676
463.751	0.24564495
463.96	0.2447084
464.169	0.24388263
464.379	0.24306447
464.588	0.24212157
464.797	0.24119169
465.007	0.24015658
465.216	0.23940082
465.425	0.23853705
465.635	0.23768656
465.844	0.23685721
466.053	0.2360593
466.263	0.23518695
466.472	0.23430724
466.681	0.23341347
466.89	0.23255754
467.099	0.23181598
467.309	0.23095615
467.518	0.23023858
467.727	0.22948429
467.936	0.22877693
468.145	0.22807445
468.354	0.22750482
468.563	0.22672531
468.772	0.22590807
468.982	0.22508771
469.191	0.22459956
469.4	0.22390856
469.609	0.22324378
469.818	0.22256564
470.027	0.22203039
470.236	0.22147808
470.445	0.22097883
470.654	0.22008677
470.863	0.21946722
471.072	0.21893116
471.28	0.21832137
471.489	0.21773886
471.698	0.21732249
471.907	0.21687431
472.116	0.21661167
472.325	0.21617552
472.534	0.21586585
472.743	0.21546135
472.951	0.21509418
473.16	0.21468298
473.369	0.21421773
473.578	0.21381541
473.786	0.21356534
473.995	0.21304949
474.204	0.21277235
474.413	0.21238817
474.621	0.21204044
474.83	0.21193262
475.039	0.21170711
475.247	0.21136806
475.456	0.21115939
475.665	0.21090723
475.873	0.21058194
476.082	0.21014305
476.291	0.20981493
476.499	0.20955832
476.708	0.20926242
476.916	0.20912228
477.125	0.20887135
477.333	0.20876057
477.542	0.20877589
477.75	0.20848843
477.959	0.20837482
478.167	0.20835517
478.376	0.20809415
478.584	0.20791751
478.793	0.20783095
479.001	0.2077128
479.209	0.20761329
479.418	0.2075186
479.626	0.20740265
479.834	0.20738455
480.043	0.20744728
480.251	0.20744548
480.459	0.20741243
480.668	0.20756827
480.876	0.20757009
481.084	0.20759594
481.293	0.20769253
481.501	0.20765843
481.709	0.20779101
481.917	0.2079273
482.125	0.20803953
482.334	0.20812538
482.542	0.20840122
482.75	0.20855025
482.958	0.20882333
483.166	0.20905397
483.374	0.20926164
483.583	0.20941268
483.791	0.20965396
483.999	0.20971146
484.207	0.20993959
484.415	0.21023349
484.623	0.21035249
484.831	0.21054295
485.039	0.21080156
485.247	0.21103296
485.455	0.21132876
485.663	0.2116211
485.871	0.21192422
486.079	0.21215319
486.287	0.21245153
486.495	0.21262559
486.702	0.21286338
486.91	0.21313629
487.118	0.21334158
487.326	0.21357483
487.534	0.21398697
487.742	0.21445253
487.95	0.21490733
488.157	0.21535405
488.365	0.21583223
488.573	0.21641577
488.781	0.21695642
488.988	0.2174314
489.196	0.21787104
489.404	0.21838963
489.612	0.2189972
489.819	0.2195884
490.027	0.2200687
490.235	0.22048527
490.442	0.22100038
490.65	0.22142942
490.857	0.2220291
491.065	0.22251864
491.273	0.22306277
491.48	0.22359364
491.688	0.22419089
491.895	0.22491907
492.103	0.22561882
492.31	0.22623118
492.518	0.22681459
492.725	0.22746213
492.933	0.22811065
493.14	0.22871023
493.348	0.22923534
493.555	0.22987549
493.763	0.23042219
493.97	0.23114201
494.177	0.23176665
494.385	0.23243295
494.592	0.23315289
494.8	0.23379284
495.007	0.2344398
495.214	0.23503827
495.422	0.23573774
495.629	0.23642651
495.836	0.23718775
496.043	0.2380258
496.251	0.23891232
496.458	0.23968456
496.665	0.24056223
496.872	0.24128966
497.08	0.24206709
497.287	0.24280581
497.494	0.2435386
497.701	0.24425162
497.908	0.24509465
498.115	0.24592504
498.322	0.24676044
498.53	0.24757052
498.737	0.24835302
498.944	0.24915706
499.151	0.24996741
499.358	0.25083346
499.565	0.25164482
499.772	0.25264504
499.979	0.25357959
500.186	0.25459883
500.393	0.25552858
500.6	0.25648846
500.807	0.25740168
501.014	0.25839798
501.221	0.25927454
501.427	0.26024066
501.634	0.26121334
501.841	0.2621709
502.048	0.2631297
502.255	0.26403801
502.462	0.26501797
502.669	0.26591692
502.875	0.26688727
503.082	0.26778423
503.289	0.26863791
503.496	0.26953795
503.702	0.2705004
503.909	0.27151668
504.116	0.2725804
504.323	0.27351456
504.529	0.274526
504.736	0.27566084
504.943	0.2767344
505.149	0.2778807
505.356	0.27897717
505.563	0.28006879
505.769	0.2812441
505.976	0.2823726
506.182	0.283508
506.389	0.28462355
506.595	0.28570433
506.802	0.28677333
507.008	0.28783279
507.215	0.28889453
507.421	0.28997426
507.628	0.29095761
507.834	0.2920071
508.041	0.29309155
508.247	0.29412187
508.454	0.29529064
508.66	0.29634232
508.866	0.29742469
509.073	0.29866923
509.279	0.29984082
509.486	0.30090523
509.692	0.30205511
509.898	0.30310774
510.105	0.30429069
510.311	0.30548703
510.517	0.30664517
510.723	0.3078675
510.93	0.30899732
511.136	0.31014952
511.342	0.31132901
511.548	0.31245392
511.754	0.31358901
511.961	0.31470645
512.167	0.31583054
512.373	0.31709454
512.579	0.31831377
512.785	0.31956153
512.991	0.3208481
513.197	0.3221226
513.404	0.32339534
513.61	0.32469245
513.816	0.32589223
514.022	0.32716479
514.228	0.32835134
514.434	0.32949627
514.64	0.33065302
514.846	0.33183121
515.052	0.33294483
515.258	0.33413286
515.464	0.3353694
515.669	0.33673168
515.875	0.33806212
516.081	0.33931841
516.287	0.34066977
516.493	0.34207492
516.699	0.34330879
516.905	0.34451824
517.111	0.34567579
517.316	0.34697634
517.522	0.34824876
517.728	0.34956946
517.934	0.35088154
518.139	0.3522378
518.345	0.35357367
518.551	0.35492834
518.757	0.35606366
518.962	0.35731428
519.168	0.35853607
519.374	0.35961132
519.579	0.36092245
519.785	0.36224175
519.991	0.36351184
520.196	0.36485795
520.402	0.3661667
520.607	0.36736882
520.813	0.36877349
521.018	0.36999152
521.224	0.371097
521.429	0.37240582
521.635	0.37372595
521.84	0.37496293
522.046	0.37628466
522.251	0.37752034
522.457	0.37880612
522.662	0.38021443
522.868	0.38150125
523.073	0.38273084
523.279	0.38404357
523.484	0.38525909
523.689	0.38663504
523.895	0.38804139
524.1	0.38932112
524.305	0.39057365
524.511	0.39191369
524.716	0.39333689
524.921	0.39472852
525.126	0.39602237
525.332	0.397318
525.537	0.39853082
525.742	0.39989668
525.947	0.40117117
526.153	0.4023562
526.358	0.40365174
526.563	0.40493433
526.768	0.40616266
526.973	0.4075515
527.178	0.40882146
527.383	0.41010308
527.588	0.41136967
527.794	0.41255897
527.999	0.41381541
528.204	0.41505142
528.409	0.4162484
528.614	0.41755801
528.819	0.41875275
529.024	0.41999322
529.229	0.42122886
529.434	0.42255706
529.639	0.4238656
529.843	0.42515319
530.048	0.42639133
530.253	0.42768159
530.458	0.4290315
530.663	0.43037023
530.868	0.43156838
531.073	0.43273033
531.278	0.43392636
531.482	0.43505281
531.687	0.43629643
531.892	0.43748188
532.097	0.43862782
532.302	0.43988182
532.506	0.44120764
532.711	0.44256814
532.916	0.44395891
533.12	0.44528264
533.325	0.44658194
533.53	0.44803726
533.734	0.44936405
533.939	0.45068061
534.144	0.45193435
534.348	0.45311455
534.553	0.45444298
534.757	0.45564987
534.962	0.45684176
535.167	0.45804829
535.371	0.45917065
535.576	0.46042212
535.78	0.46167988
535.985	0.46286523
536.189	0.46402421
536.394	0.46520166
536.598	0.4664256
536.803	0.46769327
537.007	0.46884745
537.211	0.4700917
537.416	0.47118748
537.62	0.47237005
537.825	0.47358687
538.029	0.47484968
538.233	0.47600912
538.438	0.47731529
538.642	0.47842048
538.846	0.47975224
539.05	0.48097625
539.255	0.48207167
539.459	0.48323093
539.663	0.48444704
539.867	0.48563299
540.072	0.48685477
540.276	0.48799948
540.48	0.48927733
540.684	0.49043386
540.888	0.49166302
541.092	0.49274578
541.297	0.49379861
541.501	0.49491377
541.705	0.49607132
541.909	0.49713328
542.113	0.4982371
542.317	0.49932427
542.521	0.5005105
542.725	0.5016205
542.929	0.50271467
543.133	0.50384289
543.337	0.50507601
543.541	0.50626329
543.745	0.50723583
543.949	0.50829353
544.153	0.50933324
544.357	0.51035472
544.56	0.51138183
544.764	0.51240484
544.968	0.51342394
545.172	0.51443257
545.376	0.51559899
545.58	0.51671099
545.783	0.51795533
545.987	0.51893741
546.191	0.51991642
546.395	0.52099598
546.598	0.52228215
546.802	0.52340934
547.006	0.52451837
547.21	0.52530706
547.413	0.52643208
547.617	0.52748269
547.821	0.52858402
548.024	0.52956451
548.228	0.53039493
548.431	0.53134086
548.635	0.5324562
548.839	0.53334419
549.042	0.53431695
549.246	0.53511903
549.449	0.53602004
549.653	0.53704155
549.856	0.53803711
550.06	0.53905909
550.263	0.54021079
550.467	0.5413705
550.67	0.54266266
550.874	0.54375313
551.077	0.54491739
551.28	0.54602221
551.484	0.54711057
551.687	0.5480957
551.891	0.54909966
552.094	0.54998831
552.297	0.5510557
552.501	0.55212652
552.704	0.55309902
552.907	0.55393926
553.11	0.55483413
553.314	0.55570649
553.517	0.55643681
553.72	0.55726889
553.923	0.55804718
554.127	0.55896401
554.33	0.55981984
554.533	0.56068757
554.736	0.56146189
554.939	0.56243833
555.142	0.56326917
555.345	0.56410741
555.549	0.56497922
555.752	0.56582531
555.955	0.56670206
556.158	0.56763083
556.361	0.56843211
556.564	0.56928088
556.767	0.57008354
556.97	0.57083991
557.173	0.57180741
557.376	0.57277759
557.579	0.57357066
557.782	0.5744288
557.984	0.57535082
558.187	0.57625713
558.39	0.57710625
558.593	0.57790697
558.796	0.57855559
558.999	0.57931988
559.202	0.58019467
559.404	0.58085485
559.607	0.58160623
559.81	0.58239677
560.013	0.58312209
560.216	0.58396478
560.418	0.58486178
560.621	0.58568871
560.824	0.58656216
561.026	0.5873573
561.229	0.58804895
561.432	0.58884097
561.634	0.58956883
561.837	0.59021555
562.04	0.5908702
562.242	0.59163389
562.445	0.59219101
562.647	0.59295331
562.85	0.59347601
563.053	0.5941067
563.255	0.59480869
563.458	0.59548084
563.66	0.59602197
563.863	0.59685759
564.065	0.59763038
564.268	0.59845586
564.47	0.59926408
564.672	0.59987942
564.875	0.60061938
565.077	0.60137043
565.28	0.60196986
565.482	0.6026355
565.684	0.60331257
565.887	0.60394875
566.089	0.60471655
566.291	0.60535026
566.494	0.60596399
566.696	0.60662759
566.898	0.60728072
567.1	0.60795229
567.303	0.60857376
567.505	0.60913393
567.707	0.60956621
567.909	0.61006948
568.111	0.61064525
568.314	0.61110819
568.516	0.61156539
568.718	0.6120213
568.92	0.61256003
569.122	0.61313483
569.324	0.61368855
569.526	0.61405784
569.728	0.61462438
569.93	0.6151552
570.132	0.61569222
570.334	0.61615884
570.536	0.6167117
570.738	0.61714361
570.94	0.61760027
571.142	0.61815576
571.344	0.61854258
571.546	0.61889544
571.748	0.61940445
571.95	0.61966423
572.152	0.62019176
572.354	0.6207395
572.555	0.6211969
572.757	0.62182017
572.959	0.62233035
573.161	0.62265458
573.363	0.62324017
573.564	0.62374285
573.766	0.624075
573.968	0.62433915
574.17	0.62438061
574.371	0.62476408
574.573	0.62519454
574.775	0.6255054
574.976	0.62577249
575.178	0.62614035
575.38	0.62637531
575.581	0.62674809
575.783	0.62710301
575.985	0.62743888
576.186	0.62792669
576.388	0.62824026
576.589	0.62852808
576.791	0.62900349
576.992	0.62945298
577.194	0.62969184
577.395	0.62984677
577.597	0.62997751
577.798	0.63026472
578	0.63056551
578.201	0.63087898
578.402	0.63118707
578.604	0.63142767
578.805	0.63187663
579.007	0.63228687
579.208	0.63260499
579.409	0.63293072
579.611	0.63299887
579.812	0.63325294
580.013	0.6334924
580.215	0.6335281
580.416	0.63365906
580.617	0.63383436
580.818	0.63409565
581.019	0.63433066
581.221	0.63447759
581.422	0.63461808
581.623	0.63492958
581.824	0.63485834
582.025	0.63490286
582.226	0.63496058
582.428	0.63512288
582.629	0.63524108
582.83	0.6355044
583.031	0.63562797
583.232	0.636009
583.433	0.63630818
583.634	0.63639772
583.835	0.63650355
584.036	0.63657517
584.237	0.63653623
584.438	0.636468
584.639	0.63630546
584.84	0.63628971
585.041	0.6360956
585.242	0.63587438
585.442	0.63577947
585.643	0.63587079
585.844	0.63593089
586.045	0.6360885
586.246	0.63589688
586.447	0.63597672
586.647	0.63608549
586.848	0.63607632
587.049	0.63594526
587.25	0.63583606
587.45	0.63567776
587.651	0.63572885
587.852	0.6357826
588.053	0.63589641
588.253	0.63587895
588.454	0.63594744
588.655	0.6358527
588.855	0.63573579
589.056	0.63568297
589.256	0.63562898
589.457	0.63545455
589.658	0.6354679
589.858	0.63522608
590.059	0.63529594
590.259	0.63545409
590.46	0.63530807
590.66	0.63520481
590.861	0.63511583
591.061	0.63488761
591.262	0.63487912
591.462	0.63469108
591.662	0.63430591
591.863	0.63407064
592.063	0.63385272
592.264	0.63373273
592.464	0.63361293
592.664	0.63337147
592.865	0.63322472
593.065	0.63292687
593.265	0.63282247
593.465	0.63254988
593.666	0.63222813
593.866	0.63196109
594.066	0.63170912
594.266	0.63144761
594.467	0.63119357
594.667	0.63085622
594.867	0.6306939
595.067	0.6304435
595.267	0.63009558
595.467	0.62976886
595.668	0.62932311
595.868	0.62910551
596.068	0.62881376
596.268	0.62831895
596.468	0.62801855
596.668	0.6279182
596.868	0.627564
597.068	0.6274615
597.268	0.62725336
597.468	0.62692851
597.668	0.62662644
597.868	0.626186
598.068	0.625724
598.268	0.62544045
598.467	0.62500568
598.667	0.62449943
598.867	0.62402556
599.067	0.6237538
599.267	0.62344488
599.467	0.62292736
599.667	0.62244957
599.866	0.62202482
600.066	0.62170336
600.266	0.62132107
600.466	0.62086181
600.665	0.62035354
600.865	0.61988464
601.065	0.61955009
601.264	0.61894578
601.464	0.61840867
601.664	0.61797615
601.863	0.6174263
602.063	0.61698408
602.263	0.61635019
602.462	0.61577458
602.662	0.6154586
602.861	0.6149559
603.061	0.61456452
603.26	0.61414016
603.46	0.61366468
603.659	0.61342231
603.859	0.61313309
604.058	0.61255621
604.258	0.61216443
604.457	0.61176112
604.657	0.61125839
604.856	0.6106899
605.056	0.61017861
605.255	0.60949
605.454	0.60894372
605.654	0.60823408
605.853	0.60757999
606.052	0.60692663
606.252	0.60645878
606.451	0.6059947
606.65	0.60550505
606.849	0.60488225
607.049	0.60438233
607.248	0.60375722
607.447	0.6033121
607.646	0.60281451
607.845	0.60209934
608.045	0.60143785
608.244	0.60102907
608.443	0.6005027
608.642	0.60001397
608.841	0.59925747
609.04	0.59853176
609.239	0.5979306
609.438	0.59728226
609.637	0.59661994
609.836	0.59599249
610.035	0.59530451
610.234	0.5946896
610.433	0.59402693
610.632	0.59340812
610.831	0.59277327
611.03	0.59202193
611.229	0.59142084
611.428	0.59075073
611.627	0.59012589
611.826	0.58941694
612.025	0.58877472
612.224	0.58799393
612.422	0.58729873
612.621	0.58647456
612.82	0.58584168
613.019	0.58517221
613.218	0.58459778
613.416	0.58383154
613.615	0.58329006
613.814	0.58260594
614.012	0.58196461
614.211	0.58111182
614.41	0.58038604
614.608	0.57962436
614.807	0.57882786
615.006	0.57809405
615.204	0.57735053
615.403	0.5767222
615.602	0.57602375
615.8	0.57537318
615.999	0.57444016
616.197	0.57372216
616.396	0.57295479
616.594	0.57213839
616.793	0.57119546
616.991	0.57040006
617.19	0.56947149
617.388	0.56894584
617.586	0.56820032
617.785	0.56738882
617.983	0.56663562
618.182	0.56587057
618.38	0.56498083
618.578	0.56420319
618.777	0.56333319
618.975	0.56256726
619.173	0.56175273
619.372	0.5609739
619.57	0.56007644
619.768	0.55945741
619.966	0.5585563
620.165	0.55760217
620.363	0.55675081
620.561	0.55576565
620.759	0.55489869
620.957	0.55416788
621.155	0.55322111
621.354	0.55241759
621.552	0.55171781
621.75	0.55079215
621.948	0.55008421
622.146	0.54921054
622.344	0.54822778
622.542	0.54742498
622.74	0.54652211
622.938	0.54557973
623.136	0.54474453
623.334	0.54393313
623.532	0.54298168
623.73	0.54222666
623.928	0.54136754
624.126	0.54051763
624.324	0.53972907
624.522	0.53875475
624.719	0.53764212
624.917	0.53690731
625.115	0.535947
625.313	0.53518494
625.511	0.53446176
625.708	0.53343572
625.906	0.53256508
626.104	0.53179715
626.302	0.53092671
626.499	0.53009154
626.697	0.52901037
626.895	0.52784573
627.093	0.5269061
627.29	0.52597563
627.488	0.52494432
627.686	0.52393027
627.883	0.52277583
628.081	0.52159906
628.278	0.52073186
628.476	0.51966435
628.673	0.51863625
628.871	0.51773207
629.068	0.51664561
629.266	0.51571024
629.463	0.51481523
629.661	0.51380326
629.858	0.51290299
630.056	0.51197307
630.253	0.51101202
630.451	0.51016
630.648	0.50924663
630.845	0.50837088
631.043	0.50746994
631.24	0.50660735
631.438	0.50571965
631.635	0.50476297
631.832	0.50357098
632.029	0.50258869
632.227	0.5014472
632.424	0.50034146
632.621	0.49915704
632.818	0.49801654
633.016	0.49694385
633.213	0.49605514
633.41	0.49506474
633.607	0.49416321
633.804	0.49321704
634.001	0.49211547
634.199	0.49108753
634.396	0.49007303
634.593	0.48898801
634.79	0.48809926
634.987	0.48703981
635.184	0.48601256
635.381	0.4851909
635.578	0.48429006
635.775	0.48323646
635.972	0.48226881
636.169	0.48108726
636.366	0.48013142
636.563	0.47917392
636.76	0.47808029
636.957	0.47703383
637.153	0.47593346
637.35	0.47502112
637.547	0.47402409
637.744	0.47295348
637.941	0.47196445
638.138	0.47099632
638.334	0.46997761
638.531	0.46912824
638.728	0.46805502
638.925	0.46711254
639.121	0.46617938
639.318	0.46513853
639.515	0.46411443
639.711	0.46317532
639.908	0.46198333
640.105	0.46098773
640.301	0.45992729
640.498	0.45889358
640.695	0.45792667
640.891	0.45690108
641.088	0.45588917
641.284	0.45493305
641.481	0.45389168
641.677	0.45282961
641.874	0.45166036
642.07	0.45066165
642.267	0.44980267
642.463	0.44876065
642.66	0.44795418
642.856	0.44693898
643.053	0.44598366
643.249	0.44514039
643.445	0.44407546
643.642	0.44287671
643.838	0.44182574
644.034	0.44062675
644.231	0.43947321
644.427	0.43840558
644.623	0.4372678
644.82	0.43625424
645.016	0.43514923
645.212	0.43396752
645.408	0.43289372
645.604	0.43205955
645.801	0.43108487
645.997	0.42998202
646.193	0.42894797
646.389	0.42814733
646.585	0.42729317
646.781	0.42639102
646.977	0.4254387
647.173	0.42441704
647.37	0.42353567
647.566	0.42255174
647.762	0.42154259
647.958	0.42069162
648.154	0.41961975
648.35	0.41857754
648.546	0.41753651
648.742	0.41662898
648.937	0.41551413
649.133	0.41447819
649.329	0.41333613
649.525	0.41234208
649.721	0.41118017
649.917	0.41016956
650.113	0.40887509
650.309	0.40790308
650.504	0.4066978
650.7	0.40557424
650.896	0.4045256
651.092	0.40351267
651.287	0.40248394
651.483	0.40159092
651.679	0.40054207
651.875	0.3997281
652.07	0.39883893
652.266	0.39787078
652.462	0.39703246
652.657	0.3960696
652.853	0.39508919
653.048	0.39416859
653.244	0.39307847
653.44	0.39209637
653.635	0.39104312
653.831	0.39001172
654.026	0.38913996
654.222	0.38814996
654.417	0.38720074
654.613	0.38621288
654.808	0.3851391
655.004	0.38414363
655.199	0.38305257
655.394	0.3819481
655.59	0.38096762
655.785	0.3798013
655.98	0.37881351
656.176	0.37770069
656.371	0.37691453
656.566	0.37600229
656.762	0.37500516
656.957	0.37407854
657.152	0.37320929
657.348	0.37224527
657.543	0.37138518
657.738	0.37023979
657.933	0.36917965
658.128	0.36809548
658.324	0.36696305
658.519	0.3659345
658.714	0.36489432
658.909	0.36383364
659.104	0.36285723
659.299	0.36186154
659.494	0.3609123
659.689	0.35996975
659.884	0.35891772
660.079	0.35785779
660.274	0.35681996
660.469	0.3557715
660.664	0.35487328
660.859	0.35392559
661.054	0.3530484
661.249	0.35217445
661.444	0.35127552
661.639	0.35033451
661.834	0.34941955
662.029	0.34843272
662.224	0.3474788
662.418	0.34645627
662.613	0.34555242
662.808	0.3445398
663.003	0.34365904
663.198	0.34257836
663.392	0.34150939
663.587	0.34067178
663.782	0.33958707
663.977	0.3384731
664.171	0.33756077
664.366	0.33648006
664.561	0.33554935
664.755	0.33459199
664.95	0.33347549
665.144	0.33259261
665.339	0.33175184
665.534	0.33087777
665.728	0.33001903
665.923	0.32912868
666.117	0.3282795
666.312	0.32737511
666.506	0.3264904
666.701	0.3255333
666.895	0.32461345
667.09	0.3236574
667.284	0.32281533
667.479	0.32185303
667.673	0.32099259
667.867	0.32011503
668.062	0.31923403
668.256	0.31835998
668.45	0.31764049
668.645	0.31673285
668.839	0.31591077
669.033	0.3149563
669.228	0.31405139
669.422	0.31318309
669.616	0.3122489
669.81	0.31131813
670.004	0.31051366
670.199	0.30971961
670.393	0.30894251
670.587	0.30805018
670.781	0.30709694
670.975	0.30618305
671.169	0.30515262
671.363	0.30408218
671.558	0.30310085
671.752	0.30220887
671.946	0.30140985
672.14	0.30062953
672.334	0.29964012
672.528	0.2988969
672.722	0.298054
672.916	0.29722945
673.11	0.29630306
673.304	0.29547696
673.497	0.29446017
673.691	0.29369644
673.885	0.29268932
674.079	0.29182386
674.273	0.29088805
674.467	0.29001694
674.661	0.28906025
674.854	0.28828532
675.048	0.28755118
675.242	0.28685501
675.436	0.28613037
675.629	0.28538876
675.823	0.28459572
676.017	0.2838738
676.211	0.28310463
676.404	0.28230091
676.598	0.2815332
676.792	0.2806914
676.985	0.27985235
677.179	0.27900732
677.372	0.27804836
677.566	0.27711377
677.76	0.27606547
677.953	0.27502093
678.147	0.27411761
678.34	0.27328677
678.534	0.27246899
678.727	0.27182355
678.921	0.27123325
679.114	0.27060891
679.307	0.26998047
679.501	0.26927031
679.694	0.26857161
679.888	0.26787415
680.081	0.26716633
680.274	0.26629247
680.468	0.26560145
680.661	0.26485065
680.854	0.26420373
681.048	0.26332756
681.241	0.26235845
681.434	0.26139253
681.627	0.26052103
681.821	0.25963015
682.014	0.25887907
682.207	0.25796837
682.4	0.25723595
682.593	0.25662994
682.786	0.25593175
682.98	0.25521987
683.173	0.25454348
683.366	0.25383259
683.559	0.25318729
683.752	0.25249917
683.945	0.25176279
684.138	0.25106066
684.331	0.25031861
684.524	0.24962841
684.717	0.24883444
684.91	0.24815032
685.103	0.24742147
685.296	0.24670707
685.489	0.24601125
685.682	0.24530288
685.874	0.24456684
686.067	0.24383212
686.26	0.24307123
686.453	0.24238046
686.646	0.24163106
686.839	0.24099794
687.031	0.24041047
687.224	0.23972731
687.417	0.23926905
687.61	0.2386328
687.802	0.2379577
687.995	0.23733532
688.188	0.23670165
688.38	0.23600319
688.573	0.23537246
688.766	0.23462336
688.958	0.23393712
689.151	0.23322968
689.343	0.23259135
689.536	0.2318235
689.729	0.2311217
689.921	0.23039474
690.114	0.22961429
690.306	0.22892093
690.499	0.22834978
690.691	0.22775423
690.884	0.2271205
691.076	0.22655058
691.268	0.2259488
691.461	0.22539409
691.653	0.22491132
691.846	0.22435453
692.038	0.22372649
692.23	0.22307022
692.423	0.22245453
692.615	0.22195203
692.807	0.22140477
692.999	0.22075673
693.192	0.22011162
693.384	0.21956883
693.576	0.21906498
693.768	0.21861278
693.961	0.21799932
694.153	0.21746098
694.345	0.21698387
694.537	0.21652886
694.729	0.21605604
694.921	0.21555145
695.113	0.21491493
695.305	0.21429703
695.498	0.21356814
695.69	0.21286817
695.882	0.2121296
696.074	0.2114371
696.266	0.21072517
696.458	0.21010452
696.65	0.20954709
696.842	0.20912047
697.033	0.20860997
697.225	0.2080521
697.417	0.20749003
697.609	0.20692379
697.801	0.2063455
697.993	0.20575722
698.185	0.20507812
698.376	0.20438593
698.568	0.20375678
698.76	0.20312675
698.952	0.20258895
699.144	0.20206611
699.335	0.20163263
699.527	0.20125051
699.719	0.20085324
699.91	0.2004644
700.102	0.20001617
700.294	0.19962527
700.485	0.19918219
700.677	0.19870673
700.869	0.19828087
701.06	0.19792528
701.252	0.19752371
701.443	0.19720417
701.635	0.19682376
701.826	0.19644593
702.018	0.19603725
702.209	0.19564255
702.401	0.19520427
702.592	0.19485086
702.784	0.19449259
702.975	0.19415346
703.166	0.19380817
703.358	0.19337291
703.549	0.19290275
703.741	0.19240082
703.932	0.19184495
704.123	0.19127262
704.315	0.19065112
704.506	0.19010985
704.697	0.18954467
704.888	0.18912876
705.08	0.18878331
705.271	0.18849677
705.462	0.1881004
705.653	0.18779409
705.844	0.18735679
706.035	0.18708188
706.227	0.18667667
706.418	0.18627956
706.609	0.18581502
706.8	0.18548817
706.991	0.18506561
707.182	0.18478233
707.373	0.1844215
707.564	0.18404629
707.755	0.18363723
707.946	0.18325788
708.137	0.18283412
708.328	0.18246
708.519	0.18208763
708.71	0.18167981
708.901	0.18123921
709.092	0.1809241
709.283	0.18055183
709.473	0.18029561
709.664	0.18003536
709.855	0.17971313
710.046	0.1793866
710.237	0.17907016
710.427	0.17863601
710.618	0.17825118
710.809	0.17770773
711	0.17719395
711.19	0.17665798
711.381	0.17618132
711.572	0.17571751
711.762	0.17540364
711.953	0.17511254
712.144	0.17490824
712.334	0.17474309
712.525	0.17462211
712.715	0.17448955
712.906	0.17430179
713.097	0.17404703
713.287	0.17383621
713.478	0.17356249
713.668	0.17328052
713.859	0.17303205
714.049	0.1727893
714.239	0.17262453
714.43	0.17235934
714.62	0.17208191
714.811	0.17180384
715.001	0.17153959
715.191	0.17121048
715.382	0.17088891
715.572	0.17063848
715.762	0.17044219
715.953	0.17022705
716.143	0.17002665
716.333	0.16979786
716.523	0.16967016
716.714	0.16958458
716.904	0.16941288
717.094	0.16929868
717.284	0.16911749
717.474	0.16890547
717.664	0.16875502
717.855	0.16852637
718.045	0.16828145
718.235	0.16811486
718.425	0.1679839
718.615	0.16788045
718.805	0.16789483
718.995	0.16779787
719.185	0.16769632
719.375	0.16754574
719.565	0.16741473
719.755	0.16716744
719.945	0.16695043
720.135	0.1666936
720.325	0.16645829
720.515	0.16630075
720.704	0.16617072
720.894	0.16594532
721.084	0.16578221
721.274	0.16565649
721.464	0.16548249
721.654	0.16536315
721.843	0.16518341
722.033	0.16508434
722.223	0.16504229
722.413	0.16499288
722.602	0.1648712
722.792	0.16476181
722.982	0.16466294
723.171	0.1646324
723.361	0.16452407
723.55	0.16438718
723.74	0.16416563
723.93	0.16400902
724.119	0.16387627
724.309	0.16377496
724.498	0.16358421
724.688	0.1634278
724.877	0.16325733
725.067	0.16311008
725.256	0.16298625
725.446	0.16296386
725.635	0.16279588
725.825	0.16266736
726.014	0.16257172
726.203	0.16241786
726.393	0.16225363
726.582	0.16207817
726.771	0.16179756
726.961	0.1616135
727.15	0.16154885
727.339	0.16137824
727.529	0.16129387
727.718	0.1612416
727.907	0.16116526
728.096	0.16109627
728.286	0.16093754
728.475	0.16073996
728.664	0.16057668
728.853	0.1604951
729.042	0.16038185
729.231	0.16029804
729.42	0.16022792
729.609	0.16023012
729.799	0.16005623
729.988	0.15992124
730.177	0.15973624
730.366	0.15959644
730.555	0.15948918
730.744	0.15944894
730.933	0.15935151
731.122	0.15936826
731.31	0.159349
731.499	0.15932373
731.688	0.15931104
731.877	0.15929048
732.066	0.1592229
732.255	0.15924229
732.444	0.15919953
732.632	0.15920815
732.821	0.15919683
733.01	0.15923112
733.199	0.15922582
733.388	0.15915736
733.576	0.15913456
733.765	0.15913913
733.954	0.15905126
734.142	0.15900672
734.331	0.15885575
734.52	0.15869409
734.708	0.15850811
734.897	0.15827936
735.086	0.15814707
735.274	0.15808187
735.463	0.15794646
735.651	0.15783063
735.84	0.15778265
736.028	0.15781864
736.217	0.15785966
736.405	0.15783117
736.594	0.15779574
736.782	0.1578259
736.971	0.15793981
737.159	0.15802677
737.347	0.15811319
737.536	0.15812349
737.724	0.15812477
737.912	0.15812128
738.101	0.15807624
738.289	0.15801248
738.477	0.15800721
738.666	0.15795135
738.854	0.15802113
739.042	0.15805874
739.23	0.158094
739.418	0.15819105
739.607	0.15827538
739.795	0.1582633
739.983	0.15830572
740.171	0.15827832
740.359	0.1583281
740.547	0.15846846
740.735	0.15853055
740.923	0.15860369
741.112	0.15865687
741.3	0.15871747
741.488	0.15876422
741.676	0.15874421
741.864	0.15872503
742.052	0.15872688
742.239	0.15866083
742.427	0.15861932
742.615	0.15852852
742.803	0.15849117
742.991	0.15855574
743.179	0.15858962
743.367	0.15863646
743.555	0.15884523
743.742	0.15907835
743.93	0.15936523
744.118	0.15956045
744.306	0.15973922
744.494	0.15989985
744.681	0.16001965
744.869	0.16002749
745.057	0.15997132
745.244	0.15989454
745.432	0.15990621
745.62	0.15990102
745.807	0.15991524
745.995	0.1600356
746.182	0.16017244
746.37	0.16036248
746.558	0.1605588
746.745	0.1607126
746.933	0.16090101
747.12	0.16103623
747.308	0.16116723
747.495	0.16123106
747.683	0.16136165
747.87	0.16148666
748.057	0.16165583
748.245	0.1617497
748.432	0.16181803
748.62	0.16191781
748.807	0.16212906
748.994	0.16231202
749.182	0.16248328
749.369	0.16261341
749.556	0.16278214
749.743	0.16303808
749.931	0.16320851
750.118	0.1633178
750.305	0.16336395
750.492	0.16336625
750.68	0.16347728
750.867	0.16368532
751.054	0.16377861
751.241	0.16384514
751.428	0.16379741
751.615	0.1637472
751.802	0.16369321
751.989	0.16352959
752.176	0.16336543
752.363	0.16330887
752.55	0.16327016
752.737	0.16340512
752.924	0.16360546
753.111	0.16394644
753.298	0.16433945
753.485	0.16464287
753.672	0.16488146
753.859	0.16516902
754.046	0.1653782
754.233	0.16552497
754.42	0.16566425
754.606	0.16567774
754.793	0.16569006
754.98	0.16576401
755.167	0.16578289
755.353	0.16591881
755.54	0.16609255
755.727	0.16627604
755.914	0.16654535
756.1	0.16676981
756.287	0.16702984
756.474	0.16732888
756.66	0.16750673
756.847	0.16755076
757.033	0.16752204
757.22	0.16746576
757.407	0.16745347
757.593	0.16742186
757.78	0.16738843
757.966	0.16738304
758.153	0.1675445
758.339	0.16762893
758.526	0.16782229
758.712	0.1680898
758.898	0.16839432
759.085	0.16871066
759.271	0.16908446
759.458	0.16948863
759.644	0.16991675
759.83	0.17020888
760.017	0.17041262
760.203	0.17062155
760.389	0.17073352
760.576	0.17082931
760.762	0.17080633
760.948	0.17079014
761.134	0.1708308
761.32	0.17096877
761.507	0.17105803
761.693	0.17127475
761.879	0.17147235
762.065	0.17175335
762.251	0.17212246
762.437	0.17248421
762.623	0.17278024
762.809	0.17298317
762.995	0.17319288
763.181	0.17334922
763.367	0.17349133
763.553	0.17355628
763.739	0.17360484
763.925	0.17358526
764.111	0.17367851
764.297	0.17371517
764.483	0.17376171
764.669	0.17380671
764.855	0.17395818
765.041	0.17418704
765.227	0.17444443
765.412	0.17469443
765.598	0.17502475
765.784	0.17544911
765.97	0.17579451
766.156	0.17605815
766.341	0.17624005
766.527	0.17647775
766.713	0.17664159
766.898	0.17682036
767.084	0.17690561
767.27	0.1770084
767.455	0.17713597
767.641	0.1773682
767.827	0.17753055
768.012	0.17777555
768.198	0.17797106
768.383	0.1782473
768.569	0.17861318
768.754	0.17901903
768.94	0.1793417
769.125	0.17966677
769.311	0.17998061
769.496	0.18034131
769.682	0.18060727
769.867	0.18078264
770.052	0.18091953
770.238	0.18100134
770.423	0.1811541
770.608	0.18129868
770.794	0.18136203
770.979	0.18144661
771.164	0.18168325
771.35	0.18180941
771.535	0.18206432
771.72	0.18229348
771.905	0.18256288
772.09	0.18270457
772.276	0.18301263
772.461	0.18317485
772.646	0.18343974
772.831	0.18368264
773.016	0.1838946
773.201	0.18405435
773.386	0.18438012
773.571	0.18458946
773.756	0.18494687
773.941	0.18521396
774.126	0.18557957
774.311	0.18582674
774.496	0.18608651
774.681	0.18619189
774.866	0.1863149
775.051	0.18633971
775.236	0.1865663
775.421	0.18663643
775.606	0.18688376
775.791	0.18705551
775.976	0.18735528
776.16	0.18763437
776.345	0.18794813
776.53	0.18814579
776.715	0.1883881
776.899	0.18859942
777.084	0.18879761
777.269	0.18904804
777.454	0.18922681
777.638	0.18947242
777.823	0.18972826
778.008	0.19001479
778.192	0.19037905
778.377	0.19065155
778.561	0.19086951
778.746	0.19107749
778.931	0.19114786
779.115	0.19124336
779.3	0.19124911
779.484	0.19126067
779.669	0.1913667
779.853	0.1914748
780.037	0.19159197
780.222	0.19168975
780.406	0.19175479
780.591	0.19194976
780.775	0.19196694
780.959	0.19201105
781.144	0.19200891
781.328	0.19205167
781.512	0.1921374
781.697	0.19226498
781.881	0.19235981
782.065	0.19256188
782.249	0.19271292
782.434	0.19301014
782.618	0.19324169
782.802	0.19347129
782.986	0.19363723
783.17	0.19367346
783.354	0.19370793
783.539	0.19383698
783.723	0.19390575
783.907	0.194027
784.091	0.19423306
784.275	0.19439479
784.459	0.19461702
784.643	0.19480565
784.827	0.1949484
785.011	0.19491486
785.195	0.19494054
785.379	0.19494341
785.563	0.1951079
785.747	0.19520249
785.93	0.19526768
786.114	0.19532429
786.298	0.19542628
786.482	0.19552631
786.666	0.19556604
786.85	0.19558669
787.033	0.19579439
787.217	0.19608673
787.401	0.19632758
787.585	0.19668194
787.768	0.19701268
787.952	0.19728904
788.136	0.19748965
788.319	0.19758548
788.503	0.19764031
788.687	0.19776918
788.87	0.1977542
789.054	0.19771816
789.237	0.19782248
789.421	0.19797072
789.605	0.19816135
789.788	0.19838886
789.972	0.19862013
790.155	0.1989609
790.338	0.19931473
790.522	0.19962742
790.705	0.19993971
790.889	0.20018846
791.072	0.20043052
791.256	0.20068818
791.439	0.20092405
791.622	0.20113088
791.806	0.20140402
791.989	0.20154786
792.172	0.20171621
792.355	0.20184692
792.539	0.20187832
792.722	0.20187751
792.905	0.20185417
793.088	0.20175519
793.271	0.20188111
793.455	0.20204289
793.638	0.2022058
793.821	0.20248073
794.004	0.20284151
794.187	0.20331185
794.37	0.20377368
794.553	0.20401662
794.736	0.20414855
794.919	0.20438003
795.102	0.20451023
795.285	0.20473798
795.468	0.20487874
795.651	0.20501623
795.834	0.20528582
796.017	0.20563504
796.2	0.20592017
796.383	0.20634991
796.566	0.20669202
796.749	0.20702625
796.931	0.20732599
797.114	0.20763072
797.297	0.20784961
797.48	0.20807469
797.663	0.20819044
797.845	0.20825472
798.028	0.20839972
798.211	0.20855824
798.393	0.2086197
798.576	0.20880272
798.759	0.20885294
798.941	0.20902366
799.124	0.20929128
799.307	0.20949158
799.489	0.20971651
799.672	0.21001693
799.854	0.21028991
800.037	0.21069003
800.219	0.2110765
800.402	0.21133083
800.584	0.21163249
800.767	0.21198382
800.949	0.21230508
801.132	0.21257768
801.314	0.2127895
801.496	0.2129788
801.679	0.21316
801.861	0.21330323
802.043	0.2133543
802.226	0.21347232
802.408	0.21354303
802.59	0.21366832
802.772	0.21374172
802.955	0.2139198
803.137	0.21401941
803.319	0.21411768
803.501	0.21412497
803.684	0.21421955
803.866	0.21431518
804.048	0.21442645
804.23	0.21453282
804.412	0.21486922
804.594	0.21509396
804.776	0.21545744
804.958	0.21577881
805.14	0.21600293
805.322	0.21616377
805.504	0.2162538
805.686	0.21626094
805.868	0.21638182
806.05	0.21643541
806.232	0.21647718
806.414	0.21660466
806.596	0.21676261
806.778	0.21688526
806.96	0.2170513
807.141	0.21713215
807.323	0.21710147
807.505	0.2170833
807.687	0.2170042
807.869	0.21684425
808.05	0.21668401
808.232	0.21647937
808.414	0.21631022
808.595	0.21629578
808.777	0.2162861
808.959	0.21641165
809.14	0.21659183
809.322	0.21687035
809.504	0.21718937
809.685	0.21762369
809.867	0.21799381
810.048	0.21822308
810.23	0.21834879
810.411	0.21854709
810.593	0.21862858
810.774	0.21854921
810.956	0.21829784
811.137	0.21801302
811.319	0.21789837
811.5	0.21782437
811.681	0.21772002
811.863	0.21767893
812.044	0.21778151
812.225	0.2180273
812.407	0.21816967
812.588	0.21830331
812.769	0.21835912
812.951	0.21840814
813.132	0.2184862
813.313	0.21852212
813.494	0.21857162
813.675	0.21879262
813.857	0.21899963
814.038	0.21924363
814.219	0.21944185
814.4	0.21965835
814.581	0.21985293
814.762	0.21984909
814.943	0.21982203
815.124	0.21970392
815.305	0.2196819
815.486	0.21967851
815.667	0.2197254
815.848	0.21980964
816.029	0.2199944
816.21	0.22019475
816.391	0.22049816
816.572	0.22073242
816.753	0.22098275
816.934	0.22105471
817.115	0.22112448
817.295	0.22123946
817.476	0.22124609
817.657	0.22136899
817.838	0.22159126
818.019	0.22179311
818.199	0.22200341
818.38	0.22217401
818.561	0.2223968
818.741	0.22261485
818.922	0.22276756
819.103	0.22281275
819.283	0.22292411
819.464	0.22320054
819.645	0.22350113
819.825	0.22368835
820.006	0.22394791
820.186	0.22418151
820.367	0.22438197
820.547	0.22439594
820.728	0.22435165
820.908	0.22429965
821.089	0.22446024
821.269	0.2245994
821.45	0.22488417
821.63	0.22505643
821.81	0.22546542
821.991	0.22579914
822.171	0.22616412
822.351	0.22639873
822.532	0.22668833
822.712	0.22676618
822.892	0.22704778
823.072	0.22708459
823.253	0.2271891
823.433	0.22723094
823.613	0.22729846
823.793	0.22736051
823.973	0.22751669
824.154	0.22751552
824.334	0.22762247
824.514	0.22776643
824.694	0.22796662
824.874	0.22815826
825.054	0.22822923
825.234	0.22824887
825.414	0.22837045
825.594	0.22866168
825.774	0.22888981
825.954	0.22907157
826.134	0.22920574
826.314	0.22942738
826.494	0.22969438
826.674	0.22978281
826.854	0.22974155
827.033	0.22965274
827.213	0.22967354
827.393	0.22964209
827.573	0.22973934
827.753	0.22986346
827.932	0.23024491
828.112	0.23056385
828.292	0.23096486
828.472	0.23120566
828.651	0.23150427
828.831	0.23159328
829.011	0.23159989
829.19	0.23147115
829.37	0.2315323
829.549	0.2315975
829.729	0.23172012
829.909	0.23189822
830.088	0.2321906
830.268	0.23249833
830.447	0.23282804
830.627	0.23312813
830.806	0.23337096
830.986	0.23362896
831.165	0.23387263
831.344	0.23409298
831.524	0.23422939
831.703	0.23437853
831.883	0.23441708
832.062	0.23452802
832.241	0.23445476
832.421	0.23432583
832.6	0.2341276
832.779	0.23407663
832.958	0.2340028
833.138	0.23402039
833.317	0.23405137
833.496	0.23426409
833.675	0.2344992
833.854	0.23481431
834.034	0.23496937
834.213	0.23503292
834.392	0.23511091
834.571	0.23508541
834.75	0.23501222
834.929	0.2349578
835.108	0.23473329
835.287	0.23468589
835.466	0.23463246
835.645	0.2346023
835.824	0.23463679
836.003	0.23474073
836.182	0.23479668
836.361	0.2348586
836.54	0.23480081
836.719	0.23482743
836.897	0.23484913
837.076	0.23488819
837.255	0.23487963
837.434	0.23493503
837.613	0.23500259
837.791	0.23509877
837.97	0.23532579
838.149	0.23529977
838.328	0.23514409
838.506	0.23503651
838.685	0.23493509
838.864	0.23502619
839.042	0.23502699
839.221	0.23500675
839.4	0.23508921
839.578	0.23530791
839.757	0.23549744
839.935	0.23577243
840.114	0.23596805
840.292	0.23618174
840.471	0.23636226
840.649	0.23658535
840.828	0.23668464
841.006	0.23685775
841.185	0.23690574
841.363	0.236927
841.541	0.23702932
841.72	0.23715544
841.898	0.23717438
842.076	0.23734989
842.255	0.23732248
842.433	0.23731103
842.611	0.23738163
842.789	0.23739476
842.968	0.23738745
843.146	0.23743762
843.324	0.23737865
843.502	0.23748995
843.68	0.23768102
843.859	0.23769411
844.037	0.23783908
844.215	0.23783077
844.393	0.23789673
844.571	0.23796717
844.749	0.23799149
844.927	0.23796457
845.105	0.23798543
845.283	0.23792862
845.461	0.23794729
845.639	0.23799981
845.817	0.23815026
845.995	0.23836317
846.173	0.23848726
846.351	0.23852467
846.529	0.23864246
846.706	0.23859509
846.884	0.23846548
847.062	0.23812183
847.24	0.23785234
847.418	0.23760768
847.595	0.23762029
847.773	0.23753662
847.951	0.23759531
848.129	0.23783812
848.306	0.2381844
848.484	0.2383142
848.662	0.23860696
848.839	0.23881136
849.017	0.23893024
849.194	0.23904159
849.372	0.23904356
849.549	0.23906494
849.727	0.23915702
849.905	0.2390724
850.082	0.23890887
850.26	0.23879096
850.437	0.23876071
850.614	0.23875503
850.792	0.23873923
850.969	0.23878526
851.147	0.2388442
851.324	0.23872327
851.501	0.23869102
851.679	0.23854841
851.856	0.23835751
852.033	0.23808486
852.211	0.23782767
852.388	0.23752754
852.565	0.2376541
852.742	0.23768163
852.92	0.23781081
853.097	0.23788601
853.274	0.23794822
853.451	0.23788329
853.628	0.23785032
853.805	0.23775883
853.982	0.2377241
854.159	0.23767237
854.336	0.23767373
854.514	0.23768454
854.691	0.23780154
854.868	0.23799762
855.045	0.23788343
855.221	0.23779837
855.398	0.23762158
855.575	0.23741208
855.752	0.23726467
855.929	0.23721765
856.106	0.23707572
856.283	0.23701945
856.46	0.23687409
856.637	0.23705475
856.813	0.23718271
856.99	0.23739317
857.167	0.23741311
857.344	0.2374818
857.52	0.23761268
857.697	0.23761769
857.874	0.23739889
858.05	0.23737861
858.227	0.2373356
858.404	0.23727085
858.58	0.23728674
858.757	0.23726375
858.933	0.23743534
859.11	0.23742121
859.287	0.23717469
859.463	0.23701727
859.64	0.23700448
859.816	0.23690364
859.993	0.23688787
860.169	0.23696978
860.345	0.23701696
860.522	0.23714616
860.698	0.23696626
860.875	0.23686597
861.051	0.23675027
861.227	0.23653093
861.404	0.23638137
861.58	0.23640357
861.756	0.23645239
861.932	0.23679554
862.109	0.23676271
862.285	0.23687204
862.461	0.23712865
862.637	0.23707691
862.813	0.23699617
862.99	0.23695231
863.166	0.23662032
863.342	0.23660547
863.518	0.23628513
863.694	0.23594001
863.87	0.2355617
864.046	0.23537526
864.222	0.23520918
864.398	0.23507007
864.574	0.23483449
864.75	0.23482169
864.926	0.23487933
865.102	0.23507936
865.278	0.23502381
865.454	0.23493875
865.63	0.23500035
865.805	0.23496496
865.981	0.2349518
866.157	0.23495304
866.333	0.2347868
866.509	0.23487676
866.684	0.23495862
866.86	0.23506324
867.036	0.23523684
867.212	0.23524718
867.387	0.23521643
867.563	0.23546296
867.739	0.23549454
867.914	0.23557305
868.09	0.23534614
868.265	0.23511014
868.441	0.23493148
868.617	0.23467619
868.792	0.23429616
868.968	0.23404564
869.143	0.23394675
869.319	0.23397639
869.494	0.23397983
869.67	0.23408773
869.845	0.23407238
870.02	0.23409658
870.196	0.23411645
870.371	0.23384274
870.546	0.2335793
870.722	0.2335786
870.897	0.23334092
871.072	0.23329021
871.248	0.23307965
871.423	0.23290339
871.598	0.23278034
871.773	0.23274256
871.949	0.23246659
872.124	0.23251474
872.299	0.23237051
872.474	0.23230843
872.649	0.23215026
872.824	0.23207161
872.999	0.23196808
873.174	0.23187242
873.349	0.2317173
873.524	0.23148207
873.699	0.23130878
873.874	0.2311219
874.049	0.23085349
874.224	0.23050763
874.399	0.23019334
874.574	0.22991116
874.749	0.22979199
874.924	0.22955205
875.099	0.22942057
875.274	0.22926533
875.449	0.22934913
875.623	0.2291718
875.798	0.22889857
875.973	0.22863973
876.148	0.22844321
876.322	0.22828545
876.497	0.22810478
876.672	0.2278122
876.846	0.22783096
877.021	0.22776365
877.196	0.22758121
877.37	0.22752895
877.545	0.22739797
877.72	0.22730445
877.894	0.22718167
878.069	0.22692276
878.243	0.22678412
878.418	0.22689718
878.592	0.22684894
878.767	0.22686081
878.941	0.22680272
879.116	0.22681507
879.29	0.22676802
879.464	0.22668151
879.639	0.22649759
879.813	0.22644303
879.987	0.22622293
880.162	0.22602665
880.336	0.225765
880.51	0.22563156
880.685	0.22542594
880.859	0.22529425
881.033	0.22508225
881.207	0.22483186
881.381	0.22474759
881.556	0.22468467
881.73	0.22456379
881.904	0.22457915
882.078	0.22445645
882.252	0.22436631
882.426	0.2244077
882.6	0.22434693
882.774	0.22440124
882.948	0.22444931
883.122	0.22422754
883.296	0.22411177
883.47	0.22406489
883.644	0.22392962
883.818	0.22368857
883.992	0.22339985
884.166	0.22329907
884.34	0.2233321
884.514	0.22328351
884.687	0.22312112
884.861	0.22288366
885.035	0.22284529
885.209	0.22277911
885.382	0.22247706
885.556	0.22217585
885.73	0.22199033
885.904	0.22184043
886.077	0.2217163
886.251	0.22151561
886.425	0.2214822
886.598	0.22153045
886.772	0.22145836
886.945	0.22119627
887.119	0.22098896
887.292	0.22085969
887.466	0.22074913
887.64	0.22039968
887.813	0.22005071
887.986	0.21972908
888.16	0.21963395
888.333	0.2193624
888.507	0.21923018
888.68	0.21897555
888.854	0.21879837
889.027	0.21871657
889.2	0.21879842
889.374	0.21868541
889.547	0.2188146
889.72	0.21891259
889.893	0.21881639
890.067	0.21874297
890.24	0.21845411
890.413	0.21820089
890.586	0.21801951
890.759	0.21789166
890.933	0.21765445
891.106	0.21741644
891.279	0.21731651
891.452	0.21723982
891.625	0.21706095
891.798	0.21680122
891.971	0.2164734
892.144	0.21599922
892.317	0.21586051
892.49	0.21535506
892.663	0.21511183
892.836	0.2149104
893.009	0.21478976
893.182	0.21447067
893.355	0.21428962
893.527	0.214108
893.7	0.21427151
893.873	0.21408086
894.046	0.21377185
894.219	0.2135956
894.391	0.21341506
894.564	0.21327327
894.737	0.21300469
894.91	0.21265714
895.082	0.21249242
895.255	0.2123904
895.428	0.21216992
895.6	0.21212695
895.773	0.21207224
895.945	0.21214814
896.118	0.21203305
896.291	0.21186272
896.463	0.21169486
896.636	0.21156101
896.808	0.21143958
896.981	0.21137655
897.153	0.21107248
897.326	0.21099811
897.498	0.21076821
897.67	0.21064143
897.843	0.210484
898.015	0.21016304
898.187	0.20972432
898.36	0.20940831
898.532	0.20898371
898.704	0.20880718
898.877	0.20849076
899.049	0.20821598
899.221	0.20807155
899.393	0.20794026
899.566	0.20777515
899.738	0.20772208
899.91	0.20752509
900.082	0.20757244
900.254	0.20749636
900.426	0.207391
900.598	0.20736606
900.77	0.20721088
900.942	0.20690771
901.114	0.20660646
901.286	0.20611912
901.458	0.20568017
901.63	0.20527824
901.802	0.20487841
901.974	0.20467701
902.146	0.20446288
902.318	0.20449219
902.49	0.20443949
902.662	0.20439555
902.834	0.20426986
903.005	0.20409403
903.177	0.20384939
903.349	0.20370262
903.521	0.2032168
903.693	0.20300611
903.864	0.20276937
904.036	0.20265872
904.208	0.20248807
904.379	0.20230938
904.551	0.20211861
904.723	0.20185519
904.894	0.20133666
905.066	0.20094526
905.237	0.20046266
905.409	0.19999567
905.58	0.19966345
905.752	0.19949304
905.923	0.1994621
906.095	0.19948344
906.266	0.19948388
906.438	0.19959678
906.609	0.19976098
906.78	0.1997618
906.952	0.19969695
907.123	0.19960804
907.295	0.19950745
907.466	0.19937409
907.637	0.19908153
907.808	0.19861207
907.98	0.19814063
908.151	0.19770398
908.322	0.19749543
908.493	0.19723655
908.665	0.19701983
908.836	0.19677478
909.007	0.1967025
909.178	0.1966993
909.349	0.1965409
909.52	0.1964962
909.691	0.19630058
909.862	0.19602172
910.033	0.19588535
910.204	0.19574829
910.375	0.19556863
910.546	0.19544029
910.717	0.19484277
910.888	0.19470092
911.059	0.19452527
911.23	0.19424225
911.401	0.19401861
911.572	0.19382571
911.742	0.19365814
911.913	0.19380045
912.084	0.19361367
912.255	0.19345594
912.426	0.19328292
912.596	0.19296846
912.767	0.19284368
912.938	0.19265819
913.108	0.19250336
913.279	0.19225879
913.45	0.19206892
913.62	0.19198392
913.791	0.19194192
913.962	0.19172998
914.132	0.19150624
914.303	0.19113119
914.473	0.19099545
914.644	0.19070767
914.814	0.1903591
914.985	0.19002506
915.155	0.18963104
915.326	0.18923145
915.496	0.18888592
915.666	0.18846912
915.837	0.18832774
916.007	0.18791102
916.177	0.18749016
916.348	0.18721688
916.518	0.18698337
916.688	0.18676878
916.858	0.18674865
917.029	0.18650618
917.199	0.18660008
917.369	0.18672365
917.539	0.18684811
917.709	0.18686982
917.88	0.18664834
918.05	0.18619206
918.22	0.18591902
918.39	0.18544043
918.56	0.18507054
918.73	0.18468159
918.9	0.18435119
919.07	0.18417981
919.24	0.18419484
919.41	0.18398308
919.58	0.18386578
919.75	0.18367006
919.92	0.18337967
920.09	0.18320931
920.26	0.1830087
920.429	0.18273118
920.599	0.1825232
920.769	0.18242715
920.939	0.18220139
921.109	0.18194189
921.278	0.18168657
921.448	0.18143828
921.618	0.18108282
921.787	0.18074103
921.957	0.18046293
922.127	0.18013387
922.296	0.1801292
922.466	0.17974179
922.636	0.17966369
922.805	0.17952812
922.975	0.17906248
923.144	0.17853205
923.314	0.17809187
923.483	0.17733465
923.653	0.17680978
923.822	0.17607743
923.992	0.17565471
924.161	0.17559897
924.331	0.17532806
924.5	0.17516206
924.669	0.17518649
924.839	0.17514553
925.008	0.175234
925.177	0.17493673
925.347	0.17467271
925.516	0.17461852
925.685	0.17446111
925.854	0.17429723
926.023	0.17418718
926.193	0.17400526
926.362	0.17395739
926.531	0.17383562
926.7	0.17358071
926.869	0.17354384
927.038	0.17312165
927.207	0.17293845
927.376	0.17261656
927.545	0.17238042
927.715	0.17214889
927.884	0.17203078
928.052	0.17174113
928.221	0.17156501
928.39	0.171346
928.559	0.17120799
928.728	0.17116407
928.897	0.17105699
929.066	0.17077908
929.235	0.17054189
929.404	0.17048863
929.572	0.17018432
929.741	0.16991338
929.91	0.16950228
930.079	0.16907533
930.247	0.16891672
930.416	0.16865598
930.585	0.16838243
930.753	0.16818815
930.922	0.16821214
931.091	0.16814161
931.259	0.16823595
931.428	0.16814483
931.596	0.16828652
931.765	0.16848659
931.934	0.16859391
932.102	0.16825697
932.27	0.16798677
932.439	0.16785455
932.607	0.16772
932.776	0.16754674
932.944	0.16700398
933.113	0.16655336
933.281	0.16630811
933.449	0.1661145
933.618	0.16548705
933.786	0.16534068
933.954	0.16491094
934.123	0.16461581
934.291	0.16444256
934.459	0.16418122
934.627	0.1639378
934.795	0.16386838
934.964	0.16328576
935.132	0.16285608
935.3	0.16262621
935.468	0.16240542
935.636	0.1621284
935.804	0.16194447
935.972	0.16189643
936.14	0.16189723
936.308	0.16182202
936.476	0.16201493
936.644	0.16214928
936.812	0.16228246
936.98	0.16222382
937.148	0.16210308
937.316	0.16182744
937.484	0.16191129
937.652	0.16154351
937.82	0.16162373
937.987	0.16143673
938.155	0.16121763
938.323	0.16105196
938.491	0.16090483
938.658	0.16101008
938.826	0.1610277
938.994	0.16044638
939.162	0.16051369
939.329	0.16072169
939.497	0.16101427
939.665	0.1615419
939.832	0.16164506
940	0.16165688
940.167	0.16178996
940.335	0.1616805
940.502	0.16132115
940.67	0.16144441
940.837	0.1612319
941.005	0.16072931
941.172	0.16111993
941.34	0.16170009
941.507	0.16244729
941.674	0.16311517
941.842	0.16255679
942.009	0.16285585
942.177	0.1624339
942.344	0.16294868
942.511	0.1623313
942.678	0.16211305
942.846	0.16138977
943.013	0.16212626
943.18	0.16152589
943.347	0.16218086
943.514	0.1610751
943.682	0.16199475
943.849	0.16135508
944.016	0.16110624
944.183	0.16130118
944.35	0.16177998
944.517	0.16241612
944.684	0.16275344
944.851	0.15950481
945.018	0.15895089
945.185	0.15845074
945.352	0.15645121
945.519	0.15549453
945.686	0.15406694
945.853	0.15413407
946.02	0.15499745
946.187	0.15449519
946.353	0.15515736
946.52	0.1554805
946.687	0.15518958
946.854	0.15533203
947.021	0.15375264
947.187	0.15324953
947.354	0.15278536
947.521	0.15210307
947.687	0.15182865
947.854	0.15130605
948.021	0.14942852
948.187	0.14969299
948.354	0.1494313
948.52	0.14922343
948.687	0.14957261
948.854	0.14934608
949.02	0.14855162
949.187	0.14966984
949.353	0.14923123
949.52	0.14840865
949.686	0.1478885
949.852	0.14723355
950.019	0.1465509
950.185	0.14662987
950.352	0.1458584
950.518	0.14484786
950.684	0.14475201
950.851	0.14445484
951.017	0.14335064
951.183	0.14346962
951.349	0.14282488
951.516	0.14174968
951.682	0.1416464
951.848	0.14105174
952.014	0.14013801
952.18	0.14019718
952.346	0.13942639
952.512	0.13884071
952.679	0.13913629
952.845	0.13884056
953.011	0.13859567
953.177	0.13850185
953.343	0.13773892
953.509	0.13742182
953.675	0.13732291
953.841	0.13721297
954.007	0.13706076
954.172	0.1370726
954.338	0.13655919
954.504	0.1356508
954.67	0.13473777
954.836	0.13432719
955.002	0.13353859
955.167	0.13266801
955.333	0.13147846
955.499	0.13125634
955.665	0.13137592
955.83	0.13154337
955.996	0.13130387
956.162	0.13077256
956.327	0.13032124
956.493	0.13025036
956.659	0.13021888
956.824	0.12982156
956.99	0.12917354
957.155	0.12862448
957.321	0.12834999
957.486	0.12798524
957.652	0.12744611
957.817	0.12708224
957.983	0.12660234
958.148	0.1261116
958.314	0.12613348
958.479	0.12555452
958.644	0.12560598
958.81	0.12591131
958.975	0.12536281
959.14	0.12560863
959.306	0.12543143
959.471	0.12501124
959.636	0.12508006
959.801	0.12534913
959.967	0.12523866
960.132	0.12519889
960.297	0.1246946
960.462	0.12500476
960.627	0.12476031
960.792	0.12432407
960.957	0.12388768
961.123	0.1238065
961.288	0.1236918
961.453	0.12371095
961.618	0.12348896
961.783	0.12365973
961.948	0.12372347
962.113	0.12315231
962.277	0.12260302
962.442	0.12229452
962.607	0.1221061
962.772	0.12172983
962.937	0.12077618
963.102	0.12014769
963.267	0.11971948
963.431	0.11936723
963.596	0.11904829
963.761	0.11881609
963.926	0.11856261
964.09	0.11886891
964.255	0.11911594
964.42	0.11894679
964.584	0.11907478
964.749	0.11886859
964.914	0.1182807
965.078	0.11774604
965.243	0.11742945
965.407	0.11690574
965.572	0.11706665
965.736	0.11678514
965.901	0.11681246
966.065	0.11678937
966.23	0.11677521
966.394	0.11673012
966.559	0.11654587
966.723	0.11624687
966.887	0.11607471
967.052	0.11538665
967.216	0.11525957
967.38	0.11463241
967.545	0.11448943
967.709	0.11474757
967.873	0.11447601
968.037	0.11422141
968.202	0.11457014
968.366	0.1147424
968.53	0.11538182
968.694	0.11496047
968.858	0.11464087
969.022	0.11434322
969.187	0.11390596
969.351	0.11386263
969.515	0.11325844
969.679	0.112787
969.843	0.11248332
970.007	0.11223361
970.171	0.1122845
970.335	0.11246919
970.499	0.11187102
970.662	0.11225875
970.826	0.11213887
970.99	0.11222009
971.154	0.11233693
971.318	0.11213606
971.482	0.11162693
971.645	0.11161704
971.809	0.11094961
971.973	0.1101677
972.137	0.1098598
972.3	0.10940469
972.464	0.10943782
972.628	0.10944868
972.791	0.10942681
972.955	0.10925014
973.119	0.10945483
973.282	0.10925387
973.446	0.10883763
973.609	0.10838999
973.773	0.10793893
973.936	0.10732945
974.1	0.10687946
974.263	0.10670077
974.427	0.10645528
974.59	0.10606907
974.754	0.10551968
974.917	0.10539245
975.08	0.1050617
975.244	0.10470024
975.407	0.10447948
975.57	0.10407344
975.734	0.103764
975.897	0.10391553
976.06	0.10352615
976.223	0.103493
976.387	0.10366819
976.55	0.10342716
976.713	0.10332458
976.876	0.10379392
977.039	0.10353411
977.202	0.10354099
977.365	0.10337049
977.528	0.10307454
977.692	0.10281289
977.855	0.10243136
978.018	0.10157143
978.181	0.10132949
978.344	0.10085491
978.506	0.10064117
978.669	0.10042396
978.832	0.10018088
978.995	0.10021448
979.158	0.10035258
979.321	0.10025698
979.484	0.10013994
979.646	0.10000896
979.809	0.10018875
979.972	0.10026068
980.135	0.10043299
980.297	0.10015221
980.46	0.10026241
980.623	0.10051471
980.786	0.10005589
980.948	0.09973048
981.111	0.09961993
981.273	0.09931154
981.436	0.0993554
981.599	0.09887111
981.761	0.09844271
981.924	0.09890287
982.086	0.09833096
982.249	0.09830324
982.411	0.0979872
982.573	0.09780773
982.736	0.09789958
982.898	0.09760706
983.061	0.09702941
983.223	0.09664734
983.385	0.09604196
983.548	0.09600424
983.71	0.09558726
983.872	0.09512456
984.034	0.09537061
984.197	0.09536484
984.359	0.09551122
984.521	0.09569013
984.683	0.09537663
984.845	0.09549394
985.008	0.09546103
985.17	0.09512862
985.332	0.09532752
985.494	0.09532395
985.656	0.09471495
985.818	0.09450055
985.98	0.09407187
986.142	0.09360656
986.304	0.09323504
986.466	0.09245529
986.628	0.09197229
986.79	0.0920647
986.952	0.09183599
987.113	0.09188514
987.275	0.091564
987.437	0.09137361
987.599	0.09115672
987.761	0.09137637
987.922	0.09095409
988.084	0.09089681
988.246	0.09078822
988.408	0.09084467
988.569	0.09082791
988.731	0.09095191
988.893	0.09088556
989.054	0.09130006
989.216	0.09104234
989.377	0.09071802
989.539	0.09075162
989.701	0.09062255
989.862	0.09032457
990.024	0.08985896
990.185	0.08930842
990.347	0.08950009
990.508	0.08957935
990.669	0.08948565
990.831	0.08947419
990.992	0.09003425
991.154	0.08985276
991.315	0.09020908
991.476	0.09023325
991.638	0.08999483
991.799	0.08964116
991.96	0.08935798
992.121	0.08899288
992.283	0.08913258
992.444	0.08850243
992.605	0.08771788
992.766	0.08715573
992.927	0.0868207
993.088	0.08649379
993.249	0.08597699
993.41	0.08538159
993.572	0.08549719
993.733	0.08567269
993.894	0.08592448
994.055	0.08559135
994.216	0.08571858
994.376	0.08505458
994.537	0.08526651
994.698	0.0848464
994.859	0.08429601
995.02	0.08382208
995.181	0.08336235
995.342	0.08318987
995.503	0.08323489
995.663	0.08246347
995.824	0.08226388
995.985	0.08271632
996.146	0.0830634
996.306	0.0833814
996.467	0.08336743
996.628	0.08347951
996.788	0.0838492
996.949	0.08372485
997.11	0.08316107
997.27	0.08243821
997.431	0.0823406
997.591	0.08150038
997.752	0.08120221
997.912	0.08111207
998.073	0.08085493
998.233	0.08054776
998.394	0.08044504
998.554	0.08067246
998.714	0.08143102
998.875	0.08072933
999.035	0.08021981
999.196	0.0801104
999.356	0.08009271
999.516	0.07959541
999.676	0.07975345
999.837	0.0787847
999.997	0.07887105
1000.157	0.07905547
1000.317	0.07824993
1000.477	0.0781299
1000.638	0.07823838
1000.798	0.07777988
1000.958	0.07802003
1001.118	0.07835385
1001.278	0.07803865
1001.438	0.07866787
1001.598	0.07863009
1001.758	0.07900288
1001.918	0.07850133
1002.078	0.07803658
1002.238	0.07785978
1002.398	0.07833517
1002.558	0.07831298
1002.718	0.07830697
1002.878	0.07827272
1003.037	0.077541
1003.197	0.07732919
1003.357	0.0771567
1003.517	0.07721171
1003.677	0.07706281
1003.836	0.07640463
1003.996	0.07587538
1004.156	0.0764766
1004.315	0.07644673
1004.475	0.0760091
1004.635	0.07595424
1004.794	0.07560198
1004.954	0.07582646
1005.114	0.07580525
1005.273	0.07616861
1005.433	0.07613921
1005.592	0.07606795
1005.752	0.07526966
1005.911	0.07494186
1006.071	0.07489246
1006.23	0.07489642
1006.389	0.0743772
1006.549	0.07419754
1006.708	0.07409112
1006.868	0.07352475
1007.027	0.07412491
1007.186	0.07404201
1007.345	0.07379397
1007.505	0.07320602
1007.664	0.07324592
1007.823	0.07338248
1007.982	0.07394738
1008.142	0.07372045
1008.301	0.07360144
1008.46	0.07354167
1008.619	0.07367315
1008.778	0.07355495
1008.937	0.07410244
1009.096	0.07360615
1009.255	0.07334123
1009.414	0.07280207
1009.573	0.07249407
1009.732	0.07331747
1009.891	0.07319304
1010.05	0.07325173
1010.209	0.07343464
1010.368	0.07319192
1010.527	0.07382172
1010.686	0.07395099
1010.845	0.07329902
1011.003	0.07361223
1011.162	0.07273503
1011.321	0.0720401
1011.48	0.07206175
1011.638	0.07169126
1011.797	0.07203336
1011.956	0.07135534
1012.115	0.07233372
1012.273	0.07194929
1012.432	0.07251302
1012.59	0.07223488
1012.749	0.07178043
1012.908	0.07079825
1013.066	0.0710187
1013.225	0.0697324
1013.383	0.07049171
1013.542	0.06991461
1013.7	0.07065657
1013.859	0.07163428
1014.017	0.0719953
1014.175	0.07165605
1014.334	0.07245627
1014.492	0.07147778
1014.65	0.07135549
1014.809	0.07074565
1014.967	0.0692928
1015.125	0.06907359
1015.284	0.0700922
1015.442	0.06949801
1015.6	0.0700837
1015.758	0.07039621
1015.916	0.07066848
1016.075	0.07073145
1016.233	0.07157326
1016.391	0.07095288
1016.549	0.07081404
1016.707	0.07063372
1016.865	0.07096298
1017.023	0.07065944
1017.181	0.07095657
1017.339	0.0703118
1017.497	0.06991362
1017.655	0.06985341
1017.813	0.07050806
1017.971	0.07112478
1018.129	0.07103651
1018.286	0.07218085
1018.444	0.07199694
1018.602	0.07253296
1018.76	0.07137472
1018.918	0.07152943
1019.075	0.0703742
1019.233	0.0707173
1019.391	0.06945378
1019.549	0.07088717
1019.706	0.07111381
1019.864	0.07222939
1020.022	0.07246474
1020.179	0.07399601
1020.337	0.07459119
1020.494	0.07527859
1020.652	0.07396919
1020.809	0.07374556
1020.967	0.07388291
1021.124	0.07334795
1021.282	0.07372843
1021.439	0.07323061
1021.597	0.07285193
1021.754	0.0730157
1021.911	0.07439741
1022.069	0.07371453
1022.226	0.07251418
1022.384	0.07117404
1022.541	0.06891046
1022.698	0.07023912
1022.855	0.06921864
1023.013	0.06788694
1023.17	0.06740383
1023.327	0.06867652
1023.484	0.06975288
1023.641	0.07201974
1023.798	0.07140092
1023.956	0.07410656
1024.113	0.0740518
1024.27	0.0755332
1024.427	0.0751984
1024.584	0.07485591
1024.741	0.07397246
1024.898	0.07284617
1025.055	0.07064469
1025.212	0.06895202
1025.369	0.06716446
1025.525	0.06549553
1025.682	0.06539822
1025.839	0.06655399
1025.996	0.06800771
1026.153	0.0696559
1026.31	0.07220041
1026.466	0.07422737
1026.623	0.07731582
1026.78	0.07667082
1026.937	0.07629913
1027.093	0.07616576
1027.25	0.07572371
1027.407	0.07494685
1027.563	0.07488245
1027.72	0.07300963
1027.876	0.07215305
1028.033	0.07245438
1028.19	0.07260414
1028.346	0.06919926
1028.503	0.0706589
1028.659	0.07058944
1028.816	0.06986665
1028.972	0.07114288
1029.128	0.07181594
1029.285	0.07045668
1029.441	0.07313493
1029.598	0.07074215
1029.754	0.07288006
1029.91	0.07379089
1030.067	0.07196977
1030.223	0.07123122
1030.379	0.07075669
1030.535	0.07292764
1030.691	0.07383852
1030.848	0.0716309
1031.004	0.07259546
1031.16	0.07551917
1031.316	0.0774547
1031.472	0.08091404
1031.628	0.0813815
1031.784	0.08242443
1031.94	0.08437872
1032.096	0.08513059
1032.252	0.08535652
1032.408	0.08471674
1032.564	0.08152808
1032.72	0.0800107
1032.876	0.07891596
1033.032	0.07713666
1033.188	0.07735916
1033.344	0.07561259
1033.5	0.07427332
1033.655	0.07611739
1033.811	0.07595729
1033.967	0.07748007
