Data from 1_mm_pl_70pc_Absorbance__0__17-01-44-283.txt Node

Date: Wed Mar 08 17:01:44 CET 2023
User: Ange
Spectrometer: FLMT08341
Trigger mode: 0
Integration Time (sec): 1.000000E-2
Scans to average: 400
Electric dark correction enabled: true
Nonlinearity correction enabled: false
Boxcar width: 3
XAxis mode: Wavelengths
Number of Pixels in Spectrum: 3648
>>>>>Begin Spectral Data<<<<<
345.271	0.01273335
345.487	0.00593478
345.704	0.0002436
345.921	-0.00533464
346.137	0.00446431
346.354	-0.00749573
346.571	-0.00894625
346.787	-0.06843109
347.004	-0.02919761
347.22	-0.04954925
347.437	0.078164
347.653	0.35033196
347.87	-0.16981498
348.086	-0.24366836
348.303	0.16209892
348.519	0.25211376
348.736	0.26520354
348.952	0.2848332
349.169	0.28498038
349.385	0.29358819
349.601	0.29110455
349.818	0.2893049
350.034	0.28694467
350.251	0.28267014
350.467	0.2835499
350.683	0.27760039
350.9	0.27620474
351.116	0.27185355
351.332	0.27056154
351.549	0.27949848
351.765	0.28782482
351.981	0.29128474
352.197	0.30373686
352.414	0.31395833
352.63	0.32151025
352.846	0.33007994
353.062	0.32498763
353.278	0.31802673
353.495	0.32529643
353.711	0.32554455
353.927	0.3256263
354.143	0.32819822
354.359	0.32370141
354.575	0.32202625
354.792	0.33236219
355.008	0.32505279
355.224	0.32105791
355.44	0.31758812
355.656	0.31477967
355.872	0.31958731
356.088	0.33626865
356.304	0.33622876
356.52	0.33836777
356.736	0.34305578
356.952	0.34732959
357.168	0.35028371
357.384	0.35425678
357.6	0.34379276
357.816	0.3502845
358.032	0.35537262
358.248	0.36343531
358.464	0.36540038
358.679	0.36996759
358.895	0.36823375
359.111	0.37428845
359.327	0.36796386
359.543	0.36977418
359.759	0.37237235
359.974	0.37138387
360.19	0.37055305
360.406	0.37576148
360.622	0.37097587
360.838	0.36991646
361.053	0.37265897
361.269	0.37269474
361.485	0.37523841
361.701	0.37666674
361.916	0.37145386
362.132	0.37411279
362.348	0.37786237
362.563	0.37839882
362.779	0.37639404
362.995	0.38017394
363.21	0.38376414
363.426	0.38711205
363.641	0.38835107
363.857	0.39196618
364.073	0.38958722
364.288	0.38904091
364.504	0.39367935
364.719	0.39532081
364.935	0.39568253
365.15	0.39784577
365.366	0.39926859
365.581	0.40594616
365.797	0.40800052
366.012	0.40461483
366.228	0.40336738
366.443	0.41002133
366.658	0.41168598
366.874	0.40812598
367.089	0.4077951
367.305	0.41000272
367.52	0.41150485
367.735	0.41097049
367.951	0.40617065
368.166	0.40886076
368.381	0.41639627
368.597	0.41617913
368.812	0.4198457
369.027	0.42323742
369.243	0.42756043
369.458	0.43780607
369.673	0.43934129
369.888	0.43846078
370.104	0.43779788
370.319	0.43919694
370.534	0.43645493
370.749	0.43658023
370.964	0.43503704
371.179	0.4337742
371.395	0.43248213
371.61	0.43764454
371.825	0.43418972
372.04	0.4382024
372.255	0.43752081
372.47	0.43629054
372.685	0.43432969
372.9	0.43607371
373.115	0.43306954
373.33	0.43663996
373.545	0.4363012
373.76	0.43844014
373.975	0.43748659
374.19	0.43875424
374.405	0.44001708
374.62	0.44525024
374.835	0.44833152
375.05	0.44983322
375.265	0.45123823
375.48	0.45360287
375.695	0.46168952
375.91	0.46025458
376.125	0.45642711
376.339	0.4517699
376.554	0.45273766
376.769	0.45422939
376.984	0.45492485
377.199	0.45428375
377.414	0.456505
377.628	0.46189822
377.843	0.46637164
378.058	0.46745348
378.273	0.46853088
378.487	0.47104303
378.702	0.4716256
378.917	0.47248482
379.131	0.47052512
379.346	0.46785878
379.561	0.46632877
379.775	0.4647275
379.99	0.46023481
380.205	0.45720627
380.419	0.45520106
380.634	0.4512271
380.848	0.45444661
381.063	0.45567788
381.278	0.4598553
381.492	0.45950918
381.707	0.46317389
381.921	0.4642705
382.136	0.46940509
382.35	0.46741386
382.565	0.46638787
382.779	0.46576809
382.994	0.46822088
383.208	0.46661068
383.422	0.47006398
383.637	0.47096215
383.851	0.47522307
384.066	0.47775853
384.28	0.4788282
384.494	0.48002454
384.709	0.48211183
384.923	0.48239343
385.137	0.47978149
385.352	0.47942249
385.566	0.48046008
385.78	0.4797201
385.995	0.47911521
386.209	0.47749905
386.423	0.47920082
386.637	0.48216495
386.852	0.47881581
387.066	0.47765047
387.28	0.47684038
387.494	0.47963111
387.708	0.48119924
387.923	0.47997212
388.137	0.48172292
388.351	0.48483626
388.565	0.48740685
388.779	0.4890688
388.993	0.49217182
389.207	0.49317851
389.421	0.49383872
389.635	0.49151379
389.85	0.49043166
390.064	0.4902233
390.278	0.49120915
390.492	0.48994849
390.706	0.48988303
390.92	0.49046246
391.134	0.49320991
391.348	0.49813042
391.561	0.49777708
391.775	0.49664304
391.989	0.49436345
392.203	0.4950745
392.417	0.4958997
392.631	0.49795919
392.845	0.49553549
393.059	0.49789659
393.273	0.49738673
393.486	0.49707214
393.7	0.49526411
393.914	0.49683869
394.128	0.49521926
394.342	0.49363552
394.555	0.49067753
394.769	0.49158415
394.983	0.4932996
395.197	0.4953213
395.41	0.49479155
395.624	0.49514592
395.838	0.49608968
396.051	0.49999921
396.265	0.49846438
396.479	0.4996507
396.692	0.49945891
396.906	0.49753355
397.12	0.49662825
397.333	0.49803202
397.547	0.49598396
397.76	0.498432
397.974	0.49770085
398.187	0.49895794
398.401	0.50104964
398.614	0.50136157
398.828	0.50118305
399.041	0.50174122
399.255	0.501626
399.468	0.50165246
399.682	0.50121989
399.895	0.50189247
400.109	0.50162074
400.322	0.50075027
400.536	0.49899856
400.749	0.50059803
400.962	0.50079054
401.176	0.49976312
401.389	0.49856886
401.602	0.49677308
401.816	0.49775006
402.029	0.49900852
402.242	0.49655773
402.456	0.49612297
402.669	0.49510181
402.882	0.49299588
403.095	0.49547664
403.309	0.49472901
403.522	0.49517948
403.735	0.49498201
403.948	0.49502163
404.161	0.49837995
404.375	0.49922087
404.588	0.49861994
404.801	0.49830788
405.014	0.49666567
405.227	0.4985397
405.44	0.49911416
405.653	0.49835537
405.866	0.49688259
406.079	0.4961096
406.293	0.49570064
406.506	0.4954407
406.719	0.4938421
406.932	0.49214289
407.145	0.48945666
407.358	0.49152675
407.571	0.49021727
407.784	0.49077183
407.996	0.49116599
408.209	0.4894406
408.422	0.48862373
408.635	0.4893333
408.848	0.48856895
409.061	0.48707715
409.274	0.48566218
409.487	0.48456368
409.7	0.48514582
409.912	0.48548648
410.125	0.48474687
410.338	0.48390888
410.551	0.48437057
410.764	0.48405591
410.976	0.4839165
411.189	0.48357981
411.402	0.4816741
411.615	0.48185483
411.827	0.48135495
412.04	0.48094823
412.253	0.47991675
412.465	0.4786585
412.678	0.47743123
412.891	0.47866439
413.103	0.4758878
413.316	0.47452172
413.529	0.47471505
413.741	0.47516803
413.954	0.47505838
414.166	0.47459705
414.379	0.47317783
414.591	0.47399998
414.804	0.47307193
415.016	0.47176547
415.229	0.47016927
415.441	0.46854783
415.654	0.4681382
415.866	0.46750177
416.079	0.46723624
416.291	0.46650652
416.504	0.46696756
416.716	0.46649739
416.928	0.46648667
417.141	0.46503275
417.353	0.46476444
417.566	0.46258891
417.778	0.46250937
417.99	0.45993868
418.203	0.45859976
418.415	0.45759455
418.627	0.45759784
418.839	0.45636366
419.052	0.45696149
419.264	0.455787
419.476	0.45585538
419.688	0.45545688
419.901	0.45477646
420.113	0.45333578
420.325	0.45206162
420.537	0.4499997
420.749	0.44938029
420.961	0.44870301
421.174	0.44731351
421.386	0.44584628
421.598	0.44468885
421.81	0.44369766
422.022	0.44254432
422.234	0.44143731
422.446	0.43988966
422.658	0.43895077
422.87	0.43842409
423.082	0.43765251
423.294	0.43681515
423.506	0.43629775
423.718	0.43524458
423.93	0.43369656
424.142	0.43233036
424.354	0.43097671
424.566	0.42986421
424.778	0.4288026
424.99	0.42767297
425.202	0.42632928
425.414	0.42566315
425.625	0.42526249
425.837	0.42338356
426.049	0.42246625
426.261	0.42097007
426.473	0.41935473
426.684	0.41818063
426.896	0.4177203
427.108	0.41589512
427.32	0.41571447
427.531	0.41457249
427.743	0.41387619
427.955	0.4138175
428.167	0.41245865
428.378	0.41070175
428.59	0.40980646
428.802	0.40848859
429.013	0.40706689
429.225	0.40552747
429.436	0.40362949
429.648	0.40320177
429.86	0.40245607
430.071	0.40146706
430.283	0.40040208
430.494	0.39914474
430.706	0.39819361
430.917	0.39692389
431.129	0.39548963
431.34	0.39387489
431.552	0.39259136
431.763	0.39105303
431.975	0.39016024
432.186	0.38847116
432.398	0.38758817
432.609	0.38545627
432.821	0.38435876
433.032	0.38327535
433.243	0.38205273
433.455	0.38071812
433.666	0.37986331
433.877	0.37873215
434.089	0.37774145
434.3	0.37612262
434.511	0.37425951
434.723	0.3729897
434.934	0.37130157
435.145	0.36960823
435.356	0.36776162
435.568	0.36644413
435.779	0.36513591
435.99	0.36337604
436.201	0.3619846
436.412	0.36054278
436.624	0.3595978
436.835	0.35869853
437.046	0.35760735
437.257	0.35636536
437.468	0.35604948
437.679	0.35500304
437.89	0.35405903
438.101	0.3529895
438.312	0.35164737
438.523	0.35041446
438.734	0.34935649
438.945	0.34778746
439.156	0.34600621
439.367	0.34466484
439.578	0.34341709
439.789	0.34175928
440	0.34073727
440.211	0.33911472
440.422	0.33784213
440.633	0.3367893
440.844	0.33532385
441.055	0.33378613
441.266	0.33275171
441.477	0.33096691
441.687	0.32978487
441.898	0.32856929
442.109	0.32716631
442.32	0.32593533
442.531	0.32436523
442.741	0.32245681
442.952	0.32112981
443.163	0.31975359
443.374	0.31821697
443.584	0.31667115
443.795	0.31528161
444.006	0.3140566
444.216	0.31291475
444.427	0.3113177
444.638	0.31002196
444.848	0.30874326
445.059	0.30760044
445.27	0.3060872
445.48	0.3044992
445.691	0.30346373
445.901	0.30254699
446.112	0.30119733
446.323	0.29966441
446.533	0.29834405
446.744	0.29697772
446.954	0.29577364
447.165	0.29426425
447.375	0.2928888
447.586	0.29156826
447.796	0.29053457
448.006	0.28913738
448.217	0.28834009
448.427	0.28706959
448.638	0.28580763
448.848	0.28444018
449.058	0.28304164
449.269	0.28172236
449.479	0.28063467
449.689	0.27914311
449.9	0.27798367
450.11	0.2767465
450.32	0.27583365
450.531	0.27472167
450.741	0.27342439
450.951	0.27215318
451.161	0.2709811
451.372	0.26976198
451.582	0.26899469
451.792	0.26763913
452.002	0.26636672
452.212	0.2651348
452.422	0.26398395
452.633	0.26256355
452.843	0.26174098
453.053	0.25999178
453.263	0.25888883
453.473	0.25773569
453.683	0.25691073
453.893	0.25568171
454.103	0.25487026
454.313	0.25358864
454.523	0.25265774
454.733	0.2516195
454.943	0.25075038
455.153	0.24949607
455.363	0.24838719
455.573	0.24707057
455.783	0.24592226
455.993	0.24465686
456.203	0.24363599
456.413	0.24256447
456.623	0.24141585
456.833	0.2407074
457.042	0.23972616
457.252	0.23880182
457.462	0.23795508
457.672	0.23698431
457.882	0.23588443
458.091	0.23485159
458.301	0.23363493
458.511	0.23274681
458.721	0.23156401
458.931	0.23060703
459.14	0.22980801
459.35	0.22909836
459.56	0.22839025
459.769	0.22773027
459.979	0.22691483
460.189	0.22632251
460.398	0.22538687
460.608	0.22454255
460.817	0.22366995
461.027	0.22292034
461.237	0.22197442
461.446	0.22115971
461.656	0.22042269
461.865	0.21977498
462.075	0.21891408
462.284	0.21826034
462.494	0.21739578
462.703	0.21655565
462.913	0.21590517
463.122	0.21510348
463.332	0.21438992
463.541	0.2137443
463.751	0.21306472
463.96	0.21242826
464.169	0.21192652
464.379	0.21133849
464.588	0.21072035
464.797	0.21015585
465.007	0.20963311
465.216	0.20912011
465.425	0.20861019
465.635	0.20802371
465.844	0.20750061
466.053	0.20702314
466.263	0.20643023
466.472	0.2058191
466.681	0.20527659
466.89	0.20483924
467.099	0.20444597
467.309	0.20385243
467.518	0.20350519
467.727	0.20324397
467.936	0.20274314
468.145	0.20227557
468.354	0.20191879
468.563	0.20146873
468.772	0.20102343
468.982	0.20057793
469.191	0.2002233
469.4	0.19990014
469.609	0.19955955
469.818	0.19922927
470.027	0.19886899
470.236	0.19868453
470.445	0.19832193
470.654	0.19776852
470.863	0.19743245
471.072	0.19712212
471.28	0.19669379
471.489	0.19650594
471.698	0.19620423
471.907	0.19592258
472.116	0.19583706
472.325	0.19568003
472.534	0.19552234
472.743	0.19528855
472.951	0.19515768
473.16	0.19497736
473.369	0.19482747
473.578	0.19465313
473.786	0.19448722
473.995	0.19430633
474.204	0.19437156
474.413	0.19407094
474.621	0.19408682
474.83	0.19419074
475.039	0.19404596
475.247	0.19399175
475.456	0.1940141
475.665	0.19389505
475.873	0.19396509
476.082	0.19368366
476.291	0.19359589
476.499	0.19373002
476.708	0.1936805
476.916	0.19369142
477.125	0.19378
477.333	0.19376523
477.542	0.19398408
477.75	0.19393566
477.959	0.19399382
478.167	0.19413949
478.376	0.1941417
478.584	0.19418055
478.793	0.19430889
479.001	0.19437004
479.209	0.19445451
479.418	0.19449276
479.626	0.19459756
479.834	0.19477603
480.043	0.19490746
480.251	0.1951291
480.459	0.19538596
480.668	0.19567418
480.876	0.19594555
481.084	0.19619281
481.293	0.19644212
481.501	0.19670558
481.709	0.19695708
481.917	0.1971625
482.125	0.19743293
482.334	0.19763976
482.542	0.197954
482.75	0.19825141
482.958	0.19865166
483.166	0.1990109
483.374	0.19943506
483.583	0.19981015
483.791	0.2002152
483.999	0.20055931
484.207	0.20098801
484.415	0.2013637
484.623	0.20173467
484.831	0.20207949
485.039	0.2024547
485.247	0.20289456
485.455	0.20318867
485.663	0.20355049
485.871	0.20400995
486.079	0.20440764
486.287	0.20482716
486.495	0.20518404
486.702	0.20555241
486.91	0.20611444
487.118	0.206557
487.326	0.20696026
487.534	0.20743652
487.742	0.20799304
487.95	0.20850866
488.157	0.20913705
488.365	0.20970404
488.573	0.21030177
488.781	0.21093628
488.988	0.21165333
489.196	0.21219266
489.404	0.21283934
489.612	0.21342866
489.819	0.21418184
490.027	0.21490012
490.235	0.21545767
490.442	0.21600108
490.65	0.21658968
490.857	0.21735339
491.065	0.21808598
491.273	0.21864656
491.48	0.2192291
491.688	0.21996767
491.895	0.22080214
492.103	0.22161794
492.31	0.22229507
492.518	0.22294549
492.725	0.22368057
492.933	0.22446
493.14	0.22514418
493.348	0.22578177
493.555	0.22644548
493.763	0.22712266
493.97	0.22796251
494.177	0.22881531
494.385	0.22961947
494.592	0.23043618
494.8	0.23117788
495.007	0.23213765
495.214	0.23295315
495.422	0.23377102
495.629	0.23451965
495.836	0.2353072
496.043	0.23628176
496.251	0.23722285
496.458	0.23794693
496.665	0.23880254
496.872	0.23959263
497.08	0.24054666
497.287	0.2414431
497.494	0.24224732
497.701	0.24314622
497.908	0.24416605
498.115	0.24505253
498.322	0.24606442
498.53	0.24686927
498.737	0.24776746
498.944	0.24862763
499.151	0.24953855
499.358	0.25047606
499.565	0.25147473
499.772	0.25245311
499.979	0.25355197
500.186	0.25463708
500.393	0.25573755
500.6	0.25673108
500.807	0.25774967
501.014	0.25880462
501.221	0.25987277
501.427	0.26090354
501.634	0.26195219
501.841	0.26298028
502.048	0.26404578
502.255	0.26497636
502.462	0.26602618
502.669	0.26703251
502.875	0.26804061
503.082	0.26898953
503.289	0.26996339
503.496	0.27101293
503.702	0.27209261
503.909	0.27314854
504.116	0.27422896
504.323	0.27531982
504.529	0.27650655
504.736	0.27766114
504.943	0.27877382
505.149	0.2800679
505.356	0.28132043
505.563	0.28249111
505.769	0.28369364
505.976	0.28481531
506.182	0.28599523
506.389	0.28714909
506.595	0.28824778
506.802	0.28935946
507.008	0.29058089
507.215	0.29172669
507.421	0.29290433
507.628	0.29400561
507.834	0.29519088
508.041	0.29638229
508.247	0.29748654
508.454	0.29866184
508.66	0.29979211
508.866	0.30093619
509.073	0.30223833
509.279	0.30348257
509.486	0.30458429
509.692	0.30580197
509.898	0.30688854
510.105	0.30815216
510.311	0.30941064
510.517	0.31061153
510.723	0.31180779
510.93	0.31299645
511.136	0.3142162
511.342	0.31546859
511.548	0.31661749
511.754	0.31777338
511.961	0.31898561
512.167	0.32018224
512.373	0.32147242
512.579	0.32274937
512.785	0.32401189
512.991	0.32533706
513.197	0.32674355
513.404	0.32812658
513.61	0.32952401
513.816	0.33080566
514.022	0.33209363
514.228	0.33339223
514.434	0.33466112
514.64	0.33586636
514.846	0.33708828
515.052	0.33819573
515.258	0.33940193
515.464	0.34070397
515.669	0.34203519
515.875	0.34334092
516.081	0.34463592
516.287	0.34604586
516.493	0.34753273
516.699	0.34887631
516.905	0.35007176
517.111	0.3512731
517.316	0.35255865
517.522	0.35382346
517.728	0.35503913
517.934	0.35627359
518.139	0.35768965
518.345	0.35905747
518.551	0.36045228
518.757	0.36175327
518.962	0.36314425
519.168	0.36447036
519.374	0.3657769
519.579	0.36698781
519.785	0.36839517
519.991	0.36981014
520.196	0.37119505
520.402	0.37238486
520.607	0.37365092
520.813	0.3750038
521.018	0.37629947
521.224	0.37744367
521.429	0.37866351
521.635	0.37985944
521.84	0.3811503
522.046	0.38246269
522.251	0.38366788
522.457	0.38498298
522.662	0.38635453
522.868	0.38767156
523.073	0.38901169
523.279	0.39041487
523.484	0.391663
523.689	0.39310067
523.895	0.39448358
524.1	0.39581619
524.305	0.39710158
524.511	0.39837239
524.716	0.39966839
524.921	0.40102874
525.126	0.4022395
525.332	0.40350135
525.537	0.40474045
525.742	0.40604538
525.947	0.40737993
526.153	0.40864041
526.358	0.40988801
526.563	0.41120071
526.768	0.41252654
526.973	0.4139039
527.178	0.41520117
527.383	0.41649723
527.588	0.41772153
527.794	0.41896548
527.999	0.42024502
528.204	0.42146957
528.409	0.42264241
528.614	0.42393022
528.819	0.42510818
529.024	0.42630257
529.229	0.42755146
529.434	0.4288552
529.639	0.43006589
529.843	0.43130577
530.048	0.43247433
530.253	0.43375505
530.458	0.4351605
530.663	0.43636257
530.868	0.4375336
531.073	0.43866684
531.278	0.43983697
531.482	0.4410246
531.687	0.4422264
531.892	0.443348
532.097	0.44450713
532.302	0.44572365
532.506	0.44697227
532.711	0.4482052
532.916	0.44945562
533.12	0.45063234
533.325	0.45180871
533.53	0.45319866
533.734	0.45445459
533.939	0.45579448
534.144	0.45712691
534.348	0.45835909
534.553	0.45965872
534.757	0.46087899
534.962	0.46197758
535.167	0.46310096
535.371	0.46412704
535.576	0.4652692
535.78	0.46638953
535.985	0.46746954
536.189	0.46858825
536.394	0.46974703
536.598	0.47089313
536.803	0.47215067
537.007	0.47319495
537.211	0.47439533
537.416	0.47544215
537.62	0.4765741
537.825	0.47767588
538.029	0.47894317
538.233	0.47997042
538.438	0.48117763
538.642	0.48223477
538.846	0.48350875
539.05	0.48462958
539.255	0.48565255
539.459	0.48666618
539.663	0.48778523
539.867	0.48884302
540.072	0.48993886
540.276	0.49098346
540.48	0.49213883
540.684	0.49324918
540.888	0.49441201
541.092	0.49544142
541.297	0.49647298
541.501	0.49750844
541.705	0.49854166
541.909	0.49949546
542.113	0.5004211
542.317	0.50137357
542.521	0.50241424
542.725	0.50344706
542.929	0.5044631
543.133	0.5054461
543.337	0.50659886
543.541	0.50779781
543.745	0.50872724
543.949	0.50972984
544.153	0.51062806
544.357	0.51155396
544.56	0.51258308
544.764	0.51348179
544.968	0.5143398
545.172	0.51520373
545.376	0.51628754
545.58	0.517303
545.783	0.51835951
545.987	0.51921143
546.191	0.52005509
546.395	0.52105975
546.598	0.5222299
546.802	0.52313118
547.006	0.5240728
547.21	0.52477849
547.413	0.52576687
547.617	0.52677689
547.821	0.52772062
548.024	0.52862578
548.228	0.5293612
548.431	0.53023867
548.635	0.53115945
548.839	0.53196167
549.042	0.53269031
549.246	0.53339906
549.449	0.53409736
549.653	0.53498996
549.856	0.53584888
550.06	0.53668816
550.263	0.53765403
550.467	0.53871103
550.67	0.53976333
550.874	0.54069234
551.077	0.54163798
551.28	0.54247775
551.484	0.54344818
551.687	0.54423216
551.891	0.54504214
552.094	0.54576361
552.297	0.54661758
552.501	0.54750065
552.704	0.54840066
552.907	0.54916481
553.11	0.54990268
553.314	0.5506094
553.517	0.55120283
553.72	0.551851
553.923	0.55259675
554.127	0.55336107
554.33	0.55408101
554.533	0.55486806
554.736	0.5554769
554.939	0.55625835
555.142	0.5569922
555.345	0.55749913
555.549	0.55812829
555.752	0.55879204
555.955	0.55940749
556.158	0.56022738
556.361	0.56089015
556.564	0.56157842
556.767	0.56228485
556.97	0.56296443
557.173	0.56368884
557.376	0.56452881
557.579	0.56512327
557.782	0.56590894
557.984	0.56663345
558.187	0.56733263
558.39	0.56789422
558.593	0.56854577
558.796	0.56905665
558.999	0.56957658
559.202	0.57016661
559.404	0.5705885
559.607	0.57119839
559.81	0.57185381
560.013	0.57236174
560.216	0.57297641
560.418	0.57374157
560.621	0.57438739
560.824	0.5752007
561.026	0.57583837
561.229	0.57633291
561.432	0.57695538
561.634	0.57746598
561.837	0.57793434
562.04	0.57835554
562.242	0.57877551
562.445	0.57915359
562.647	0.57969026
562.85	0.57996999
563.053	0.58036463
563.255	0.58081886
563.458	0.58131306
563.66	0.58175487
563.863	0.58235267
564.065	0.58292601
564.268	0.58363063
564.47	0.5842102
564.672	0.58470107
564.875	0.58528341
565.077	0.58577102
565.28	0.58620609
565.482	0.58670743
565.684	0.58711506
565.887	0.5875702
566.089	0.58806133
566.291	0.58840048
566.494	0.58882932
566.696	0.58930316
566.898	0.58977348
567.1	0.59030843
567.303	0.59077012
567.505	0.59116501
567.707	0.59152927
567.909	0.59180893
568.111	0.59210041
568.314	0.59230822
568.516	0.59247601
568.718	0.59278653
568.92	0.59307908
569.122	0.59337979
569.324	0.59374557
569.526	0.59391191
569.728	0.5942408
569.93	0.59457654
570.132	0.59479275
570.334	0.59512878
570.536	0.59531766
570.738	0.59556863
570.94	0.59583848
571.142	0.5961605
571.344	0.59629309
571.546	0.5964938
571.748	0.59667761
571.95	0.59688219
572.152	0.59709894
572.354	0.5975004
572.555	0.59777424
572.757	0.59829956
572.959	0.5985168
573.161	0.59865169
573.363	0.59896118
573.564	0.59926792
573.766	0.59927658
573.968	0.59937566
574.17	0.59922263
574.371	0.59942072
574.573	0.59967692
574.775	0.59977379
574.976	0.59991416
575.178	0.60011993
575.38	0.6001
575.581	0.60020522
575.783	0.60035879
575.985	0.60046122
576.186	0.6006594
576.388	0.60074129
576.589	0.60082982
576.791	0.60109124
576.992	0.6012438
577.194	0.60129534
577.395	0.60126219
577.597	0.601318
577.798	0.60139309
578	0.60146417
578.201	0.60153756
578.402	0.60164997
578.604	0.60162864
578.805	0.60177554
579.007	0.60186229
579.208	0.60195068
579.409	0.60204196
579.611	0.60193517
579.812	0.60199358
580.013	0.60208557
580.215	0.60186159
580.416	0.60179415
580.617	0.60169667
580.818	0.60167073
581.019	0.60160594
581.221	0.60151784
581.422	0.60147111
581.623	0.60158454
581.824	0.60134366
582.025	0.60116112
582.226	0.60106012
582.428	0.60108176
582.629	0.60094628
582.83	0.60083503
583.031	0.60076622
583.232	0.60089506
583.433	0.60092471
583.634	0.60066872
583.835	0.6005314
584.036	0.60038717
584.237	0.60018325
584.438	0.59996997
584.639	0.59960022
584.84	0.59938297
585.041	0.59915089
585.242	0.59887511
585.442	0.59864643
585.643	0.59850728
585.844	0.59822996
586.045	0.59817178
586.246	0.59785641
586.447	0.59768204
586.647	0.59741927
586.848	0.59715426
587.049	0.59686387
587.25	0.59663188
587.45	0.59635522
587.651	0.59622849
587.852	0.59607199
588.053	0.59602644
588.253	0.5958115
588.454	0.59569654
588.655	0.59543366
588.855	0.59511872
589.056	0.59481661
589.256	0.59452624
589.457	0.59412554
589.658	0.59385354
589.858	0.59339929
590.059	0.59321012
590.259	0.59301109
590.46	0.59266714
590.66	0.59237338
590.861	0.59208772
591.061	0.59175135
591.262	0.59153501
591.462	0.59118892
591.662	0.59074934
591.863	0.59040738
592.063	0.59007732
592.264	0.5897249
592.464	0.58942654
592.664	0.58898873
592.865	0.5886448
593.065	0.58815534
593.265	0.58777766
593.465	0.58727706
593.666	0.58683044
593.866	0.5863408
594.066	0.58600196
594.266	0.5855323
594.467	0.5851048
594.667	0.58462761
594.867	0.5842275
595.067	0.58376687
595.267	0.583298
595.467	0.58261707
595.668	0.58203709
595.868	0.58160948
596.068	0.5811611
596.268	0.58058106
596.468	0.58015414
596.668	0.5797535
596.868	0.5793062
597.068	0.57901135
597.268	0.5785628
597.468	0.57803183
597.668	0.57749899
597.868	0.57687712
598.068	0.57635925
598.268	0.57593344
598.467	0.57534855
598.667	0.57474745
598.867	0.57412625
599.067	0.5737057
599.267	0.57326549
599.467	0.57263427
599.667	0.57201374
599.866	0.57147335
600.066	0.57094353
600.266	0.57038074
600.466	0.56976186
600.665	0.56915908
600.865	0.56848505
601.065	0.56799989
601.264	0.56729173
601.464	0.56666932
601.664	0.56616127
601.863	0.56553179
602.063	0.56492433
602.263	0.56421265
602.462	0.56353476
602.662	0.56299068
602.861	0.56237323
603.061	0.56172356
603.26	0.56114102
603.46	0.56050586
603.659	0.56006843
603.859	0.55951728
604.058	0.55885793
604.258	0.55834988
604.457	0.55786273
604.657	0.55714213
604.856	0.55641545
605.056	0.55577331
605.255	0.55495697
605.454	0.55427154
605.654	0.55344045
605.853	0.55264927
606.052	0.55191284
606.252	0.55122791
606.451	0.55053935
606.65	0.55000105
606.849	0.54913806
607.049	0.54851735
607.248	0.54773051
607.447	0.54715863
607.646	0.54656442
607.845	0.54586552
608.045	0.54502596
608.244	0.54454432
608.443	0.54377652
608.642	0.54313478
608.841	0.54224581
609.04	0.54140915
609.239	0.54060102
609.438	0.53983444
609.637	0.53907024
609.836	0.53830115
610.035	0.53754291
610.234	0.53687569
610.433	0.53608601
610.632	0.53532373
610.831	0.53461397
611.03	0.53370272
611.229	0.53304672
611.428	0.53225191
611.627	0.53144018
611.826	0.53070135
612.025	0.52995584
612.224	0.5289737
612.422	0.52821383
612.621	0.52732664
612.82	0.52662747
613.019	0.52588482
613.218	0.52519037
613.416	0.52431344
613.615	0.52370227
613.814	0.52294436
614.012	0.52210907
614.211	0.5211434
614.41	0.52032506
614.608	0.51941472
614.807	0.51854642
615.006	0.51779975
615.204	0.51693508
615.403	0.51620691
615.602	0.51540317
615.8	0.51459878
615.999	0.51358961
616.197	0.51284149
616.396	0.51187054
616.594	0.5109353
616.793	0.50997521
616.991	0.5090774
617.19	0.50816851
617.388	0.50762316
617.586	0.50680239
617.785	0.50604372
617.983	0.50530885
618.182	0.50450059
618.38	0.50368781
618.578	0.50284474
618.777	0.50189514
618.975	0.50101826
619.173	0.50009919
619.372	0.49919788
619.57	0.49827051
619.768	0.4974979
619.966	0.49650148
620.165	0.49554129
620.363	0.49469931
620.561	0.4937409
620.759	0.49279722
620.957	0.49195015
621.155	0.49094604
621.354	0.49006629
621.552	0.48927313
621.75	0.48825996
621.948	0.48743976
622.146	0.48659322
622.344	0.485644
622.542	0.48482681
622.74	0.48393158
622.938	0.48296137
623.136	0.48212787
623.334	0.48127637
623.532	0.48032133
623.73	0.47951887
623.928	0.4786455
624.126	0.47780167
624.324	0.47695317
624.522	0.4760013
624.719	0.47497618
624.917	0.47418684
625.115	0.47322981
625.313	0.47248381
625.511	0.47171587
625.708	0.47070101
625.906	0.46970765
626.104	0.46882037
626.302	0.46788258
626.499	0.46699464
626.697	0.46578271
626.895	0.46458631
627.093	0.46362068
627.29	0.46268506
627.488	0.46167215
627.686	0.46073002
627.883	0.45954427
628.081	0.45849388
628.278	0.4576285
628.476	0.45657364
628.673	0.45563303
628.871	0.4546987
629.068	0.45362347
629.266	0.45275142
629.463	0.45177029
629.661	0.45074984
629.858	0.44984434
630.056	0.44886
630.253	0.44792261
630.451	0.44704504
630.648	0.44605967
630.845	0.44515197
631.043	0.44423327
631.24	0.44334575
631.438	0.44243474
631.635	0.4414424
631.832	0.44023678
632.029	0.43931195
632.227	0.43822257
632.424	0.43710152
632.621	0.43593008
632.818	0.43478496
633.016	0.43370883
633.213	0.43283922
633.41	0.43179047
633.607	0.43086217
633.804	0.42993041
634.001	0.42890434
634.199	0.42795258
634.396	0.42697833
634.593	0.42590559
634.79	0.42509042
634.987	0.42414832
635.184	0.42319485
635.381	0.42244808
635.578	0.42153771
635.775	0.42048912
635.972	0.41950376
636.169	0.41824321
636.366	0.41723658
636.563	0.41623618
636.76	0.41504134
636.957	0.41402404
637.153	0.41302308
637.35	0.41214376
637.547	0.41130931
637.744	0.41029063
637.941	0.40938948
638.138	0.4085595
638.334	0.40762674
638.531	0.40681177
638.728	0.40593551
638.925	0.40508738
639.121	0.40422555
639.318	0.40321601
639.515	0.40211611
639.711	0.40117129
639.908	0.40006882
640.105	0.39902529
640.301	0.39793801
640.498	0.39695749
640.695	0.39612965
640.891	0.39524977
641.088	0.39431563
641.284	0.3934069
641.481	0.39246238
641.677	0.39148763
641.874	0.3904147
642.07	0.38943409
642.267	0.38863378
642.463	0.38765714
642.66	0.38686315
642.856	0.38586815
643.053	0.38499382
643.249	0.38422481
643.445	0.3832203
643.642	0.38207197
643.838	0.38105096
644.034	0.37995273
644.231	0.37887103
644.427	0.37779087
644.623	0.37671382
644.82	0.37579399
645.016	0.37480895
645.212	0.37379181
645.408	0.37282552
645.604	0.3721007
645.801	0.37127796
645.997	0.37027017
646.193	0.36931702
646.389	0.3685602
646.585	0.36776271
646.781	0.36690541
646.977	0.36605608
647.173	0.36511525
647.37	0.36433813
647.566	0.36349158
647.762	0.36262799
647.958	0.36187492
648.154	0.36091588
648.35	0.35994866
648.546	0.35906242
648.742	0.35828159
648.937	0.35717037
649.133	0.3562209
649.329	0.35525314
649.525	0.35436123
649.721	0.35334482
649.917	0.35238774
650.113	0.35117185
650.309	0.35039304
650.504	0.34937622
650.7	0.34830342
650.896	0.34741327
651.092	0.34648636
651.287	0.3456085
651.483	0.3448359
651.679	0.34396321
651.875	0.34322625
652.07	0.34243233
652.266	0.341546
652.462	0.34076128
652.657	0.33989002
652.853	0.33900731
653.048	0.33811174
653.244	0.3371128
653.44	0.33627947
653.635	0.33529725
653.831	0.33439993
654.026	0.33357567
654.222	0.33264553
654.417	0.33180368
654.613	0.33091485
654.808	0.32990214
655.004	0.32912694
655.199	0.32823888
655.394	0.32733867
655.59	0.3265582
655.785	0.32554522
655.98	0.32463078
656.176	0.32371548
656.371	0.32294162
656.566	0.32210573
656.762	0.32120125
656.957	0.32031589
657.152	0.31953218
657.348	0.31873757
657.543	0.3180164
657.738	0.31702268
657.933	0.31606411
658.128	0.31507334
658.324	0.31410613
658.519	0.31321212
658.714	0.31227162
658.909	0.31133603
659.104	0.31048188
659.299	0.30965439
659.494	0.30889986
659.689	0.30812642
659.884	0.30723751
660.079	0.30632355
660.274	0.30544819
660.469	0.3045509
660.664	0.30374834
660.859	0.30289261
661.054	0.30210793
661.249	0.30135723
661.444	0.30065723
661.639	0.29985071
661.834	0.29910497
662.029	0.29833614
662.224	0.29756047
662.418	0.29670452
662.613	0.29591482
662.808	0.29504163
663.003	0.29421726
663.198	0.29327416
663.392	0.29226957
663.587	0.29153938
663.782	0.29064291
663.977	0.28971471
664.171	0.28886688
664.366	0.28794935
664.561	0.28715309
664.755	0.28636278
664.95	0.28547654
665.144	0.28466984
665.339	0.28399363
665.534	0.28330098
665.728	0.28265354
665.923	0.2819425
666.117	0.28120327
666.312	0.28040819
666.506	0.2796908
666.701	0.27884209
666.895	0.27808445
667.09	0.27724351
667.284	0.27655183
667.479	0.27582602
667.673	0.27508462
667.867	0.27441327
668.062	0.27373352
668.256	0.27299593
668.45	0.27242058
668.645	0.27165111
668.839	0.27098106
669.033	0.27025429
669.228	0.26950144
669.422	0.26874543
669.616	0.26797137
669.81	0.26721563
670.004	0.26653861
670.199	0.26580838
670.393	0.26512309
670.587	0.26432382
670.781	0.26350707
670.975	0.2627399
671.169	0.26179843
671.363	0.26088188
671.558	0.26005101
671.752	0.25927872
671.946	0.2586511
672.14	0.25802057
672.334	0.25723373
672.528	0.25668091
672.722	0.25595683
672.916	0.25532631
673.11	0.25455429
673.304	0.25385175
673.497	0.25302688
673.691	0.25236433
673.885	0.25150891
674.079	0.25085921
674.273	0.25006049
674.467	0.24935145
674.661	0.24857828
674.854	0.24792369
675.048	0.24732668
675.242	0.24678219
675.436	0.24622308
675.629	0.24562962
675.823	0.2449957
676.017	0.24440747
676.211	0.24383879
676.404	0.24317591
676.598	0.24251974
676.792	0.2417837
676.985	0.24111059
677.179	0.24038535
677.372	0.23959161
677.566	0.23882363
677.76	0.23800988
677.953	0.23719666
678.147	0.23653757
678.34	0.23590956
678.534	0.23530796
678.727	0.23481385
678.921	0.2343126
679.114	0.2338679
679.307	0.23337416
679.501	0.23277808
679.694	0.23219214
679.888	0.23161813
680.081	0.2310483
680.274	0.23037197
680.468	0.22977425
680.661	0.22919551
680.854	0.22864666
681.048	0.22796136
681.241	0.22725805
681.434	0.22648626
681.627	0.22577504
681.821	0.22503208
682.014	0.22443455
682.207	0.2237342
682.4	0.22315127
682.593	0.22263108
682.786	0.22209085
682.98	0.22157972
683.173	0.22106866
683.366	0.22048538
683.559	0.21998903
683.752	0.21941354
683.945	0.21884689
684.138	0.21829972
684.331	0.21769323
684.524	0.2171467
684.717	0.21650539
684.91	0.21598838
685.103	0.2155101
685.296	0.21494359
685.489	0.21438553
685.682	0.21383506
685.874	0.21331381
686.067	0.21277864
686.26	0.2122478
686.453	0.21166974
686.646	0.21114139
686.839	0.21072739
687.031	0.21032201
687.224	0.20981721
687.417	0.20951897
687.61	0.20903606
687.802	0.20857653
687.995	0.20810612
688.188	0.20761032
688.38	0.20709051
688.573	0.20659339
688.766	0.20600102
688.958	0.20542932
689.151	0.20488302
689.343	0.20446296
689.536	0.20386868
689.729	0.20333576
689.921	0.2028213
690.114	0.20221676
690.306	0.20170368
690.499	0.20126155
690.691	0.20075028
690.884	0.2003047
691.076	0.19986371
691.268	0.19936919
691.461	0.19895831
691.653	0.19859911
691.846	0.19823035
692.038	0.19781432
692.23	0.19733891
692.423	0.19692118
692.615	0.19661309
692.807	0.19626209
692.999	0.19586473
693.192	0.19537597
693.384	0.19494982
693.576	0.19456636
693.768	0.194258
693.961	0.19379321
694.153	0.19344468
694.345	0.19303724
694.537	0.19275049
694.729	0.19240442
694.921	0.1920429
695.113	0.19155983
695.305	0.19107671
695.498	0.19048397
695.69	0.18998269
695.882	0.18937363
696.074	0.18886038
696.266	0.18834474
696.458	0.18784218
696.65	0.1874676
696.842	0.18715849
697.033	0.18683863
697.225	0.18647735
697.417	0.1861192
697.609	0.18569038
697.801	0.18530093
697.993	0.18486842
698.185	0.18439497
698.376	0.18386035
698.568	0.18339206
698.76	0.18292154
698.952	0.18257203
699.144	0.18226708
699.335	0.18204815
699.527	0.18183331
699.719	0.18159673
699.91	0.18130499
700.102	0.18092418
700.294	0.18067348
700.485	0.18037144
700.677	0.17996593
700.869	0.17969045
701.06	0.17947279
701.252	0.17930414
701.443	0.17921311
701.635	0.17897096
701.826	0.17868029
702.018	0.1784297
702.209	0.17816124
702.401	0.17784722
702.592	0.17760073
702.784	0.17738366
702.975	0.17722976
703.166	0.17713512
703.358	0.17688882
703.549	0.17659225
703.741	0.17624894
703.932	0.17585206
704.123	0.17540772
704.315	0.17498912
704.506	0.17457372
704.697	0.17418626
704.888	0.17392731
705.08	0.17374341
705.271	0.17362297
705.462	0.17346802
705.653	0.1732949
705.844	0.1730593
706.035	0.1729692
706.227	0.17272285
706.418	0.17248535
706.609	0.17221169
706.8	0.17199607
706.991	0.17173421
707.182	0.17157437
707.373	0.17133516
707.564	0.1711641
707.755	0.17089447
707.946	0.17069013
708.137	0.17038364
708.328	0.17008187
708.519	0.16981957
708.71	0.16955584
708.901	0.16917245
709.092	0.16893831
709.283	0.16867059
709.473	0.16852336
709.664	0.16839479
709.855	0.16814257
710.046	0.16790733
710.237	0.16769468
710.427	0.1674344
710.618	0.16719652
710.809	0.16689191
711	0.16660183
711.19	0.16628757
711.381	0.1660486
711.572	0.16577887
711.762	0.16567693
711.953	0.16553997
712.144	0.16549753
712.334	0.16540158
712.525	0.16540847
712.715	0.16535572
712.906	0.16534581
713.097	0.16524206
713.287	0.16513753
713.478	0.164983
713.668	0.16488252
713.859	0.16475126
714.049	0.16463882
714.239	0.16458599
714.43	0.16440734
714.62	0.16422973
714.811	0.16405886
715.001	0.1639084
715.191	0.16377051
715.382	0.16361546
715.572	0.16349205
715.762	0.16347834
715.953	0.16348547
716.143	0.16344786
716.333	0.16343174
716.523	0.16345086
716.714	0.16348524
716.904	0.16346365
717.094	0.16349358
717.284	0.16342268
717.474	0.16331384
717.664	0.16315251
717.855	0.1629968
718.045	0.16291432
718.235	0.16290702
718.425	0.16284783
718.615	0.16288491
718.805	0.16303154
718.995	0.16320341
719.185	0.16327793
719.375	0.16325903
719.565	0.16320239
719.755	0.16311814
719.945	0.16299346
720.135	0.1628929
720.325	0.16276783
720.515	0.16273425
720.704	0.16276313
720.894	0.16276481
721.084	0.16270619
721.274	0.16271185
721.464	0.16267183
721.654	0.16264067
721.843	0.1625398
722.033	0.16250575
722.223	0.1625106
722.413	0.16264257
722.602	0.16264875
722.792	0.16265447
722.982	0.16268692
723.171	0.16281028
723.361	0.16289099
723.55	0.16295616
723.74	0.16289058
723.93	0.16293032
724.119	0.16301499
724.309	0.16305539
724.498	0.16302116
724.688	0.16298388
724.877	0.16290143
725.067	0.16287556
725.256	0.16284934
725.446	0.16282834
725.635	0.16277483
725.825	0.16276568
726.014	0.16270433
726.203	0.16266361
726.393	0.16262423
726.582	0.16257114
726.771	0.16249005
726.961	0.16253544
727.15	0.16261235
727.339	0.16271396
727.529	0.1628889
727.718	0.16298702
727.907	0.16304754
728.096	0.16307191
728.286	0.16301412
728.475	0.16292711
728.664	0.16281098
728.853	0.16275888
729.042	0.16273884
729.231	0.16276706
729.42	0.16284839
729.609	0.16293798
729.799	0.16290471
729.988	0.16288523
730.177	0.16279427
730.366	0.162762
730.555	0.16279273
730.744	0.16280547
730.933	0.16283782
731.122	0.16294075
731.31	0.1630317
731.499	0.16310791
731.688	0.16317772
731.877	0.16320906
732.066	0.16332511
732.255	0.16339466
732.444	0.16355254
732.632	0.16371528
732.821	0.16382588
733.01	0.16392264
733.199	0.16405023
733.388	0.16409949
733.576	0.16423586
733.765	0.1643178
733.954	0.16440966
734.142	0.16455366
734.331	0.16465901
734.52	0.16470533
734.708	0.16466038
734.897	0.16463096
735.086	0.16460394
735.274	0.16457765
735.463	0.16450523
735.651	0.16451593
735.84	0.16456543
736.028	0.16472254
736.217	0.16484857
736.405	0.16494998
736.594	0.16508386
736.782	0.16527945
736.971	0.16546728
737.159	0.16566061
737.347	0.16584607
737.536	0.16595198
737.724	0.16607616
737.912	0.16610059
738.101	0.16613294
738.289	0.16620398
738.477	0.16626741
738.666	0.16631784
738.854	0.16653219
739.042	0.16673132
739.23	0.16691872
739.418	0.16711511
739.607	0.16726227
739.795	0.16736355
739.983	0.16746634
740.171	0.16742119
740.359	0.16746785
740.547	0.16767391
740.735	0.16785933
740.923	0.16809896
741.112	0.1683357
741.3	0.1685709
741.488	0.16883736
741.676	0.16902264
741.864	0.1691625
742.052	0.16925364
742.239	0.16925934
742.427	0.16928232
742.615	0.16927209
742.803	0.16929275
742.991	0.16936071
743.179	0.16947669
743.367	0.16968318
743.555	0.16999291
743.742	0.17032293
743.93	0.17072589
744.118	0.17106948
744.306	0.17138399
744.494	0.17165492
744.681	0.17188647
744.869	0.17195139
745.057	0.17195067
745.244	0.17194859
745.432	0.17200093
745.62	0.17211142
745.807	0.17227331
745.995	0.17243444
746.182	0.17269646
746.37	0.1730038
746.558	0.17326147
746.745	0.1735325
746.933	0.17378347
747.12	0.17396336
747.308	0.17415528
747.495	0.17429814
747.683	0.17449736
747.87	0.17479827
748.057	0.17500143
748.245	0.1752361
748.432	0.17544287
748.62	0.17575448
748.807	0.17618601
748.994	0.17655244
749.182	0.1767875
749.369	0.17713156
749.556	0.17742558
749.743	0.17776717
749.931	0.17796603
750.118	0.17809654
750.305	0.17821438
750.492	0.17833255
750.68	0.17852278
750.867	0.17871289
751.054	0.17887486
751.241	0.17906892
751.428	0.17917605
751.615	0.17927607
751.802	0.17932204
751.989	0.17930696
752.176	0.17933387
752.363	0.17939748
752.55	0.17949165
752.737	0.17968129
752.924	0.17998971
753.111	0.18042281
753.298	0.18086653
753.485	0.18128682
753.672	0.18165388
753.859	0.18197376
754.046	0.18223133
754.233	0.18240708
754.42	0.18259584
754.606	0.1826802
754.793	0.18277502
754.98	0.18292709
755.167	0.18302528
755.353	0.18321607
755.54	0.18345226
755.727	0.1837102
755.914	0.18400468
756.1	0.18426731
756.287	0.18455557
756.474	0.18493379
756.66	0.18526104
756.847	0.18542939
757.033	0.18554842
757.22	0.18562233
757.407	0.18573507
757.593	0.18578427
757.78	0.185859
757.966	0.18596385
758.153	0.18613193
758.339	0.1862591
758.526	0.18651153
758.712	0.18680971
758.898	0.18730535
759.085	0.18768823
759.271	0.18808313
759.458	0.18852696
759.644	0.18898687
759.83	0.18937104
760.017	0.1897273
760.203	0.18991894
760.389	0.19011952
760.576	0.19031594
760.762	0.19050713
760.948	0.19064217
761.134	0.19081087
761.32	0.19105258
761.507	0.19126943
761.693	0.19157073
761.879	0.19185518
762.065	0.19221552
762.251	0.19266429
762.437	0.19309125
762.623	0.19341322
762.809	0.19372171
762.995	0.19404485
763.181	0.19443182
763.367	0.19473793
763.553	0.19496331
763.739	0.19517292
763.925	0.1953094
764.111	0.19549652
764.297	0.19559732
764.483	0.19554384
764.669	0.19552042
764.855	0.19569599
765.041	0.19595961
765.227	0.19624961
765.412	0.19652554
765.598	0.19694106
765.784	0.19747011
765.97	0.19800132
766.156	0.19836803
766.341	0.19867657
766.527	0.19901831
766.713	0.19939681
766.898	0.19962078
767.084	0.19981021
767.27	0.19992014
767.455	0.20005747
767.641	0.20035513
767.827	0.20064568
768.012	0.20095629
768.198	0.20136437
768.383	0.20179757
768.569	0.20227769
768.754	0.20282381
768.94	0.20320241
769.125	0.20354532
769.311	0.20388699
769.496	0.20422223
769.682	0.20448422
769.867	0.2047829
770.052	0.20498295
770.238	0.20512923
770.423	0.20537629
770.608	0.20555997
770.794	0.20576816
770.979	0.20604811
771.164	0.20634356
771.35	0.2066489
771.535	0.2070125
771.72	0.20731796
771.905	0.20769764
772.09	0.20796025
772.276	0.20818326
772.461	0.2084315
772.646	0.20871737
772.831	0.20902259
773.016	0.20930809
773.201	0.20954293
773.386	0.20989067
773.571	0.21026292
773.756	0.21062684
773.941	0.21097271
774.126	0.21134917
774.311	0.21170533
774.496	0.21194712
774.681	0.21212834
774.866	0.21233755
775.051	0.21249058
775.236	0.21279482
775.421	0.21299347
775.606	0.2132781
775.791	0.2135764
775.976	0.21393082
776.16	0.21425501
776.345	0.21458057
776.53	0.21485669
776.715	0.21515702
776.899	0.21537128
777.084	0.21564986
777.269	0.21594856
777.454	0.21628183
777.638	0.21664755
777.823	0.21692432
778.008	0.21728206
778.192	0.2177514
778.377	0.21812044
778.561	0.21842038
778.746	0.2186894
778.931	0.21888653
779.115	0.21910554
779.3	0.21921492
779.484	0.2192285
779.669	0.21938277
779.853	0.21956905
780.037	0.21966807
780.222	0.21977923
780.406	0.21986021
780.591	0.22003847
780.775	0.22023216
780.959	0.22030664
781.144	0.22038305
781.328	0.220484
781.512	0.22066326
781.697	0.22087194
781.881	0.22110612
782.065	0.22133623
782.249	0.22153572
782.434	0.22170753
782.618	0.22188292
782.802	0.22207114
782.986	0.22215822
783.17	0.22211096
783.354	0.22212404
783.539	0.22229904
783.723	0.22252634
783.907	0.222788
784.091	0.22302077
784.275	0.2233073
784.459	0.2235631
784.643	0.223784
784.827	0.22387668
785.011	0.22388076
785.195	0.22392999
785.379	0.22402389
785.563	0.22417063
785.747	0.22432294
785.93	0.22452807
786.114	0.22470843
786.298	0.22485567
786.482	0.22502213
786.666	0.22516451
786.85	0.22529541
787.033	0.2256297
787.217	0.22588342
787.401	0.22620263
787.585	0.2266374
787.768	0.22702981
787.952	0.22731123
788.136	0.22758779
788.319	0.22774811
788.503	0.22789948
788.687	0.22805485
788.87	0.22811477
789.054	0.22816199
789.237	0.22833866
789.421	0.22851082
789.605	0.22881707
789.788	0.22910544
789.972	0.22942353
790.155	0.2297887
790.338	0.23020993
790.522	0.23052486
790.705	0.23091923
790.889	0.23116427
791.072	0.23150602
791.256	0.23177819
791.439	0.23204092
791.622	0.2323316
791.806	0.23265332
791.989	0.23290569
792.172	0.23313773
792.355	0.23328645
792.539	0.23345111
792.722	0.23362077
792.905	0.23363636
793.088	0.23371638
793.271	0.23387379
793.455	0.23413216
793.638	0.23436377
793.821	0.23463278
794.004	0.23491965
794.187	0.23536241
794.37	0.23580736
794.553	0.23607655
794.736	0.23625035
794.919	0.2365462
795.102	0.2368244
795.285	0.23715061
795.468	0.23740173
795.651	0.23766418
795.834	0.23804503
796.017	0.23844724
796.2	0.23880957
796.383	0.23917874
796.566	0.23964232
796.749	0.24002755
796.931	0.24035972
797.114	0.24070641
797.297	0.24102033
797.48	0.24129492
797.663	0.24159788
797.845	0.24167934
798.028	0.24188484
798.211	0.24203336
798.393	0.2422193
798.576	0.24241504
798.759	0.24254618
798.941	0.24280229
799.124	0.24320955
799.307	0.2435098
799.489	0.24393679
799.672	0.24421654
799.854	0.24454838
800.037	0.24501617
800.219	0.24543372
800.402	0.24575755
800.584	0.24612131
800.767	0.2464633
800.949	0.24684604
801.132	0.24725224
801.314	0.2475073
801.496	0.24774725
801.679	0.24791431
801.861	0.24809547
802.043	0.24823108
802.226	0.24843724
802.408	0.24854901
802.59	0.24877088
802.772	0.24889667
802.955	0.24913104
803.137	0.24930843
803.319	0.24936432
803.501	0.24935215
803.684	0.24945894
803.866	0.2495259
804.048	0.24963972
804.23	0.24976117
804.412	0.2500648
804.594	0.25034663
804.776	0.25081225
804.958	0.25110955
805.14	0.25138727
805.322	0.25154336
805.504	0.25167916
805.686	0.25169506
805.868	0.25179298
806.05	0.25177229
806.232	0.25179938
806.414	0.25195008
806.596	0.25220596
806.778	0.25228421
806.96	0.25247932
807.141	0.25256785
807.323	0.25256497
807.505	0.25252688
807.687	0.25237012
807.869	0.25217042
808.05	0.2520152
808.232	0.25176211
808.414	0.25156096
808.595	0.25151257
808.777	0.25153962
808.959	0.25166641
809.14	0.25184687
809.322	0.25213744
809.504	0.25252897
809.685	0.25301958
809.867	0.25339345
810.048	0.25375084
810.23	0.25403051
810.411	0.25423172
810.593	0.25436542
810.774	0.25436328
810.956	0.25417126
811.137	0.25395042
811.319	0.25371909
811.5	0.25351633
811.681	0.25333906
811.863	0.25321931
812.044	0.25323023
812.225	0.25344002
812.407	0.25362385
812.588	0.25385961
812.769	0.25408632
812.951	0.25431954
813.132	0.25455739
813.313	0.25478186
813.494	0.25491429
813.675	0.25513313
813.857	0.25536199
814.038	0.25559273
814.219	0.25578558
814.4	0.25596347
814.581	0.25606222
814.762	0.25611912
814.943	0.25614041
815.124	0.25607565
815.305	0.25602829
815.486	0.25611703
815.667	0.25628102
815.848	0.2563718
816.029	0.25655398
816.21	0.25688415
816.391	0.25728093
816.572	0.25760219
816.753	0.25781246
816.934	0.25791326
817.115	0.2580799
817.295	0.2583182
817.476	0.25835752
817.657	0.25845313
817.838	0.25874314
818.019	0.25893875
818.199	0.25912783
818.38	0.25931257
818.561	0.25939591
818.741	0.25950428
818.922	0.2596318
819.103	0.25965547
819.283	0.25979314
819.464	0.26004102
819.645	0.26029328
819.825	0.26056552
820.006	0.26086671
820.186	0.26115398
820.367	0.26133361
820.547	0.26135693
820.728	0.26136198
820.908	0.26143494
821.089	0.26163623
821.269	0.26185118
821.45	0.26216222
821.63	0.2624208
821.81	0.26292355
821.991	0.26345273
822.171	0.26391075
822.351	0.26421318
822.532	0.26452171
822.712	0.26469227
822.892	0.26499769
823.072	0.26512382
823.253	0.26526587
823.433	0.26531658
823.613	0.26544533
823.793	0.26560462
823.973	0.26572973
824.154	0.26586707
824.334	0.26609034
824.514	0.26618186
824.694	0.26643935
824.874	0.26670129
825.054	0.26687787
825.234	0.26702107
825.414	0.26707387
825.594	0.26724672
825.774	0.26747534
825.954	0.2676452
826.134	0.26772679
826.314	0.2677984
826.494	0.26800375
826.674	0.26802147
826.854	0.2679583
827.033	0.26794884
827.213	0.26793422
827.393	0.26796902
827.573	0.2681378
827.753	0.26838829
827.932	0.26892911
828.112	0.26939513
828.292	0.26979929
828.472	0.27010794
828.651	0.27050375
828.831	0.27060317
829.011	0.27054226
829.19	0.27034389
829.37	0.2704094
829.549	0.27050129
829.729	0.27054837
829.909	0.27062265
830.088	0.27094167
830.268	0.27122017
830.447	0.27162537
830.627	0.271864
830.806	0.27204698
830.986	0.27233656
831.165	0.27269474
831.344	0.27296605
831.524	0.27314123
831.703	0.27326602
831.883	0.27335534
832.062	0.27344517
832.241	0.27345393
832.421	0.27330727
832.6	0.27321836
832.779	0.27319107
832.958	0.27317482
833.138	0.27316633
833.317	0.27329331
833.496	0.27355566
833.675	0.27377956
833.854	0.27401839
834.034	0.27416261
834.213	0.27424665
834.392	0.27436402
834.571	0.27436568
834.75	0.27429405
834.929	0.27421722
835.108	0.27403652
835.287	0.27410243
835.466	0.27413012
835.645	0.27413076
835.824	0.27407611
836.003	0.27412395
836.182	0.2742406
836.361	0.27436578
836.54	0.27427123
836.719	0.27432051
836.897	0.27432966
837.076	0.27444263
837.255	0.27455026
837.434	0.27458569
837.613	0.27459064
837.791	0.27470199
837.97	0.27491891
838.149	0.27503256
838.328	0.27502578
838.506	0.27495286
838.685	0.27488666
838.864	0.27500113
839.042	0.27498011
839.221	0.27496666
839.4	0.27499821
839.578	0.27506381
839.757	0.27510031
839.935	0.2752296
840.114	0.27534103
840.292	0.27554894
840.471	0.27566494
840.649	0.27580323
840.828	0.27598652
841.006	0.27628303
841.185	0.27638576
841.363	0.27655224
841.541	0.27677461
841.72	0.27691168
841.898	0.27708211
842.076	0.27718422
842.255	0.27717861
842.433	0.27734691
842.611	0.27745213
842.789	0.27749534
842.968	0.27761086
843.146	0.27761367
843.324	0.27763522
843.502	0.27775602
843.68	0.27786999
843.859	0.27781404
844.037	0.27781355
844.215	0.27780904
844.393	0.277995
844.571	0.2782397
844.749	0.27836516
844.927	0.27841188
845.105	0.27848452
845.283	0.27853065
845.461	0.27851891
845.639	0.27848087
845.817	0.27849503
845.995	0.27858064
846.173	0.27863394
846.351	0.27860274
846.529	0.2785654
846.706	0.27845439
846.884	0.27833568
847.062	0.27795164
847.24	0.27769228
847.418	0.27749166
847.595	0.27755107
847.773	0.27762022
847.951	0.2777935
848.129	0.27799414
848.306	0.27831957
848.484	0.27845581
848.662	0.27877892
848.839	0.27892682
849.017	0.27914997
849.194	0.27926518
849.372	0.27933085
849.549	0.2793766
849.727	0.27952846
849.905	0.27944759
850.082	0.27932165
850.26	0.27922233
850.437	0.27914297
850.614	0.27913684
850.792	0.27927726
850.969	0.27931436
851.147	0.27932132
851.324	0.27932787
851.501	0.27925758
851.679	0.27912501
851.856	0.27890168
852.033	0.27859498
852.211	0.2783269
852.388	0.27810121
852.565	0.27817266
852.742	0.27821147
852.92	0.27825134
853.097	0.27831074
853.274	0.27836041
853.451	0.278266
853.628	0.27832766
853.805	0.27822538
853.982	0.2781665
854.159	0.27818374
854.336	0.2781647
854.514	0.27824769
854.691	0.2783672
854.868	0.27840467
855.045	0.27835068
855.221	0.27828157
855.398	0.27813671
855.575	0.2780256
855.752	0.2778006
855.929	0.27786159
856.106	0.27773995
856.283	0.2776207
856.46	0.27744122
856.637	0.27751472
856.813	0.27757208
856.99	0.277638
857.167	0.27764402
857.344	0.27775933
857.52	0.27793048
857.697	0.27795983
857.874	0.27780929
858.05	0.27780765
858.227	0.27787444
858.404	0.27780704
858.58	0.27789789
858.757	0.27792481
858.933	0.27801503
859.11	0.27808003
859.287	0.27785074
859.463	0.27758761
859.64	0.27748936
859.816	0.27723796
859.993	0.27713141
860.169	0.27723682
860.345	0.27716398
860.522	0.27722826
860.698	0.27711336
860.875	0.27701754
861.051	0.27681639
861.227	0.27660122
861.404	0.27636252
861.58	0.27635856
861.756	0.27642304
861.932	0.27669764
862.109	0.27670696
862.285	0.27699228
862.461	0.27735012
862.637	0.2774643
862.813	0.27755519
862.99	0.27749162
863.166	0.27736202
863.342	0.27734816
863.518	0.27690771
863.694	0.27641519
863.87	0.27604673
864.046	0.27579436
864.222	0.27554896
864.398	0.27535291
864.574	0.27495226
864.75	0.27495388
864.926	0.27496045
865.102	0.27507347
865.278	0.2748333
865.454	0.27482773
865.63	0.27468235
865.805	0.27475003
865.981	0.2747881
866.157	0.2747558
866.333	0.27455577
866.509	0.27476615
866.684	0.27477469
866.86	0.27490767
867.036	0.27500689
867.212	0.27494641
867.387	0.27486213
867.563	0.2749511
867.739	0.27485958
867.914	0.27489257
868.09	0.27473492
868.265	0.27449334
868.441	0.27426641
868.617	0.27405232
868.792	0.273828
868.968	0.27362821
869.143	0.27354653
869.319	0.27357898
869.494	0.27355595
869.67	0.27370117
869.845	0.27372219
870.02	0.27379101
870.196	0.27391713
870.371	0.27370123
870.546	0.273479
870.722	0.27342084
870.897	0.27321006
871.072	0.27324405
871.248	0.27293545
871.423	0.27262518
871.598	0.27246458
871.773	0.27227936
871.949	0.27208557
872.124	0.27204939
872.299	0.27173059
872.474	0.27166411
872.649	0.27149353
872.824	0.27130537
872.999	0.27116658
873.174	0.27111617
873.349	0.27104487
873.524	0.27090844
873.699	0.27067684
873.874	0.27048584
874.049	0.27025269
874.224	0.27003051
874.399	0.26963966
874.574	0.26922506
874.749	0.26900262
874.924	0.26886032
875.099	0.26875374
875.274	0.26858213
875.449	0.26860892
875.623	0.26847075
875.798	0.2681751
875.973	0.26793561
876.148	0.26757764
876.322	0.26727185
876.497	0.26716624
876.672	0.26675312
876.846	0.26663457
877.021	0.26660944
877.196	0.26636121
877.37	0.2663489
877.545	0.26628648
877.72	0.26607225
877.894	0.26609079
878.069	0.26585915
878.243	0.26563263
878.418	0.26569272
878.592	0.26564409
878.767	0.26556942
878.941	0.26565498
879.116	0.26543903
879.29	0.2653998
879.464	0.26531132
879.639	0.26502576
879.813	0.26493938
879.987	0.26464868
880.162	0.2641462
880.336	0.26399437
880.51	0.26379606
880.685	0.26353987
880.859	0.26344424
881.033	0.26306126
881.207	0.26291813
881.381	0.26287446
881.556	0.26274453
881.73	0.26258264
881.904	0.2626091
882.078	0.26240412
882.252	0.26231317
882.426	0.26223065
882.6	0.26217871
882.774	0.26222424
882.948	0.26225914
883.122	0.26196478
883.296	0.26184457
883.47	0.26183118
883.644	0.26172854
883.818	0.26156052
883.992	0.26139484
884.166	0.26133793
884.34	0.26137563
884.514	0.26145468
884.687	0.26129969
884.861	0.26106173
885.035	0.26093064
885.209	0.26062922
885.382	0.26019922
885.556	0.25989195
885.73	0.2596677
885.904	0.2594342
886.077	0.25924313
886.251	0.2589875
886.425	0.25892007
886.598	0.25902211
886.772	0.25893996
886.945	0.25859421
887.119	0.25839463
887.292	0.25827043
887.466	0.25820512
887.64	0.25790791
887.813	0.2574422
887.986	0.25707889
888.16	0.25691401
888.333	0.2565733
888.507	0.25632236
888.68	0.2559546
888.854	0.2557607
889.027	0.25556265
889.2	0.25550238
889.374	0.25539725
889.547	0.25549733
889.72	0.25549138
889.893	0.25536778
890.067	0.255179
890.24	0.25499426
890.413	0.2547317
890.586	0.2543791
890.759	0.25422865
890.933	0.25398445
891.106	0.25379982
891.279	0.25359003
891.452	0.25340568
891.625	0.25321383
891.798	0.25311035
891.971	0.25281868
892.144	0.2525645
892.317	0.25240841
892.49	0.25201696
892.663	0.25184983
892.836	0.25168275
893.009	0.25140371
893.182	0.2509568
893.355	0.25062147
893.527	0.25037361
893.7	0.25045045
893.873	0.25022885
894.046	0.24997449
894.219	0.24984873
894.391	0.24975506
894.564	0.24969442
894.737	0.24945817
894.91	0.24909096
895.082	0.2488396
895.255	0.24863321
895.428	0.24846694
895.6	0.24846942
895.773	0.24825041
895.945	0.24823458
896.118	0.24811579
896.291	0.24801621
896.463	0.24795534
896.636	0.24777795
896.808	0.2475023
896.981	0.24748314
897.153	0.24726546
897.326	0.24722053
897.498	0.24691827
897.67	0.24663762
897.843	0.24643201
898.015	0.24615765
898.187	0.24564219
898.36	0.24519271
898.532	0.2445215
898.704	0.2443214
898.877	0.24398111
899.049	0.24371017
899.221	0.24333495
899.393	0.24319658
899.566	0.24301567
899.738	0.2430756
899.91	0.24283062
900.082	0.24282043
900.254	0.24260025
900.426	0.24257559
900.598	0.24235619
900.77	0.2421713
900.942	0.24192089
901.114	0.24157534
901.286	0.24104647
901.458	0.24060762
901.63	0.24014221
901.802	0.23982517
901.974	0.2396173
902.146	0.23937954
902.318	0.23942507
902.49	0.23946329
902.662	0.23941902
902.834	0.23930955
903.005	0.23924669
903.177	0.23890911
903.349	0.23871294
903.521	0.23814353
903.693	0.23769961
903.864	0.23742051
904.036	0.23723844
904.208	0.2368709
904.379	0.23664465
904.551	0.23641355
904.723	0.23610736
904.894	0.23563778
905.066	0.23522574
905.237	0.23467878
905.409	0.23427914
905.58	0.23403062
905.752	0.23375852
905.923	0.23369208
906.095	0.2336293
906.266	0.23356664
906.438	0.23364665
906.609	0.23377492
906.78	0.23362261
906.952	0.23362919
907.123	0.2334452
907.295	0.23346075
907.466	0.23329891
907.637	0.23298039
907.808	0.23243402
907.98	0.23206046
908.151	0.23141131
908.322	0.2312212
908.493	0.23077482
908.665	0.23049244
908.836	0.23030963
909.007	0.23007346
909.178	0.22976468
909.349	0.22967274
909.52	0.22954014
909.691	0.22927849
909.862	0.22907197
910.033	0.22871938
910.204	0.2286207
910.375	0.22851658
910.546	0.22830554
910.717	0.22777149
910.888	0.22761935
911.059	0.22722174
911.23	0.22692355
911.401	0.22662742
911.572	0.22640082
911.742	0.2261671
911.913	0.22613728
912.084	0.22598672
912.255	0.22597671
912.426	0.22586876
912.596	0.22551357
912.767	0.22538419
912.938	0.22517079
913.108	0.22510059
913.279	0.22485569
913.45	0.22456846
913.62	0.22460063
913.791	0.22459168
913.962	0.22431906
914.132	0.22398278
914.303	0.22349455
914.473	0.22329073
914.644	0.22285427
914.814	0.22228579
914.985	0.22188256
915.155	0.22142117
915.326	0.22103813
915.496	0.22057077
915.666	0.22009227
915.837	0.21993424
916.007	0.21948013
916.177	0.21909187
916.348	0.2188245
916.518	0.21853824
916.688	0.21845655
916.858	0.2183363
917.029	0.21806194
917.199	0.21806652
917.369	0.21811175
917.539	0.2181904
917.709	0.21822637
917.88	0.21799307
918.05	0.21747335
918.22	0.21715719
918.39	0.21685098
918.56	0.21650704
918.73	0.21618184
918.9	0.21586273
919.07	0.21571837
919.24	0.2157525
919.41	0.21571131
919.58	0.21541677
919.75	0.21524521
919.92	0.21492837
920.09	0.21472054
920.26	0.21453557
920.429	0.21447421
920.599	0.21408529
920.769	0.21395644
920.939	0.21352973
921.109	0.21319147
921.278	0.21287021
921.448	0.21236331
921.618	0.21178089
921.787	0.21146962
921.957	0.21112832
922.127	0.21069887
922.296	0.21055302
922.466	0.21021402
922.636	0.21004515
922.805	0.20977536
922.975	0.20925424
923.144	0.20869344
923.314	0.20828236
923.483	0.20753991
923.653	0.20682772
923.822	0.20615513
923.992	0.20564823
924.161	0.20552961
924.331	0.2052329
924.5	0.2050525
924.669	0.20508148
924.839	0.20509466
925.008	0.20497609
925.177	0.2047787
925.347	0.20444684
925.516	0.20429737
925.685	0.20403042
925.854	0.20373529
926.023	0.20362936
926.193	0.20369326
926.362	0.20357265
926.531	0.20334361
926.7	0.20321452
926.869	0.20319788
927.038	0.20286825
927.207	0.20255023
927.376	0.20195782
927.545	0.20154766
927.715	0.20117704
927.884	0.20083833
928.052	0.20063496
928.221	0.20028894
928.39	0.20004212
928.559	0.19981496
928.728	0.19972607
928.897	0.19978922
929.066	0.19961605
929.235	0.19918567
929.404	0.19910452
929.572	0.19887164
929.741	0.19886209
929.91	0.19852444
930.079	0.1980537
930.247	0.1978712
930.416	0.19783351
930.585	0.19745294
930.753	0.19725868
930.922	0.19703038
931.091	0.19703287
931.259	0.19694224
931.428	0.19683449
931.596	0.19666204
931.765	0.19699207
931.934	0.19686904
932.102	0.19656329
932.27	0.19635453
932.439	0.19617902
932.607	0.19583269
932.776	0.19560216
932.944	0.19481355
933.113	0.19438964
933.281	0.19399324
933.449	0.19327669
933.618	0.1928651
933.786	0.19260771
933.954	0.19207314
934.123	0.19181944
934.291	0.19154821
934.459	0.19137267
934.627	0.191376
934.795	0.19115781
934.964	0.19081197
935.132	0.19048705
935.3	0.19021429
935.468	0.18987246
935.636	0.18969701
935.804	0.189195
935.972	0.188874
936.14	0.18848853
936.308	0.18833322
936.476	0.18854027
936.644	0.18839381
936.812	0.18812777
936.98	0.18831328
937.148	0.18813822
937.316	0.18786047
937.484	0.18792833
937.652	0.18742341
937.82	0.18751761
937.987	0.18731765
938.155	0.18701917
938.323	0.18698082
938.491	0.18662363
938.658	0.18660536
938.826	0.18627537
938.994	0.1860583
939.162	0.18586642
939.329	0.18584526
939.497	0.18608992
939.665	0.18631471
939.832	0.18632808
940	0.18615827
940.167	0.18620204
940.335	0.18557501
940.502	0.18484224
940.67	0.18459106
940.837	0.18456157
941.005	0.18362111
941.172	0.18444396
941.34	0.18421965
941.507	0.18542673
941.674	0.18606602
941.842	0.18547179
942.009	0.18621268
942.177	0.18554242
942.344	0.18544707
942.511	0.18497236
942.678	0.18515506
942.846	0.18458016
943.013	0.18522512
943.18	0.18454654
943.347	0.18591571
943.514	0.18505657
943.682	0.18626957
943.849	0.18501541
944.016	0.18401176
944.183	0.18412379
944.35	0.18392598
944.517	0.18393821
944.684	0.1838587
944.851	0.18066489
945.018	0.17984649
945.185	0.17995081
945.352	0.17890489
945.519	0.17822351
945.686	0.17671762
945.853	0.17741146
946.02	0.17774171
946.187	0.17733556
946.353	0.17822944
946.52	0.17699582
946.687	0.17625188
946.854	0.17610592
947.021	0.17453649
947.187	0.17460644
947.354	0.17377866
947.521	0.17323162
947.687	0.17323334
947.854	0.17285051
948.021	0.17206054
948.187	0.17195267
948.354	0.17135306
948.52	0.17162057
948.687	0.17169493
948.854	0.17198182
949.02	0.17157056
949.187	0.17153168
949.353	0.17136969
949.52	0.17018435
949.686	0.16985202
949.852	0.16966781
950.019	0.16912614
950.185	0.16868523
950.352	0.16837724
950.518	0.16685948
950.684	0.16750493
950.851	0.16737105
951.017	0.16567207
951.183	0.16503041
951.349	0.16467126
951.516	0.16362705
951.682	0.16429759
951.848	0.16305927
952.014	0.16179498
952.18	0.16179222
952.346	0.16108276
952.512	0.16077217
952.679	0.16108882
952.845	0.16047005
953.011	0.16027326
953.177	0.1603092
953.343	0.15926444
953.509	0.15929892
953.675	0.15834377
953.841	0.1576037
954.007	0.15758613
954.172	0.15745025
954.338	0.15682588
954.504	0.15657052
954.67	0.15552422
954.836	0.15593817
955.002	0.15548606
955.167	0.15452294
955.333	0.15374567
955.499	0.15303718
955.665	0.1526237
955.83	0.15245268
955.996	0.15117664
956.162	0.15051434
956.327	0.15007832
956.493	0.14963134
956.659	0.15000558
956.824	0.14979557
956.99	0.14956529
957.155	0.14981781
957.321	0.14974287
957.486	0.14920774
957.652	0.14873288
957.817	0.14836389
957.983	0.14793377
958.148	0.14781628
958.314	0.14743819
958.479	0.14691371
958.644	0.14685901
958.81	0.14700942
958.975	0.14644679
959.14	0.14651017
959.306	0.14606611
959.471	0.1457147
959.636	0.1455992
959.801	0.14595933
959.967	0.14608653
960.132	0.14617462
960.297	0.14604521
960.462	0.14609459
960.627	0.14622642
960.792	0.14571424
960.957	0.14523184
961.123	0.14517029
961.288	0.14486413
961.453	0.14472462
961.618	0.1445632
961.783	0.144399
961.948	0.14458142
962.113	0.14397755
962.277	0.14314664
962.442	0.1429681
962.607	0.14264451
962.772	0.14221768
962.937	0.14127807
963.102	0.14074978
963.267	0.1405191
963.431	0.14020566
963.596	0.13988936
963.761	0.13935729
963.926	0.13896647
964.09	0.13902999
964.255	0.13898423
964.42	0.13875306
964.584	0.13878513
964.749	0.13805996
964.914	0.13765377
965.078	0.13721406
965.243	0.13686003
965.407	0.13644762
965.572	0.13621951
965.736	0.13616174
965.901	0.1362882
966.065	0.1365222
966.23	0.13633127
966.394	0.13627004
966.559	0.13590818
966.723	0.13576564
966.887	0.13547266
967.052	0.13506583
967.216	0.13437806
967.38	0.13369064
967.545	0.13344578
967.709	0.13369036
967.873	0.13365552
968.037	0.13333246
968.202	0.13349555
968.366	0.13379498
968.53	0.13436017
968.694	0.13407982
968.858	0.13374744
969.022	0.133178
969.187	0.13278755
969.351	0.13252825
969.515	0.13213291
969.679	0.1317061
969.843	0.13146851
970.007	0.13112201
970.171	0.13100263
970.335	0.13090822
970.499	0.13051699
970.662	0.13050889
970.826	0.13066393
970.99	0.13090924
971.154	0.13112534
971.318	0.13101993
971.482	0.13072533
971.645	0.13074242
971.809	0.13018863
971.973	0.12954817
972.137	0.12877254
972.3	0.12822858
972.464	0.12803625
972.628	0.12787712
972.791	0.12777806
972.955	0.12784564
973.119	0.12760878
973.282	0.12769163
973.446	0.12713608
973.609	0.12663884
973.773	0.12633708
973.936	0.12548308
974.1	0.12487209
974.263	0.12439125
974.427	0.12392547
974.59	0.12345474
974.754	0.12305287
974.917	0.12286336
975.08	0.1227342
975.244	0.1225231
975.407	0.12232188
975.57	0.12200136
975.734	0.12188541
975.897	0.12187915
976.06	0.121388
976.223	0.12124468
976.387	0.12116503
976.55	0.12115574
976.713	0.12092426
976.876	0.12095006
977.039	0.12057141
977.202	0.12034531
977.365	0.12019495
977.528	0.11985527
977.692	0.11949159
977.855	0.11916182
978.018	0.1187586
978.181	0.11854977
978.344	0.11838328
978.506	0.11800893
978.669	0.11770735
978.832	0.1172246
978.995	0.11688597
979.158	0.1168414
979.321	0.11659528
979.484	0.11650551
979.646	0.1162236
979.809	0.11646508
979.972	0.11640126
980.135	0.11657475
980.297	0.1162649
980.46	0.1164383
980.623	0.11627745
980.786	0.1160612
980.948	0.11553618
981.111	0.11560573
981.273	0.1153548
981.436	0.11525591
981.599	0.114886
981.761	0.11447333
981.924	0.11492528
982.086	0.11461605
982.249	0.11441577
982.411	0.11394385
982.573	0.11382926
982.736	0.11390823
982.898	0.1136419
983.061	0.11295495
983.223	0.11238713
983.385	0.11206924
983.548	0.11251265
983.71	0.11214223
983.872	0.11169391
984.034	0.11195395
984.197	0.11146372
984.359	0.11195154
984.521	0.11172395
984.683	0.1113754
984.845	0.11137019
985.008	0.11093224
985.17	0.11075317
985.332	0.11104482
985.494	0.11017751
985.656	0.11015015
985.818	0.10971371
985.98	0.1094714
986.142	0.10905991
986.304	0.10853378
986.466	0.10786513
986.628	0.10788278
986.79	0.10761907
986.952	0.1071354
987.113	0.10687316
987.275	0.10684728
987.437	0.10657086
987.599	0.10651677
987.761	0.10618172
987.922	0.105436
988.084	0.1056774
988.246	0.10540152
988.408	0.10540296
988.569	0.10529354
988.731	0.10541819
988.893	0.10542209
989.054	0.10609661
989.216	0.10573058
989.377	0.10557414
989.539	0.10526356
989.701	0.10504526
989.862	0.10466823
990.024	0.10461645
990.185	0.10410051
990.347	0.10405428
990.508	0.1037776
990.669	0.10391206
990.831	0.10401552
990.992	0.10415746
991.154	0.10365626
991.315	0.10383967
991.476	0.10336025
991.638	0.10332255
991.799	0.1030008
991.96	0.10321793
992.121	0.10309174
992.283	0.10298633
992.444	0.10237816
992.605	0.10230696
992.766	0.10195644
992.927	0.10166523
993.088	0.10100332
993.249	0.10059917
993.41	0.10021038
993.572	0.10029313
993.733	0.10037694
993.894	0.10026036
994.055	0.09938193
994.216	0.09902673
994.376	0.09799985
994.537	0.09851558
994.698	0.09800718
994.859	0.09725817
995.02	0.09700941
995.181	0.09696499
995.342	0.09669078
995.503	0.09688543
995.663	0.09600649
995.824	0.09594385
995.985	0.09664578
996.146	0.09669539
996.306	0.09697996
996.467	0.09698736
996.628	0.09735345
996.788	0.09770448
996.949	0.09746122
997.11	0.09664873
997.27	0.09595373
997.431	0.09557794
997.591	0.09483665
997.752	0.09359873
997.912	0.09330507
998.073	0.09287387
998.233	0.09294878
998.394	0.09332188
998.554	0.09347718
998.714	0.09391714
998.875	0.09422757
999.035	0.09348629
999.196	0.0933805
999.356	0.09323399
999.516	0.09255636
999.676	0.09229247
999.837	0.09182406
999.997	0.09112037
1000.157	0.09107462
1000.317	0.09017938
1000.477	0.08954476
1000.638	0.08939584
1000.798	0.08948752
1000.958	0.0896127
1001.118	0.08987375
1001.278	0.08982306
1001.438	0.09051014
1001.598	0.09074758
1001.758	0.0907509
1001.918	0.09047682
1002.078	0.08978689
1002.238	0.09021485
1002.398	0.09080316
1002.558	0.09049688
1002.718	0.09063861
1002.878	0.09084877
1003.037	0.08977583
1003.197	0.09037887
1003.357	0.08977508
1003.517	0.08966091
1003.677	0.08931732
1003.836	0.08806786
1003.996	0.08783372
1004.156	0.08844411
1004.315	0.08767986
1004.475	0.08773296
1004.635	0.08729058
1004.794	0.08697219
1004.954	0.08738079
1005.114	0.08659021
1005.273	0.08666535
1005.433	0.08638269
1005.592	0.08598456
1005.752	0.08535766
1005.911	0.08564914
1006.071	0.08543611
1006.23	0.08531679
1006.389	0.08500388
1006.549	0.08517015
1006.708	0.08549475
1006.868	0.08526222
1007.027	0.08552545
1007.186	0.08551549
1007.345	0.08587704
1007.505	0.0851188
1007.664	0.08503669
1007.823	0.08452713
1007.982	0.08435324
1008.142	0.08410887
1008.301	0.08432304
1008.46	0.08397973
1008.619	0.08418122
1008.778	0.08436535
1008.937	0.08495439
1009.096	0.08481436
1009.255	0.08449901
1009.414	0.08387929
1009.573	0.08388534
1009.732	0.08458967
1009.891	0.0836931
1010.05	0.08329473
1010.209	0.08363069
1010.368	0.08298404
1010.527	0.08335116
1010.686	0.08348511
1010.845	0.08239429
1011.003	0.08312945
1011.162	0.08318815
1011.321	0.08316523
1011.48	0.08430242
1011.638	0.08441378
1011.797	0.08487489
1011.956	0.08489273
1012.115	0.08524098
1012.273	0.08451257
1012.432	0.08393244
1012.59	0.08321539
1012.749	0.0823145
1012.908	0.08155725
1013.066	0.08134497
1013.225	0.08043987
1013.383	0.08037839
1013.542	0.08032149
1013.7	0.07971823
1013.859	0.08090211
1014.017	0.08111129
1014.175	0.08043315
1014.334	0.08084471
1014.492	0.08039189
1014.65	0.08068835
1014.809	0.08116851
1014.967	0.07983602
1015.125	0.07875487
1015.284	0.08065538
1015.442	0.07940243
1015.6	0.08026066
1015.758	0.07964045
1015.916	0.0796018
1016.075	0.08004685
1016.233	0.08101938
1016.391	0.07972076
1016.549	0.0800067
1016.707	0.07966735
1016.865	0.0805851
1017.023	0.08071143
1017.181	0.08028561
1017.339	0.07912547
1017.497	0.07980772
1017.655	0.0800545
1017.813	0.08092227
1017.971	0.08057364
1018.129	0.08033788
1018.286	0.08046663
1018.444	0.08034652
1018.602	0.08073216
1018.76	0.08113664
1018.918	0.08136495
1019.075	0.0807191
1019.233	0.08059741
1019.391	0.07999825
1019.549	0.08099788
1019.706	0.08096224
1019.864	0.08099067
1020.022	0.08059317
1020.179	0.08200485
1020.337	0.08299447
1020.494	0.08361198
1020.652	0.08277654
1020.809	0.08243646
1020.967	0.0818553
1021.124	0.08212208
1021.282	0.08140318
1021.439	0.08098409
1021.597	0.08041281
1021.754	0.08087889
1021.911	0.08173374
1022.069	0.08100668
1022.226	0.07864403
1022.384	0.07731588
1022.541	0.07549297
1022.698	0.07639635
1022.855	0.07661544
1023.013	0.07548498
1023.17	0.07583044
1023.327	0.07875777
1023.484	0.07996056
1023.641	0.08184339
1023.798	0.08189127
1023.956	0.08295504
1024.113	0.0825177
1024.27	0.08143331
1024.427	0.07835203
1024.584	0.07875854
1024.741	0.0787849
1024.898	0.0766134
1025.055	0.07573868
1025.212	0.07499238
1025.369	0.07523271
1025.525	0.0768451
1025.682	0.07646038
1025.839	0.07640175
1025.996	0.07909531
1026.153	0.0792249
1026.31	0.08034194
1026.466	0.08098025
1026.623	0.08238709
1026.78	0.08307093
1026.937	0.08301489
1027.093	0.08223897
1027.25	0.08275886
1027.407	0.08352464
1027.563	0.08685413
1027.72	0.08411892
1027.876	0.08217317
1028.033	0.08251095
1028.19	0.08230184
1028.346	0.07881236
1028.503	0.07781712
1028.659	0.075782
1028.816	0.07647948
1028.972	0.07993294
1029.128	0.08037859
1029.285	0.07855369
1029.441	0.08187738
1029.598	0.08260472
1029.754	0.08358924
1029.91	0.08312668
1030.067	0.08122563
1030.223	0.08146195
1030.379	0.08201339
1030.535	0.08341309
1030.691	0.08306041
1030.848	0.08260474
1031.004	0.08272439
1031.16	0.08381285
1031.316	0.08507999
1031.472	0.08763913
1031.628	0.08537119
1031.784	0.08537415
1031.94	0.08616887
1032.096	0.08824847
1032.252	0.08772478
1032.408	0.08485434
1032.564	0.08424602
1032.72	0.08756662
1032.876	0.08765299
1033.032	0.08529646
1033.188	0.08383461
1033.344	0.08372975
1033.5	0.08453659
1033.655	0.08529197
1033.811	0.0830226
1033.967	0.08328803
