Data from 0_1_mm_pl_0pc_Absorbance__0__18-05-04-262.txt Node

Date: Wed Mar 01 18:05:04 CET 2023
User: Ange
Spectrometer: FLMT08341
Trigger mode: 0
Integration Time (sec): 1.000000E-2
Scans to average: 400
Electric dark correction enabled: true
Nonlinearity correction enabled: false
Boxcar width: 3
XAxis mode: Wavelengths
Number of Pixels in Spectrum: 3648
>>>>>Begin Spectral Data<<<<<
345.271	-0.00348499
345.487	-0.01488409
345.704	-0.01132848
345.921	0.0087529
346.137	0.0103297
346.354	0.03350021
346.571	0.03204714
346.787	0.04963734
347.004	-0.17408449
347.22	-0.06297465
347.437	0.12413135
347.653	0.2073916
347.87	-0.49983245
348.086	-0
348.303	-0
348.519	0.03175978
348.736	0.0562732
348.952	0.05584331
349.169	0.05777881
349.385	0.06427583
349.601	0.06308974
349.818	0.0632793
350.034	0.06299665
350.251	0.06187754
350.467	0.0640064
350.683	0.06331974
350.9	0.06367637
351.116	0.06379896
351.332	0.06423119
351.549	0.06454544
351.765	0.06647607
351.981	0.06669411
352.197	0.0699392
352.414	0.0710487
352.63	0.07464822
352.846	0.07540325
353.062	0.07500924
353.278	0.07529835
353.495	0.07718041
353.711	0.07724685
353.927	0.07785587
354.143	0.07653936
354.359	0.07592585
354.575	0.0775999
354.792	0.07791918
355.008	0.07723695
355.224	0.07579777
355.44	0.07516297
355.656	0.07640037
355.872	0.07837241
356.088	0.08242003
356.304	0.08375546
356.52	0.08432242
356.736	0.08667128
356.952	0.08762732
357.168	0.087392
357.384	0.08761191
357.6	0.08403351
357.816	0.08393474
358.032	0.08563109
358.248	0.0849736
358.464	0.08679849
358.679	0.08785599
358.895	0.08948482
359.111	0.09085468
359.327	0.09010615
359.543	0.09059816
359.759	0.09317586
359.974	0.09332323
360.19	0.09400294
360.406	0.09495817
360.622	0.09562684
360.838	0.09656445
361.053	0.09700594
361.269	0.09749344
361.485	0.09696216
361.701	0.09848287
361.916	0.09719863
362.132	0.09800935
362.348	0.09876898
362.563	0.09845718
362.779	0.0991868
362.995	0.09976814
363.21	0.10001022
363.426	0.10085645
363.641	0.10250683
363.857	0.10386414
364.073	0.10465373
364.288	0.10358258
364.504	0.10593916
364.719	0.10763887
364.935	0.10896472
365.15	0.10858643
365.366	0.10931901
365.581	0.11071671
365.797	0.111998
366.012	0.11094454
366.228	0.10877638
366.443	0.10904481
366.658	0.10941348
366.874	0.10816424
367.089	0.1084283
367.305	0.10967609
367.52	0.11123405
367.735	0.11221538
367.951	0.11211418
368.166	0.11315264
368.381	0.1152846
368.597	0.1155148
368.812	0.11565112
369.027	0.11568572
369.243	0.11726242
369.458	0.11922044
369.673	0.11950452
369.888	0.12037576
370.104	0.12132287
370.319	0.12193587
370.534	0.12150145
370.749	0.12097364
370.964	0.12182824
371.179	0.12182699
371.395	0.12140313
371.61	0.12172975
371.825	0.12110932
372.04	0.12255984
372.255	0.12267613
372.47	0.12212895
372.685	0.12218715
372.9	0.12226304
373.115	0.12250507
373.33	0.12339161
373.545	0.12305738
373.76	0.12467068
373.975	0.12437932
374.19	0.12448865
374.405	0.12569911
374.62	0.12678509
374.835	0.12878668
375.05	0.1290608
375.265	0.1295966
375.48	0.13181179
375.695	0.134254
375.91	0.13373261
376.125	0.13363163
376.339	0.13223864
376.554	0.13383976
376.769	0.132901
376.984	0.13271058
377.199	0.13306504
377.414	0.13353054
377.628	0.13492063
377.843	0.13662271
378.058	0.13712318
378.273	0.13856932
378.487	0.13876631
378.702	0.13923502
378.917	0.1400336
379.131	0.13903318
379.346	0.1382682
379.561	0.13768198
379.775	0.13798941
379.99	0.13791715
380.205	0.13733563
380.419	0.13703592
380.634	0.13719588
380.848	0.13883282
381.063	0.1396905
381.278	0.14142202
381.492	0.14132294
381.707	0.14240096
381.921	0.14313795
382.136	0.14468767
382.35	0.14398489
382.565	0.14392351
382.779	0.143742
382.994	0.14469845
383.208	0.14459219
383.422	0.14614404
383.637	0.14652651
383.851	0.14809542
384.066	0.14945563
384.28	0.15047481
384.494	0.15095895
384.709	0.1525646
384.923	0.15268779
385.137	0.15259329
385.352	0.15307124
385.566	0.15330496
385.78	0.15323783
385.995	0.15327005
386.209	0.15269581
386.423	0.15306503
386.637	0.15334808
386.852	0.15265775
387.066	0.15325608
387.28	0.15300376
387.494	0.15462047
387.708	0.15533908
387.923	0.15563897
388.137	0.15717756
388.351	0.15755227
388.565	0.15805417
388.779	0.15936249
388.993	0.16030922
389.207	0.16057127
389.421	0.16120514
389.635	0.16068473
389.85	0.16148064
390.064	0.16165227
390.278	0.1619458
390.492	0.16207853
390.706	0.1629069
390.92	0.16284987
391.134	0.16402824
391.348	0.16467042
391.561	0.16488514
391.775	0.16473905
391.989	0.16394601
392.203	0.16468718
392.417	0.16592824
392.631	0.16668485
392.845	0.16694075
393.059	0.16783121
393.273	0.16779568
393.486	0.16771241
393.7	0.16726051
393.914	0.16793715
394.128	0.16768432
394.342	0.16793988
394.555	0.16782893
394.769	0.16866169
394.983	0.16972567
395.197	0.17028067
395.41	0.16977949
395.624	0.1701362
395.838	0.17000413
396.051	0.1705237
396.265	0.16979961
396.479	0.17020648
396.692	0.17029914
396.906	0.17076185
397.12	0.17094262
397.333	0.1719854
397.547	0.17221195
397.76	0.17379408
397.974	0.17411462
398.187	0.17437475
398.401	0.17468314
398.614	0.17516059
398.828	0.17505008
399.041	0.17532456
399.255	0.17520158
399.468	0.17560719
399.682	0.17592254
399.895	0.17617252
400.109	0.17614777
400.322	0.17641037
400.536	0.17585186
400.749	0.1763713
400.962	0.17605299
401.176	0.17607527
401.389	0.17622551
401.602	0.17574525
401.816	0.17608214
402.029	0.17699225
402.242	0.17714707
402.456	0.17723943
402.669	0.17718834
402.882	0.17686077
403.095	0.17769292
403.309	0.17776463
403.522	0.17789931
403.735	0.17728515
403.948	0.177765
404.161	0.1789172
404.375	0.17899433
404.588	0.17858463
404.801	0.17824118
405.014	0.17805327
405.227	0.17891257
405.44	0.17901264
405.653	0.17873097
405.866	0.1788438
406.079	0.17887466
406.293	0.17919642
406.506	0.17933341
406.719	0.17879254
406.932	0.1783439
407.145	0.17810376
407.358	0.17867405
407.571	0.17856005
407.784	0.17861178
407.996	0.17894076
408.209	0.17882234
408.422	0.17847657
408.635	0.17833497
408.848	0.17814749
409.061	0.17780019
409.274	0.1777016
409.487	0.1772141
409.7	0.17725042
409.912	0.17790541
410.125	0.1778033
410.338	0.17750154
410.551	0.17757757
410.764	0.1775096
410.976	0.17708104
411.189	0.17672196
411.402	0.17639173
411.615	0.17655664
411.827	0.17685036
412.04	0.17710606
412.253	0.17678182
412.465	0.17659866
412.678	0.17683192
412.891	0.17678802
413.103	0.1760598
413.316	0.17546378
413.529	0.17535548
413.741	0.17571611
413.954	0.17587589
414.166	0.17549881
414.379	0.17502719
414.591	0.17521242
414.804	0.17476313
415.016	0.17426819
415.229	0.17337442
415.441	0.17285885
415.654	0.17299488
415.866	0.17298777
416.079	0.17272007
416.291	0.17233876
416.504	0.17254334
416.716	0.17264715
416.928	0.17250018
417.141	0.17179445
417.353	0.17147393
417.566	0.1708331
417.778	0.17066426
417.99	0.16972661
418.203	0.16920801
418.415	0.16898539
418.627	0.1688726
418.839	0.16868417
419.052	0.16894031
419.264	0.16885234
419.476	0.16892214
419.688	0.16874979
419.901	0.16846418
420.113	0.16824796
420.325	0.167919
420.537	0.16708954
420.749	0.16687518
420.961	0.16643664
421.174	0.16571558
421.386	0.16519035
421.598	0.16453444
421.81	0.16369123
422.022	0.16338665
422.234	0.16300017
422.446	0.16245169
422.658	0.16220464
422.87	0.16166563
423.082	0.16114278
423.294	0.16092333
423.506	0.16062856
423.718	0.15983575
423.93	0.15939293
424.142	0.15870332
424.354	0.15787695
424.566	0.15756227
424.778	0.1571009
424.99	0.1565951
425.202	0.15616668
425.414	0.15577491
425.625	0.15554204
425.837	0.15563467
426.049	0.15517433
426.261	0.15451758
426.473	0.15385326
426.684	0.15339053
426.896	0.1527282
427.108	0.15198836
427.32	0.15129981
427.531	0.1505063
427.743	0.15008339
427.955	0.14980214
428.167	0.14913866
428.378	0.14856137
428.59	0.14808207
428.802	0.14757104
429.013	0.1471844
429.225	0.14645559
429.436	0.14570818
429.648	0.14523629
429.86	0.14498504
430.071	0.14455103
430.283	0.14391064
430.494	0.14321024
430.706	0.1427306
430.917	0.14206254
431.129	0.1415983
431.34	0.14049417
431.552	0.13995546
431.763	0.13926338
431.975	0.13895373
432.186	0.13834469
432.398	0.13750667
432.609	0.1364621
432.821	0.13632701
433.032	0.13562734
433.243	0.13496996
433.455	0.13418409
433.666	0.1335376
433.877	0.13327374
434.089	0.1328045
434.3	0.1320117
434.511	0.1313494
434.723	0.13078091
434.934	0.13028501
435.145	0.12975145
435.356	0.12887545
435.568	0.12830827
435.779	0.12774722
435.99	0.12690021
436.201	0.12618079
436.412	0.12513478
436.624	0.12449891
436.835	0.12404168
437.046	0.12356277
437.257	0.12279052
437.468	0.12257306
437.679	0.1221568
437.89	0.12177495
438.101	0.12104824
438.312	0.12047337
438.523	0.11971464
438.734	0.11932296
438.945	0.11852177
439.156	0.11766131
439.367	0.11710475
439.578	0.11658713
439.789	0.11579982
440	0.11537051
440.211	0.11444529
440.422	0.11363298
440.633	0.11331844
440.844	0.11238019
441.055	0.11167659
441.266	0.11110571
441.477	0.11019446
441.687	0.10972614
441.898	0.10913892
442.109	0.10819422
442.32	0.10761646
442.531	0.10683829
442.741	0.10596745
442.952	0.10530515
443.163	0.10450317
443.374	0.10388236
443.584	0.10329508
443.795	0.10259222
444.006	0.10193489
444.216	0.10135632
444.427	0.1005782
444.638	0.09982029
444.848	0.09909354
445.059	0.09828395
445.27	0.09739597
445.48	0.09668641
445.691	0.0960443
445.901	0.09534428
446.112	0.09458287
446.323	0.0938411
446.533	0.09311296
446.744	0.09248608
446.954	0.09169095
447.165	0.09091895
447.375	0.09032536
447.586	0.08972461
447.796	0.08897602
448.006	0.08846965
448.217	0.08802187
448.427	0.0875627
448.638	0.08689068
448.848	0.08609963
449.058	0.08555684
449.269	0.08495839
449.479	0.08434106
449.689	0.08344502
449.9	0.08271544
450.11	0.08199875
450.32	0.08161876
450.531	0.08097982
450.741	0.08030841
450.951	0.07957701
451.161	0.07906987
451.372	0.07839994
451.582	0.0780727
451.792	0.07722391
452.002	0.07661207
452.212	0.0760924
452.422	0.07546015
452.633	0.07490809
452.843	0.07430196
453.053	0.07337026
453.263	0.07291297
453.473	0.07230241
453.683	0.07170457
453.893	0.07117507
454.103	0.07057371
454.313	0.07014193
454.523	0.06969265
454.733	0.06907903
454.943	0.06838916
455.153	0.06791274
455.363	0.06740888
455.573	0.06681491
455.783	0.06624116
455.993	0.06563348
456.203	0.06506968
456.413	0.06448538
456.623	0.06400772
456.833	0.06345632
457.042	0.06309183
457.252	0.06252491
457.462	0.06205444
457.672	0.06154621
457.882	0.06113978
458.091	0.06057493
458.301	0.05996081
458.511	0.05944921
458.721	0.05891203
458.931	0.05839547
459.14	0.05802347
459.35	0.05769008
459.56	0.05718481
459.769	0.0568234
459.979	0.05624775
460.189	0.05592014
460.398	0.05556134
460.608	0.05514107
460.817	0.05458847
461.027	0.05417411
461.237	0.05379059
461.446	0.05336994
461.656	0.05290349
461.865	0.05240266
462.075	0.05194992
462.284	0.05149623
462.494	0.0510345
462.703	0.05043991
462.913	0.05010773
463.122	0.04960257
463.332	0.04924016
463.541	0.04893074
463.751	0.04862897
463.96	0.04825501
464.169	0.04797266
464.379	0.0475531
464.588	0.04727754
464.797	0.04693098
465.007	0.04643869
465.216	0.04602946
465.425	0.04567431
465.635	0.04534276
465.844	0.04499218
466.053	0.04451689
466.263	0.04422007
466.472	0.04395629
466.681	0.04368989
466.89	0.04332407
467.099	0.04305334
467.309	0.04269515
467.518	0.04253717
467.727	0.04199696
467.936	0.04151761
468.145	0.0411666
468.354	0.04088947
468.563	0.04043331
468.772	0.04005071
468.982	0.03975393
469.191	0.03967128
469.4	0.03946853
469.609	0.03922765
469.818	0.03898614
470.027	0.03876299
470.236	0.03858672
470.445	0.03827476
470.654	0.03788795
470.863	0.03754433
471.072	0.03723653
471.28	0.03686509
471.489	0.03659118
471.698	0.03632922
471.907	0.03607044
472.116	0.03588008
472.325	0.03567316
472.534	0.03539097
472.743	0.03519616
472.951	0.03492558
473.16	0.03474318
473.369	0.03451903
473.578	0.0342735
473.786	0.03405551
473.995	0.03385684
474.204	0.03368242
474.413	0.03354955
474.621	0.03326925
474.83	0.03308062
475.039	0.03286474
475.247	0.03269014
475.456	0.03248422
475.665	0.03233468
475.873	0.03212013
476.082	0.03197564
476.291	0.03175704
476.499	0.03166039
476.708	0.03145316
476.916	0.03133083
477.125	0.03111197
477.333	0.03094982
477.542	0.03081273
477.75	0.03065785
477.959	0.03047877
478.167	0.03034952
478.376	0.03012978
478.584	0.03003626
478.793	0.02988992
479.001	0.02974184
479.209	0.02962275
479.418	0.02946813
479.626	0.0292867
479.834	0.02910361
480.043	0.02890229
480.251	0.0287206
480.459	0.02851561
480.668	0.02840675
480.876	0.02831494
481.084	0.02824901
481.293	0.02824469
481.501	0.02812665
481.709	0.02808116
481.917	0.02793797
482.125	0.02787329
482.334	0.02770921
482.542	0.02761737
482.75	0.02750587
482.958	0.02744061
483.166	0.02741877
483.374	0.02737008
483.583	0.02728898
483.791	0.02724353
483.999	0.02722139
484.207	0.02714454
484.415	0.02705776
484.623	0.02697319
484.831	0.02688423
485.039	0.02681229
485.247	0.02670372
485.455	0.02654249
485.663	0.02642352
485.871	0.02636954
486.079	0.02627823
486.287	0.02634912
486.495	0.02621884
486.702	0.02625948
486.91	0.02628684
487.118	0.0263032
487.326	0.02624528
487.534	0.0261151
487.742	0.02608474
487.95	0.02608337
488.157	0.02602436
488.365	0.02597032
488.573	0.02591011
488.781	0.02591207
488.988	0.02591386
489.196	0.02581919
489.404	0.02578051
489.612	0.02573699
489.819	0.02577122
490.027	0.02580143
490.235	0.0258752
490.442	0.0259348
490.65	0.02594652
490.857	0.02592957
491.065	0.02595123
491.273	0.0259495
491.48	0.02596203
491.688	0.02585363
491.895	0.02586506
492.103	0.02591875
492.31	0.02599651
492.518	0.02602041
492.725	0.0259894
492.933	0.02593691
493.14	0.02599206
493.348	0.02593853
493.555	0.02595384
493.763	0.02589272
493.97	0.02590427
494.177	0.02591662
494.385	0.0259746
494.592	0.02594678
494.8	0.02602067
495.007	0.02598508
495.214	0.02612863
495.422	0.02615197
495.629	0.02624581
495.836	0.0262582
496.043	0.02630817
496.251	0.02633822
496.458	0.02637402
496.665	0.02634377
496.872	0.02640035
497.08	0.02635191
497.287	0.02636818
497.494	0.02646636
497.701	0.02649216
497.908	0.02652246
498.115	0.0265901
498.322	0.02662739
498.53	0.02670406
498.737	0.02683762
498.944	0.02685479
499.151	0.02694834
499.358	0.02704352
499.565	0.02710753
499.772	0.02716203
499.979	0.02725332
500.186	0.02733268
500.393	0.02739211
500.6	0.02743062
500.807	0.02756511
501.014	0.02762764
501.221	0.0277325
501.427	0.02781339
501.634	0.02788638
501.841	0.02797817
502.048	0.02808763
502.255	0.02808018
502.462	0.02819021
502.669	0.02821138
502.875	0.02830841
503.082	0.02829386
503.289	0.02835458
503.496	0.02840795
503.702	0.02850078
503.909	0.02852243
504.116	0.02864964
504.323	0.02873248
504.529	0.02882773
504.736	0.0289025
504.943	0.02893454
505.149	0.02902188
505.356	0.02912886
505.563	0.02921234
505.769	0.0292651
505.976	0.02935898
506.182	0.0295264
506.389	0.02966363
506.595	0.02977201
506.802	0.02993774
507.008	0.03001697
507.215	0.0301093
507.421	0.0302469
507.628	0.03033992
507.834	0.03048371
508.041	0.03062024
508.247	0.03066234
508.454	0.0307869
508.66	0.03088099
508.866	0.0309675
509.073	0.03108031
509.279	0.03116669
509.486	0.03126389
509.692	0.03138273
509.898	0.03153563
510.105	0.03167998
510.311	0.03181555
510.517	0.0319131
510.723	0.03206506
510.93	0.03215446
511.136	0.03227745
511.342	0.03240014
511.548	0.03249429
511.754	0.03265065
511.961	0.03278019
512.167	0.03289379
512.373	0.03303267
512.579	0.03320754
512.785	0.03333655
512.991	0.03347316
513.197	0.03363761
513.404	0.03380815
513.61	0.03397784
513.816	0.03413006
514.022	0.0342772
514.228	0.03439773
514.434	0.03453345
514.64	0.03465788
514.846	0.03471989
515.052	0.034829
515.258	0.03495286
515.464	0.03506632
515.669	0.03518279
515.875	0.03533708
516.081	0.03546843
516.287	0.03567189
516.493	0.03582142
516.699	0.03593854
516.905	0.03604838
517.111	0.03621646
517.316	0.03636698
517.522	0.03650409
517.728	0.03668048
517.934	0.03683794
518.139	0.037024
518.345	0.03716574
518.551	0.03732979
518.757	0.03745131
518.962	0.03760429
519.168	0.03768162
519.374	0.03780735
519.579	0.03798073
519.785	0.03820612
519.991	0.03837229
520.196	0.03857705
520.402	0.03872136
520.607	0.03892708
520.813	0.03912782
521.018	0.03931032
521.224	0.03942995
521.429	0.03961152
521.635	0.03976914
521.84	0.03998904
522.046	0.04018597
522.251	0.04030879
522.457	0.04043919
522.662	0.04061411
522.868	0.04077152
523.073	0.04093837
523.279	0.04109944
523.484	0.04124706
523.689	0.04145916
523.895	0.04162636
524.1	0.04181588
524.305	0.0420124
524.511	0.04223703
524.716	0.04244586
524.921	0.04263521
525.126	0.04281991
525.332	0.04306052
525.537	0.04327504
525.742	0.04344251
525.947	0.04360041
526.153	0.04375932
526.358	0.04394945
526.563	0.04414953
526.768	0.04427797
526.973	0.04441091
527.178	0.04457833
527.383	0.04481177
527.588	0.04500212
527.794	0.04519473
527.999	0.04536638
528.204	0.04559264
528.409	0.04580217
528.614	0.04604498
528.819	0.04622565
529.024	0.04642842
529.229	0.04660255
529.434	0.04680674
529.639	0.04701159
529.843	0.04721662
530.048	0.0473945
530.253	0.04755236
530.458	0.04774869
530.663	0.0479316
530.868	0.04814958
531.073	0.04838127
531.278	0.04857329
531.482	0.04875451
531.687	0.04899926
531.892	0.04922027
532.097	0.04942564
532.302	0.0496349
532.506	0.0498324
532.711	0.05005333
532.916	0.05026013
533.12	0.05043
533.325	0.0505874
533.53	0.05081592
533.734	0.05098794
533.939	0.05116038
534.144	0.05135584
534.348	0.05155491
534.553	0.05172614
534.757	0.05197703
534.962	0.05221246
535.167	0.05241043
535.371	0.05267918
535.576	0.05286692
535.78	0.0530834
535.985	0.05336129
536.189	0.05358363
536.394	0.05378975
536.598	0.05401534
536.803	0.05419541
537.007	0.05448004
537.211	0.05473039
537.416	0.05493671
537.62	0.0551231
537.825	0.05533214
538.029	0.05563951
538.233	0.05584814
538.438	0.05604971
538.642	0.05625159
538.846	0.05649069
539.05	0.05670805
539.255	0.05693617
539.459	0.05710371
539.663	0.05737048
539.867	0.05758847
540.072	0.05783625
540.276	0.05809257
540.48	0.05832049
540.684	0.05855444
540.888	0.058801
541.092	0.05897393
541.297	0.05920419
541.501	0.05938564
541.705	0.05958016
541.909	0.05983183
542.113	0.06002804
542.317	0.06020503
542.521	0.06046173
542.725	0.0606642
542.929	0.0609258
543.133	0.06117227
543.337	0.06141937
543.541	0.06167646
543.745	0.06196682
543.949	0.06221073
544.153	0.06244335
544.357	0.06268286
544.56	0.06289218
544.764	0.06312832
544.968	0.06335952
545.172	0.06352867
545.376	0.06375932
545.58	0.06401818
545.783	0.06425738
545.987	0.06451274
546.191	0.06474543
546.395	0.06498674
546.598	0.06529474
546.802	0.06553955
547.006	0.0657896
547.21	0.06599988
547.413	0.06626381
547.617	0.06650632
547.821	0.06675041
548.024	0.06697611
548.228	0.06717118
548.431	0.0674186
548.635	0.06770995
548.839	0.0679059
549.042	0.06810986
549.246	0.06832283
549.449	0.06854137
549.653	0.06877262
549.856	0.06903755
550.06	0.06920608
550.263	0.06947345
550.467	0.06973225
550.67	0.07003118
550.874	0.07027512
551.077	0.07053939
551.28	0.07073786
551.484	0.07100991
551.687	0.0712348
551.891	0.0715082
552.094	0.07168169
552.297	0.07191899
552.501	0.07217449
552.704	0.07239972
552.907	0.07259396
553.11	0.07281991
553.314	0.07303375
553.517	0.07329027
553.72	0.07352393
553.923	0.07380319
554.127	0.07407843
554.33	0.07433133
554.533	0.07457415
554.736	0.07478896
554.939	0.07502917
555.142	0.07528043
555.345	0.0754478
555.549	0.07566141
555.752	0.07592165
555.955	0.07615224
556.158	0.07640279
556.361	0.07666695
556.564	0.07686025
556.767	0.0771361
556.97	0.07737838
557.173	0.07759048
557.376	0.07786854
557.579	0.07808806
557.782	0.07830649
557.984	0.07863095
558.187	0.07886399
558.39	0.07911374
558.593	0.0794102
558.796	0.07962227
558.999	0.07986421
559.202	0.0801183
559.404	0.08032178
559.607	0.08056261
559.81	0.08081909
560.013	0.08106245
560.216	0.08133627
560.418	0.08158942
560.621	0.08184127
560.824	0.0820816
561.026	0.08235223
561.229	0.0825588
561.432	0.08277466
561.634	0.0829603
561.837	0.08318333
562.04	0.08340604
562.242	0.08362227
562.445	0.08381513
562.647	0.08402491
562.85	0.08423857
563.053	0.08450502
563.255	0.08478409
563.458	0.08501551
563.66	0.08526084
563.863	0.08550221
564.065	0.08575639
564.268	0.08603473
564.47	0.08629951
564.672	0.086499
564.875	0.08672015
565.077	0.08693675
565.28	0.08716627
565.482	0.08741481
565.684	0.08762368
565.887	0.08777867
566.089	0.08801125
566.291	0.08822528
566.494	0.08846368
566.696	0.08874181
566.898	0.08894939
567.1	0.08915236
567.303	0.08943213
567.505	0.08965616
567.707	0.0898956
567.909	0.09009922
568.111	0.09031429
568.314	0.09055674
568.516	0.09080126
568.718	0.09100221
568.92	0.09123818
569.122	0.09141631
569.324	0.09162368
569.526	0.09176559
569.728	0.0920215
569.93	0.09220744
570.132	0.09240835
570.334	0.09261074
570.536	0.09284056
570.738	0.09310581
570.94	0.09334509
571.142	0.09352084
571.344	0.09375515
571.546	0.09399618
571.748	0.09426037
571.95	0.0944823
572.152	0.09468262
572.354	0.09492894
572.555	0.09512884
572.757	0.09536618
572.959	0.0955493
573.161	0.09570943
573.363	0.09591719
573.564	0.09616704
573.766	0.09636264
573.968	0.09656394
574.17	0.09674026
574.371	0.09693532
574.573	0.09714825
574.775	0.09736529
574.976	0.09753603
575.178	0.09765091
575.38	0.0978643
575.581	0.09801713
575.783	0.09820444
575.985	0.09842682
576.186	0.09862277
576.388	0.09877512
576.589	0.09902378
576.791	0.09922648
576.992	0.0995074
577.194	0.09970343
577.395	0.09981423
577.597	0.10001395
577.798	0.10022381
578	0.10039826
578.201	0.10062511
578.402	0.10074452
578.604	0.10094243
578.805	0.10119285
579.007	0.1013307
579.208	0.1015134
579.409	0.10167558
579.611	0.1018409
579.812	0.10200657
580.013	0.10222275
580.215	0.10236296
580.416	0.10255815
580.617	0.10274885
580.818	0.10299192
581.019	0.10315032
581.221	0.10334151
581.422	0.10348251
581.623	0.10368194
581.824	0.10382838
582.025	0.10399065
582.226	0.10409306
582.428	0.10424514
582.629	0.10440628
582.83	0.10459428
583.031	0.10473276
583.232	0.10492015
583.433	0.10510871
583.634	0.10528828
583.835	0.10546091
584.036	0.10560077
584.237	0.10572585
584.438	0.105858
584.639	0.10600478
584.84	0.10616009
585.041	0.10631724
585.242	0.10644928
585.442	0.1066481
585.643	0.10682562
585.844	0.10702163
586.045	0.1071743
586.246	0.10726152
586.447	0.10739182
586.647	0.10755143
586.848	0.10764827
587.049	0.10780561
587.25	0.10792371
587.45	0.10807987
587.651	0.10821668
587.852	0.1083883
588.053	0.10853223
588.253	0.10871418
588.454	0.10881465
588.655	0.10892582
588.855	0.10904025
589.056	0.10919993
589.256	0.109301
589.457	0.10941704
589.658	0.10953702
589.858	0.10966254
590.059	0.10976828
590.259	0.1098933
590.46	0.11002184
590.66	0.11011142
590.861	0.11022902
591.061	0.11033432
591.262	0.11045011
591.462	0.1106251
591.662	0.1107182
591.863	0.110821
592.063	0.11094776
592.264	0.11105019
592.464	0.11116694
592.664	0.11127137
592.865	0.11139868
593.065	0.11148602
593.265	0.11157571
593.465	0.11169356
593.666	0.11178982
593.866	0.11186245
594.066	0.11200761
594.266	0.11202829
594.467	0.11213282
594.667	0.1122366
594.867	0.11234432
595.067	0.11241006
595.267	0.11251102
595.467	0.11252104
595.668	0.11260989
595.868	0.11267994
596.068	0.11272934
596.268	0.11277355
596.468	0.11289805
596.668	0.11293166
596.868	0.11307091
597.068	0.11316409
597.268	0.11327129
597.468	0.11338364
597.668	0.11349501
597.868	0.11356827
598.068	0.11370091
598.268	0.1137419
598.467	0.11387357
598.667	0.1139139
598.867	0.11398944
599.067	0.11402514
599.267	0.11405468
599.467	0.11407316
599.667	0.11411514
599.866	0.11413732
600.066	0.11421166
600.266	0.11422243
600.466	0.11429462
600.665	0.11432372
600.865	0.11438623
601.065	0.11443534
601.264	0.11444525
601.464	0.11447176
601.664	0.11454386
601.863	0.11454287
602.063	0.11462829
602.263	0.11462643
602.462	0.11462029
602.662	0.11458689
602.861	0.11466079
603.061	0.11464672
603.26	0.11469067
603.46	0.11464616
603.659	0.11467925
603.859	0.11469112
604.058	0.11477577
604.258	0.11474588
604.457	0.11480025
604.657	0.11477367
604.856	0.11480638
605.056	0.11486444
605.255	0.11487733
605.454	0.11491419
605.654	0.11488403
605.853	0.11483955
606.052	0.11485217
606.252	0.11487162
606.451	0.11487686
606.65	0.11495098
606.849	0.11489045
607.049	0.11494869
607.248	0.11499378
607.447	0.11501269
607.646	0.11501349
607.845	0.11499956
608.045	0.11492497
608.244	0.11496878
608.443	0.11495703
608.642	0.11499437
608.841	0.11495385
609.04	0.11489941
609.239	0.11484883
609.438	0.11479897
609.637	0.11479709
609.836	0.11474922
610.035	0.11464926
610.234	0.11468016
610.433	0.11472865
610.632	0.11471487
610.831	0.11477703
611.03	0.11470789
611.229	0.11475983
611.428	0.11475267
611.627	0.11469078
611.826	0.11466159
612.025	0.11468608
612.224	0.11462388
612.422	0.11460641
612.621	0.11455446
612.82	0.11455902
613.019	0.11457706
613.218	0.11451942
613.416	0.11443636
613.615	0.11442616
613.814	0.11441194
614.012	0.11435635
614.211	0.11425027
614.41	0.11416986
614.608	0.11411017
614.807	0.11404975
615.006	0.11402642
615.204	0.1139278
615.403	0.11384883
615.602	0.11382014
615.8	0.11380732
615.999	0.11373384
616.197	0.11367474
616.396	0.11361493
616.594	0.11352689
616.793	0.11351467
616.991	0.11345031
617.19	0.11331016
617.388	0.1133341
617.586	0.11330668
617.785	0.11320391
617.983	0.11319005
618.182	0.11309643
618.38	0.11300943
618.578	0.11297195
618.777	0.11288894
618.975	0.11280684
619.173	0.1127405
619.372	0.11264758
619.57	0.1125483
619.768	0.11253064
619.966	0.11245627
620.165	0.11232722
620.363	0.11228019
620.561	0.11213354
620.759	0.11203306
620.957	0.11200334
621.155	0.11191295
621.354	0.11183883
621.552	0.11181086
621.75	0.1116613
621.948	0.111657
622.146	0.11163175
622.344	0.11149197
622.542	0.11139006
622.74	0.11132303
622.938	0.11115553
623.136	0.11113158
623.334	0.11105108
623.532	0.11087689
623.73	0.11078314
623.928	0.11070339
624.126	0.11058138
624.324	0.11055395
624.522	0.11036236
624.719	0.11018074
624.917	0.110112
625.115	0.10998149
625.313	0.10986546
625.511	0.10981329
625.708	0.10959661
625.906	0.10952423
626.104	0.10943967
626.302	0.10940416
626.499	0.10932451
626.697	0.10920138
626.895	0.10900955
627.093	0.10893878
627.29	0.10887682
627.488	0.10881071
627.686	0.10866865
627.883	0.10851629
628.081	0.1083852
628.278	0.10837252
628.476	0.10823877
628.673	0.10806768
628.871	0.10790159
629.068	0.10773627
629.266	0.10770389
629.463	0.10752626
629.661	0.10736822
629.858	0.10723567
630.056	0.10707876
630.253	0.10694566
630.451	0.10685893
630.648	0.10666145
630.845	0.10653444
631.043	0.10636773
631.24	0.10631759
631.438	0.10624189
631.635	0.10614108
631.832	0.10594443
632.029	0.10584094
632.227	0.1057434
632.424	0.10558526
632.621	0.10539731
632.818	0.10521796
633.016	0.10510213
633.213	0.10492523
633.41	0.10477341
633.607	0.10460959
633.804	0.10447804
634.001	0.1043022
634.199	0.10419223
634.396	0.104017
634.593	0.10386677
634.79	0.10368479
634.987	0.1035799
635.184	0.10345609
635.381	0.10336185
635.578	0.10325121
635.775	0.10307734
635.972	0.10296876
636.169	0.10284748
636.366	0.10265317
636.563	0.10248213
636.76	0.10224142
636.957	0.10205095
637.153	0.10185085
637.35	0.10171389
637.547	0.10154179
637.744	0.10138203
637.941	0.10121713
638.138	0.10110854
638.334	0.10089488
638.531	0.10079022
638.728	0.1006571
638.925	0.10052664
639.121	0.10034482
639.318	0.10017721
639.515	0.10000529
639.711	0.09988421
639.908	0.09967604
640.105	0.09945694
640.301	0.09925442
640.498	0.09906813
640.695	0.0989113
640.891	0.09870633
641.088	0.09851842
641.284	0.09835166
641.481	0.09819401
641.677	0.0980259
641.874	0.09784774
642.07	0.09768203
642.267	0.09755258
642.463	0.09737107
642.66	0.09725243
642.856	0.09702074
643.053	0.09677324
643.249	0.09664328
643.445	0.09642924
643.642	0.09623371
643.838	0.0960401
644.034	0.09580616
644.231	0.09563828
644.427	0.09551869
644.623	0.09530767
644.82	0.09516174
645.016	0.09495911
645.212	0.09471981
645.408	0.09452828
645.604	0.09439292
645.801	0.09421046
645.997	0.09403937
646.193	0.09376694
646.389	0.09363444
646.585	0.09349622
646.781	0.0933174
646.977	0.09308795
647.173	0.09287317
647.37	0.09263701
647.566	0.09247233
647.762	0.09220347
647.958	0.09202685
648.154	0.09184059
648.35	0.09164367
648.546	0.09146282
648.742	0.09132564
648.937	0.09110348
649.133	0.09093308
649.329	0.09077535
649.525	0.09059727
649.721	0.09038061
649.917	0.09020961
650.113	0.08996331
650.309	0.08981627
650.504	0.08959198
650.7	0.08933961
650.896	0.08910208
651.092	0.08890245
651.287	0.08865652
651.483	0.08850115
651.679	0.08829034
651.875	0.08816745
652.07	0.08797175
652.266	0.08781939
652.462	0.08764092
652.657	0.08745797
652.853	0.0872268
653.048	0.08702205
653.244	0.08672796
653.44	0.08654707
653.635	0.08625506
653.831	0.08603762
654.026	0.08580246
654.222	0.08558411
654.417	0.08543625
654.613	0.08524792
654.808	0.08498207
655.004	0.08480531
655.199	0.08460625
655.394	0.08441068
655.59	0.08423384
655.785	0.08393973
655.98	0.08373201
656.176	0.08351137
656.371	0.08331739
656.566	0.0831156
656.762	0.08288152
656.957	0.08263768
657.152	0.08247924
657.348	0.08229054
657.543	0.08208452
657.738	0.08187619
657.933	0.08163439
658.128	0.08140838
658.324	0.08120734
658.519	0.08093399
658.714	0.08068864
658.909	0.08046421
659.104	0.08024654
659.299	0.0800577
659.494	0.07983679
659.689	0.07960904
659.884	0.07941596
660.079	0.07919186
660.274	0.07899292
660.469	0.07875555
660.664	0.07853889
660.859	0.0783621
661.054	0.07812962
661.249	0.07794147
661.444	0.07771712
661.639	0.07748524
661.834	0.07725202
662.029	0.0770512
662.224	0.07680264
662.418	0.07665641
662.613	0.07638237
662.808	0.07613017
663.003	0.07592989
663.198	0.07571262
663.392	0.07545936
663.587	0.07532737
663.782	0.07502968
663.977	0.07482544
664.171	0.07465653
664.366	0.07443196
664.561	0.07426592
664.755	0.07408169
664.95	0.0737861
665.144	0.07357069
665.339	0.07336035
665.534	0.07316034
665.728	0.07296751
665.923	0.07272365
666.117	0.07248785
666.312	0.07229253
666.506	0.07212923
666.701	0.07188462
666.895	0.07163305
667.09	0.07139902
667.284	0.07119053
667.479	0.07094919
667.673	0.07069626
667.867	0.07048339
668.062	0.07030682
668.256	0.07012408
668.45	0.06993495
668.645	0.06970234
668.839	0.06949931
669.033	0.06926055
669.228	0.06902325
669.422	0.06880996
669.616	0.06852929
669.81	0.06830912
670.004	0.06805274
670.199	0.06782989
670.393	0.06760561
670.587	0.06732768
670.781	0.06705906
670.975	0.06686611
671.169	0.06662625
671.363	0.06641745
671.558	0.06616302
671.752	0.0659538
671.946	0.06578801
672.14	0.06561453
672.334	0.06538032
672.528	0.06523429
672.722	0.0650264
672.916	0.06485015
673.11	0.06465815
673.304	0.06447374
673.497	0.06421206
673.691	0.06404916
673.885	0.06376521
674.079	0.06358635
674.273	0.06335493
674.467	0.06317967
674.661	0.06295502
674.854	0.0627947
675.048	0.06258229
675.242	0.0623294
675.436	0.06210455
675.629	0.0618953
675.823	0.06160244
676.017	0.06136837
676.211	0.06106971
676.404	0.0608248
676.598	0.06065718
676.792	0.06041901
676.985	0.06020889
677.179	0.06001514
677.372	0.05978953
677.566	0.05963819
677.76	0.05945635
677.953	0.05923488
678.147	0.05904126
678.34	0.05886319
678.534	0.05865241
678.727	0.05847207
678.921	0.0582945
679.114	0.05807294
679.307	0.05785396
679.501	0.05766531
679.694	0.0574577
679.888	0.05727609
680.081	0.05704471
680.274	0.05679325
680.468	0.05660361
680.661	0.05640243
680.854	0.05621866
681.048	0.05598912
681.241	0.05577531
681.434	0.05556578
681.627	0.05537946
681.821	0.05516556
682.014	0.05498338
682.207	0.05469209
682.4	0.05449365
682.593	0.05432013
682.786	0.05410773
682.98	0.05388298
683.173	0.05367388
683.366	0.05346066
683.559	0.05327436
683.752	0.05305844
683.945	0.05281846
684.138	0.05266228
684.331	0.0524503
684.524	0.05222561
684.717	0.05200828
684.91	0.05183842
685.103	0.05162752
685.296	0.05143235
685.489	0.051196
685.682	0.05099411
685.874	0.0507708
686.067	0.05057217
686.26	0.05035913
686.453	0.0501279
686.646	0.04991278
686.839	0.04974416
687.031	0.04953977
687.224	0.04934804
687.417	0.04916697
687.61	0.04894576
687.802	0.04876806
687.995	0.04856918
688.188	0.04835455
688.38	0.04814602
688.573	0.04800844
688.766	0.04782241
688.958	0.04765058
689.151	0.04746578
689.343	0.04735159
689.536	0.04714831
689.729	0.04696303
689.921	0.04671995
690.114	0.04645361
690.306	0.0462193
690.499	0.04606405
690.691	0.04581237
690.884	0.04561498
691.076	0.04544514
691.268	0.04527425
691.461	0.04513016
691.653	0.0450004
691.846	0.04480523
692.038	0.04459375
692.23	0.04440903
692.423	0.04417803
692.615	0.04396563
692.807	0.04377219
692.999	0.04359772
693.192	0.04339393
693.384	0.04322485
693.576	0.04299864
693.768	0.04286565
693.961	0.04266465
694.153	0.04248051
694.345	0.04227117
694.537	0.0420839
694.729	0.04191064
694.921	0.04174655
695.113	0.04157874
695.305	0.04142165
695.498	0.04124775
695.69	0.04106221
695.882	0.04085394
696.074	0.04070361
696.266	0.04056329
696.458	0.04034517
696.65	0.04015307
696.842	0.03997895
697.033	0.03981912
697.225	0.03964666
697.417	0.03941341
697.609	0.03920942
697.801	0.03904208
697.993	0.03890633
698.185	0.03875054
698.376	0.03855041
698.568	0.03838563
698.76	0.03823576
698.952	0.03806549
699.144	0.03789987
699.335	0.03768229
699.527	0.03746158
699.719	0.0372925
699.91	0.03712469
700.102	0.03693298
700.294	0.03677237
700.485	0.0365662
700.677	0.03643071
700.869	0.03627828
701.06	0.03613924
701.252	0.03597126
701.443	0.0358371
701.635	0.03564727
701.826	0.03551399
702.018	0.03535113
702.209	0.03517794
702.401	0.0349566
702.592	0.03481432
702.784	0.03462508
702.975	0.03447333
703.166	0.03435033
703.358	0.03419393
703.549	0.03406623
703.741	0.03392493
703.932	0.03375448
704.123	0.03361687
704.315	0.03345363
704.506	0.03327925
704.697	0.0331626
704.888	0.03296731
705.08	0.03283504
705.271	0.03268378
705.462	0.03247377
705.653	0.03237508
705.844	0.0321768
706.035	0.03194168
706.227	0.03181018
706.418	0.0316406
706.609	0.03148381
706.8	0.03138286
706.991	0.03115624
707.182	0.03101845
707.373	0.03089702
707.564	0.03071651
707.755	0.03056513
707.946	0.03039127
708.137	0.03024046
708.328	0.03006443
708.519	0.02994813
708.71	0.02977222
708.901	0.02963588
709.092	0.02948474
709.283	0.02933058
709.473	0.02913161
709.664	0.02905599
709.855	0.02885905
710.046	0.02873307
710.237	0.02862445
710.427	0.02851164
710.618	0.02837837
710.809	0.02825832
711	0.02812159
711.19	0.02797071
711.381	0.02788494
711.572	0.02769867
711.762	0.02752572
711.953	0.0274138
712.144	0.02732305
712.334	0.02714863
712.525	0.02703771
712.715	0.02683474
712.906	0.02671423
713.097	0.02657682
713.287	0.02646342
713.478	0.02627256
713.668	0.02613487
713.859	0.02598556
714.049	0.02586949
714.239	0.02573664
714.43	0.0256242
714.62	0.02544662
714.811	0.02529727
715.001	0.02516514
715.191	0.02504668
715.382	0.02488054
715.572	0.02474489
715.762	0.02458805
715.953	0.02444036
716.143	0.02432171
716.333	0.02420793
716.523	0.02409553
716.714	0.02399766
716.904	0.02384264
717.094	0.02370321
717.284	0.02363319
717.474	0.023554
717.664	0.02345683
717.855	0.02331158
718.045	0.02318814
718.235	0.02308283
718.425	0.0229509
718.615	0.02282128
718.805	0.02268268
718.995	0.02257454
719.185	0.02248969
719.375	0.0223954
719.565	0.02230986
719.755	0.02224098
719.945	0.02205095
720.135	0.02192023
720.325	0.02181177
720.515	0.02168606
720.704	0.02152376
720.894	0.02138724
721.084	0.02131564
721.274	0.02125611
721.464	0.0211636
721.654	0.02101919
721.843	0.02088302
722.033	0.02079527
722.223	0.02070248
722.413	0.02054078
722.602	0.02044695
722.792	0.02030768
722.982	0.02018627
723.171	0.02011838
723.361	0.02001696
723.55	0.01988539
723.74	0.01975913
723.93	0.0196363
724.119	0.01955418
724.309	0.01943001
724.498	0.01929739
724.688	0.01913842
724.877	0.0190684
725.067	0.01899333
725.256	0.01886457
725.446	0.01878132
725.635	0.01867435
725.825	0.01856911
726.014	0.01851397
726.203	0.01837359
726.393	0.0182501
726.582	0.0182016
726.771	0.01809883
726.961	0.01800149
727.15	0.01789662
727.339	0.01779157
727.529	0.01772974
727.718	0.01758903
727.907	0.01745689
728.096	0.01730687
728.286	0.01720503
728.475	0.01709248
728.664	0.01698246
728.853	0.0168239
729.042	0.01680072
729.231	0.01671435
729.42	0.01661852
729.609	0.01652504
729.799	0.01645956
729.988	0.01638152
730.177	0.01633353
730.366	0.01620861
730.555	0.01611313
730.744	0.01602945
730.933	0.01593777
731.122	0.01582062
731.31	0.01570317
731.499	0.01560644
731.688	0.01552072
731.877	0.01540769
732.066	0.01534256
732.255	0.01527261
732.444	0.01517132
732.632	0.01507234
732.821	0.01494537
733.01	0.01485473
733.199	0.01475176
733.388	0.01462672
733.576	0.01455922
733.765	0.01447758
733.954	0.01438263
734.142	0.01428788
734.331	0.01416058
734.52	0.01412983
734.708	0.01407028
734.897	0.01393008
735.086	0.01384655
735.274	0.01372144
735.463	0.01365224
735.651	0.01359214
735.84	0.01348803
736.028	0.01340085
736.217	0.01335485
736.405	0.01327026
736.594	0.01325614
736.782	0.01312578
736.971	0.01303404
737.159	0.01292824
737.347	0.01285322
737.536	0.01273088
737.724	0.01266468
737.912	0.01260351
738.101	0.0126034
738.289	0.01253585
738.477	0.01243371
738.666	0.01234234
738.854	0.01228008
739.042	0.01216162
739.23	0.01204593
739.418	0.01194173
739.607	0.01187158
739.795	0.01179546
739.983	0.01169868
740.171	0.01162456
740.359	0.01156728
740.547	0.01152643
740.735	0.01145133
740.923	0.01138572
741.112	0.01134402
741.3	0.01129653
741.488	0.01123722
741.676	0.0111884
741.864	0.0110984
742.052	0.01100656
742.239	0.01096154
742.427	0.01088081
742.615	0.01081328
742.803	0.01072961
742.991	0.01061953
743.179	0.01057049
743.367	0.0105422
743.555	0.01047151
743.742	0.01044421
743.93	0.0103703
744.118	0.010291
744.306	0.01022084
744.494	0.01011581
744.681	0.01003476
744.869	0.00992704
745.057	0.00986858
745.244	0.00980671
745.432	0.00972504
745.62	0.00969221
745.807	0.00967517
745.995	0.00961849
746.182	0.009577
746.37	0.00947844
746.558	0.0094015
746.745	0.00936332
746.933	0.00929053
747.12	0.00916649
747.308	0.00912711
747.495	0.00909524
747.683	0.00904649
747.87	0.00904397
748.057	0.00896169
748.245	0.00888478
748.432	0.0088709
748.62	0.0087937
748.807	0.00869382
748.994	0.00861899
749.182	0.00851371
749.369	0.00849715
749.556	0.00848524
749.743	0.00843091
749.931	0.00836841
750.118	0.00829584
750.305	0.00829856
750.492	0.00829502
750.68	0.00821553
750.867	0.0081095
751.054	0.00803441
751.241	0.00797484
751.428	0.00794471
751.615	0.00785821
751.802	0.007823
751.989	0.00778987
752.176	0.00778606
752.363	0.00774231
752.55	0.0077002
752.737	0.00764193
752.924	0.00756198
753.111	0.00743383
753.298	0.00736053
753.485	0.00731868
753.672	0.00729444
753.859	0.00726132
754.046	0.00721895
754.233	0.00716101
754.42	0.00708578
754.606	0.00705358
754.793	0.00699626
754.98	0.00697077
755.167	0.00688182
755.353	0.00681177
755.54	0.00678203
755.727	0.00678111
755.914	0.00671759
756.1	0.00668491
756.287	0.00657584
756.474	0.0065765
756.66	0.00653234
756.847	0.00650567
757.033	0.00644998
757.22	0.00645329
757.407	0.00640591
757.593	0.00637958
757.78	0.00633359
757.966	0.0063124
758.153	0.00623705
758.339	0.0061693
758.526	0.00606643
758.712	0.00599753
758.898	0.00592089
759.085	0.00585426
759.271	0.00582335
759.458	0.00582029
759.644	0.00580286
759.83	0.00578526
760.017	0.00577244
760.203	0.00580216
760.389	0.00577307
760.576	0.00568928
760.762	0.00559886
760.948	0.00558022
761.134	0.00552147
761.32	0.00546842
761.507	0.00544155
761.693	0.00539246
761.879	0.00538072
762.065	0.00536772
762.251	0.0052779
762.437	0.00525932
762.623	0.00520956
762.809	0.00510082
762.995	0.00505148
763.181	0.00500109
763.367	0.00494129
763.553	0.00496558
763.739	0.00497135
763.925	0.00491415
764.111	0.00489453
764.297	0.00486441
764.483	0.00482633
764.669	0.00479098
764.855	0.00473786
765.041	0.00463544
765.227	0.00455823
765.412	0.00450246
765.598	0.00443951
765.784	0.00439685
765.97	0.00440001
766.156	0.00437028
766.341	0.0042885
766.527	0.00431145
766.713	0.00427939
766.898	0.00429055
767.084	0.00426829
767.27	0.00419164
767.455	0.00417375
767.641	0.00423479
767.827	0.00423394
768.012	0.00424872
768.198	0.00420549
768.383	0.00412601
768.569	0.00413862
768.754	0.00407031
768.94	0.00397896
769.125	0.0038514
769.311	0.00378711
769.496	0.00374607
769.682	0.00374096
769.867	0.00371418
770.052	0.00368437
770.238	0.00370906
770.423	0.00377635
770.608	0.0037598
770.794	0.00371296
770.979	0.00368781
771.164	0.00363217
771.35	0.00359325
771.535	0.0035586
771.72	0.003494
771.905	0.0034589
772.09	0.00343753
772.276	0.00347217
772.461	0.00345849
772.646	0.00347142
772.831	0.00344901
773.016	0.00341616
773.201	0.00336382
773.386	0.00335708
773.571	0.00329251
773.756	0.00325782
773.941	0.003232
774.126	0.00318414
774.311	0.00318571
774.496	0.00315175
774.681	0.0031488
774.866	0.00311764
775.051	0.0030761
775.236	0.00302461
775.421	0.00300661
775.606	0.00297487
775.791	0.00298738
775.976	0.00293791
776.16	0.00294409
776.345	0.00292275
776.53	0.00293227
776.715	0.00291715
776.899	0.00289083
777.084	0.00286744
777.269	0.00280213
777.454	0.00275195
777.638	0.0027236
777.823	0.00263625
778.008	0.00262173
778.192	0.00265237
778.377	0.00263063
778.561	0.00262962
778.746	0.0026282
778.931	0.00265982
779.115	0.00267624
779.3	0.00262083
779.484	0.00254128
779.669	0.0025302
779.853	0.00250865
780.037	0.00244302
780.222	0.00243341
780.406	0.00242663
780.591	0.00246197
780.775	0.00248702
780.959	0.00247455
781.144	0.00251875
781.328	0.00250121
781.512	0.00244062
781.697	0.00236522
781.881	0.00229179
782.065	0.00221309
782.249	0.00216141
782.434	0.00212964
782.618	0.00213059
782.802	0.00215989
782.986	0.00216615
783.17	0.00211798
783.354	0.00213495
783.539	0.00212879
783.723	0.00205028
783.907	0.00203942
784.091	0.00194256
784.275	0.00191634
784.459	0.00196493
784.643	0.00194433
784.827	0.0019857
785.011	0.00200686
785.195	0.00195572
785.379	0.00199675
785.563	0.00200235
785.747	0.00198847
785.93	0.00192809
786.114	0.00183836
786.298	0.00178279
786.482	0.00176441
786.666	0.00171013
786.85	0.00169551
787.033	0.0016792
787.217	0.00167992
787.401	0.00167997
787.585	0.00169524
787.768	0.00171741
787.952	0.00166284
788.136	0.00164576
788.319	0.00163512
788.503	0.00162121
788.687	0.00159685
788.87	0.0015658
789.054	0.00153234
789.237	0.00158904
789.421	0.00159155
789.605	0.00156757
789.788	0.00151397
789.972	0.00145901
790.155	0.00144864
790.338	0.00144981
790.522	0.00138471
790.705	0.00133109
790.889	0.00127346
791.072	0.00128925
791.256	0.00126825
791.439	0.00125254
791.622	0.00126295
791.806	0.0012862
791.989	0.00128136
792.172	0.00125644
792.355	0.00123361
792.539	0.0012371
792.722	0.00119458
792.905	0.00113036
793.088	0.001112
793.271	0.00107575
793.455	0.00111203
793.638	0.00119089
793.821	0.00126126
794.004	0.00130987
794.187	0.00130024
794.37	0.00125636
794.553	0.00128737
794.736	0.00125324
794.919	0.00115687
795.102	0.00110086
795.285	0.00108369
795.468	0.00106596
795.651	0.00105066
795.834	0.00105334
796.017	0.00105253
796.2	0.00104995
796.383	0.00103874
796.566	0.00102134
796.749	0.00102913
796.931	0.00102967
797.114	0.00096962
797.297	0.00092248
797.48	0.00088524
797.663	0.00082762
797.845	0.00079709
798.028	0.00081078
798.211	0.0008316
798.393	0.00088083
798.576	0.00090259
798.759	0.00096265
798.941	0.00096236
799.124	0.00092142
799.307	0.00084597
799.489	0.00082037
799.672	0.00073501
799.854	0.00072606
800.037	0.00065654
800.219	0.00061991
800.402	0.00065299
800.584	0.0007064
800.767	0.00071289
800.949	0.00072967
801.132	0.00069736
801.314	0.00071338
801.496	0.00072849
801.679	0.00071347
801.861	0.00066962
802.043	0.0006119
802.226	0.00059563
802.408	0.00059795
802.59	0.0005817
802.772	0.00058365
802.955	0.00059977
803.137	0.00059033
803.319	0.00058234
803.501	0.00056054
803.684	0.0005532
803.866	0.00049433
804.048	0.00045138
804.23	0.00037884
804.412	0.0004073
804.594	0.00038649
804.776	0.00043794
804.958	0.00044889
805.14	0.00050701
805.322	0.00052799
805.504	0.00057541
805.686	0.00051229
805.868	0.00053987
806.05	0.00048368
806.232	0.00039002
806.414	0.00034143
806.596	0.00036274
806.778	0.00030889
806.96	0.00033256
807.141	0.00035694
807.323	0.00036601
807.505	0.00043187
807.687	0.00044887
807.869	0.00047414
808.05	0.00056768
808.232	0.00051888
808.414	0.00045014
808.595	0.00038698
808.777	0.00032487
808.959	0.00033905
809.14	0.00026842
809.322	0.00020855
809.504	0.00025837
809.685	0.00029478
809.867	0.00035688
810.048	0.00040048
810.23	0.00037975
810.411	0.00038086
810.593	0.00037747
810.774	0.00032123
810.956	0.00030083
811.137	0.00028387
811.319	0.00024904
811.5	0.00023378
811.681	0.00024239
811.863	0.00017583
812.044	0.00020262
812.225	0.00018913
812.407	0.00013632
812.588	0.00017421
812.769	0.0001664
812.951	0.00012518
813.132	0.0001391
813.313	0.00011841
813.494	0.00009392
813.675	0.00012362
813.857	0.00003128
814.038	0.00002596
814.219	0.00004455
814.4	0.00007091
814.581	0.00001919
814.762	0.00001922
814.943	0.00002391
815.124	0.00010521
815.305	0.00007972
815.486	0.00006645
815.667	0.00000052
815.848	0.00000245
816.029	-0.00003131
816.21	-0.00008457
816.391	-0.00010008
816.572	-0.00009282
816.753	-0.00012632
816.934	-0.00005493
817.115	-0.00002274
817.295	0.00002943
817.476	0.00005388
817.657	0.00002659
817.838	-0.00004267
818.019	-0.00000016
818.199	-0.00000184
818.38	0.00002744
818.561	-0.00005441
818.741	-0.00003425
818.922	-0.00003311
819.103	0.00002923
819.283	0.00003175
819.464	-0.00000369
819.645	-0.00005308
819.825	-0.00001201
820.006	-0.00005008
820.186	-0.00008413
820.367	-0.00008936
820.547	-0.00008096
820.728	-0.00014096
820.908	-0.00008279
821.089	-0.00005158
821.269	-0.00007866
821.45	0.00001771
821.63	0.00004165
821.81	-0.00001012
821.991	-0.0000069
822.171	-0.00005155
822.351	-0.00012352
822.532	-0.00009224
822.712	-0.00020865
822.892	-0.00024532
823.072	-0.00030817
823.253	-0.00028803
823.433	-0.00030008
823.613	-0.0002491
823.793	-0.00031385
823.973	-0.00028423
824.154	-0.00027014
824.334	-0.00025977
824.514	-0.00027109
824.694	-0.00030106
824.874	-0.00031414
825.054	-0.00026675
825.234	-0.00029149
825.414	-0.00034985
825.594	-0.00029506
825.774	-0.00023825
825.954	-0.00023562
826.134	-0.00022919
826.314	-0.00023223
826.494	-0.00015141
826.674	-0.00014258
826.854	-0.00011421
827.033	-0.00024117
827.213	-0.00025482
827.393	-0.00032951
827.573	-0.00038407
827.753	-0.0004226
827.932	-0.00042031
828.112	-0.00041106
828.292	-0.00040559
828.472	-0.00037976
828.651	-0.00027556
828.831	-0.00020133
829.011	-0.00019504
829.19	-0.00014778
829.37	-0.00021108
829.549	-0.00018525
829.729	-0.00018386
829.909	-0.00020943
830.088	-0.0002223
830.268	-0.00024708
830.447	-0.00032295
830.627	-0.00033033
830.806	-0.00027503
830.986	-0.00028245
831.165	-0.00033853
831.344	-0.00026923
831.524	-0.00027748
831.703	-0.00024144
831.883	-0.00024786
832.062	-0.00026468
832.241	-0.00028786
832.421	-0.00026389
832.6	-0.00039068
832.779	-0.00045738
832.958	-0.00047547
833.138	-0.00046556
833.317	-0.0004132
833.496	-0.00035541
833.675	-0.00034419
833.854	-0.00023967
834.034	-0.00015531
834.213	-0.00016646
834.392	-0.00020519
834.571	-0.00030208
834.75	-0.00032541
834.929	-0.00036261
835.108	-0.0004782
835.287	-0.00056434
835.466	-0.00056576
835.645	-0.00053372
835.824	-0.00051665
836.003	-0.00054724
836.182	-0.00047489
836.361	-0.00046648
836.54	-0.00042372
836.719	-0.00042608
836.897	-0.00041682
837.076	-0.00041802
837.255	-0.00039363
837.434	-0.00050873
837.613	-0.00050832
837.791	-0.00052703
837.97	-0.00047353
838.149	-0.00047346
838.328	-0.00038986
838.506	-0.00039933
838.685	-0.00034678
838.864	-0.0002848
839.042	-0.00030484
839.221	-0.00035073
839.4	-0.00037735
839.578	-0.00047904
839.757	-0.00053706
839.935	-0.00054324
840.114	-0.00059591
840.292	-0.00056602
840.471	-0.00052152
840.649	-0.00054466
840.828	-0.00054086
841.006	-0.00043691
841.185	-0.0004358
841.363	-0.00042871
841.541	-0.00040108
841.72	-0.00045948
841.898	-0.00047354
842.076	-0.00050556
842.255	-0.00059981
842.433	-0.00066949
842.611	-0.00063248
842.789	-0.0007031
842.968	-0.00061919
843.146	-0.00050992
843.324	-0.00044705
843.502	-0.00038657
843.68	-0.00030289
843.859	-0.00026763
844.037	-0.00026837
844.215	-0.00032803
844.393	-0.00043041
844.571	-0.0004423
844.749	-0.00052851
844.927	-0.00060726
845.105	-0.00069217
845.283	-0.00067707
845.461	-0.00069789
845.639	-0.00063504
845.817	-0.00062653
845.995	-0.00052735
846.173	-0.00049553
846.351	-0.00047208
846.529	-0.0004763
846.706	-0.00046712
846.884	-0.00048694
847.062	-0.0004833
847.24	-0.00053601
847.418	-0.0005869
847.595	-0.0005596
847.773	-0.00050515
847.951	-0.00048305
848.129	-0.00049243
848.306	-0.00045436
848.484	-0.0004075
848.662	-0.00039462
848.839	-0.00040063
849.017	-0.00037354
849.194	-0.00041358
849.372	-0.0003944
849.549	-0.00046408
849.727	-0.00053988
849.905	-0.0005153
850.082	-0.00060268
850.26	-0.00070798
850.437	-0.00070839
850.614	-0.00068544
850.792	-0.00063495
850.969	-0.00054248
851.147	-0.00048659
851.324	-0.00042572
851.501	-0.00028694
851.679	-0.00027677
851.856	-0.00035129
852.033	-0.0004053
852.211	-0.00054052
852.388	-0.00057693
852.565	-0.00065652
852.742	-0.00076172
852.92	-0.00076281
853.097	-0.00073631
853.274	-0.0006701
853.451	-0.00058859
853.628	-0.00053699
853.805	-0.00043888
853.982	-0.00040301
854.159	-0.00048434
854.336	-0.00050868
854.514	-0.00061103
854.691	-0.00070463
854.868	-0.00077503
855.045	-0.00083217
855.221	-0.00091539
855.398	-0.00084701
855.575	-0.00083927
855.752	-0.00079271
855.929	-0.00066556
856.106	-0.00062162
856.283	-0.00055194
856.46	-0.00051571
856.637	-0.00044902
856.813	-0.0004509
856.99	-0.00043626
857.167	-0.00052529
857.344	-0.00055579
857.52	-0.00062864
857.697	-0.00060118
857.874	-0.00070565
858.05	-0.00071233
858.227	-0.00077055
858.404	-0.00072624
858.58	-0.00072627
858.757	-0.00059975
858.933	-0.00056032
859.11	-0.00045476
859.287	-0.00039062
859.463	-0.00030981
859.64	-0.00038799
859.816	-0.00043589
859.993	-0.00056824
860.169	-0.00062085
860.345	-0.00066207
860.522	-0.00073278
860.698	-0.00074002
860.875	-0.00072504
861.051	-0.00073072
861.227	-0.00061384
861.404	-0.00062092
861.58	-0.00066251
861.756	-0.00057612
861.932	-0.00064478
862.109	-0.00056301
862.285	-0.00046296
862.461	-0.00060821
862.637	-0.00064651
862.813	-0.0006508
862.99	-0.00075946
863.166	-0.00072589
863.342	-0.00077731
863.518	-0.00077218
863.694	-0.00071556
863.87	-0.00065355
864.046	-0.00060191
864.222	-0.00053121
864.398	-0.00050856
864.574	-0.00051694
864.75	-0.00054556
864.926	-0.00059257
865.102	-0.00065148
865.278	-0.00076262
865.454	-0.00072236
865.63	-0.0008594
865.805	-0.00079206
865.981	-0.00078524
866.157	-0.00075242
866.333	-0.00071697
866.509	-0.00056464
866.684	-0.00064201
866.86	-0.00051628
867.036	-0.00058298
867.212	-0.00064584
867.387	-0.00064909
867.563	-0.00067436
867.739	-0.00076037
867.914	-0.00072747
868.09	-0.00083435
868.265	-0.00082552
868.441	-0.00084477
868.617	-0.00085748
868.792	-0.00080376
868.968	-0.00073463
869.143	-0.00069118
869.319	-0.0005322
869.494	-0.00049285
869.67	-0.00039333
869.845	-0.00041898
870.02	-0.00047953
870.196	-0.00054919
870.371	-0.00069517
870.546	-0.00079134
870.722	-0.00074105
870.897	-0.00086782
871.072	-0.000856
871.248	-0.00079166
871.423	-0.00079563
871.598	-0.00069153
871.773	-0.00067934
871.949	-0.00072838
872.124	-0.00064852
872.299	-0.00055003
872.474	-0.00049867
872.649	-0.0004902
872.824	-0.00046701
872.999	-0.00049158
873.174	-0.00051783
873.349	-0.0004863
873.524	-0.00056766
873.699	-0.00069707
873.874	-0.00071724
874.049	-0.00078293
874.224	-0.00080696
874.399	-0.00075252
874.574	-0.00085389
874.749	-0.00074909
874.924	-0.00070119
875.099	-0.00059431
875.274	-0.00056386
875.449	-0.00055033
875.623	-0.00068379
875.798	-0.00059951
875.973	-0.00064409
876.148	-0.00068558
876.322	-0.00072063
876.497	-0.00068951
876.672	-0.00069876
876.846	-0.00057801
877.021	-0.00061329
877.196	-0.0006599
877.37	-0.0006001
877.545	-0.0005996
877.72	-0.00059341
877.894	-0.00047718
878.069	-0.00052589
878.243	-0.00043465
878.418	-0.00036267
878.592	-0.00039894
878.767	-0.00050005
878.941	-0.00061724
879.116	-0.00071371
879.29	-0.00071217
879.464	-0.00071956
879.639	-0.00076657
879.813	-0.00073137
879.987	-0.00062557
880.162	-0.00053642
880.336	-0.00048895
880.51	-0.00047909
880.685	-0.00058863
880.859	-0.00054105
881.033	-0.00056153
881.207	-0.00059191
881.381	-0.00066536
881.556	-0.00068176
881.73	-0.00063431
881.904	-0.0006355
882.078	-0.00066563
882.252	-0.00070697
882.426	-0.00076832
882.6	-0.00066106
882.774	-0.00061548
882.948	-0.00058699
883.122	-0.00050586
883.296	-0.00054271
883.47	-0.00045985
883.644	-0.00044395
883.818	-0.00050866
883.992	-0.00057293
884.166	-0.00071993
884.34	-0.00076789
884.514	-0.00082653
884.687	-0.00082929
884.861	-0.0008319
885.035	-0.00078987
885.209	-0.0008167
885.382	-0.00073232
885.556	-0.00061852
885.73	-0.00049842
885.904	-0.00053434
886.077	-0.00038108
886.251	-0.00042848
886.425	-0.00043199
886.598	-0.00055331
886.772	-0.00066904
886.945	-0.00071
887.119	-0.00073395
887.292	-0.00082959
887.466	-0.00080924
887.64	-0.00077312
887.813	-0.000601
887.986	-0.00049846
888.16	-0.00042888
888.333	-0.00039481
888.507	-0.00041602
888.68	-0.00032981
888.854	-0.00017789
889.027	-0.00028265
889.2	-0.00036029
889.374	-0.00053873
889.547	-0.00052268
889.72	-0.00050795
889.893	-0.00059695
890.067	-0.00071384
890.24	-0.00074688
890.413	-0.00066749
890.586	-0.0005663
890.759	-0.0005253
890.933	-0.00055569
891.106	-0.00047811
891.279	-0.00038811
891.452	-0.00031007
891.625	-0.00037879
891.798	-0.00034217
891.971	-0.0004026
892.144	-0.00042233
892.317	-0.00049699
892.49	-0.00065204
892.663	-0.00078459
892.836	-0.00078504
893.009	-0.00073929
893.182	-0.00072766
893.355	-0.00072047
893.527	-0.00066908
893.7	-0.0005625
893.873	-0.00043805
894.046	-0.00050019
894.219	-0.00048797
894.391	-0.00044074
894.564	-0.00047811
894.737	-0.00061054
894.91	-0.00067056
895.082	-0.00065911
895.255	-0.00066663
895.428	-0.00080824
895.6	-0.00084974
895.773	-0.00077607
895.945	-0.0006318
896.118	-0.00054431
896.291	-0.00052081
896.463	-0.00039799
896.636	-0.00029436
896.808	-0.00019951
896.981	-0.00017846
897.153	-0.00020217
897.326	-0.00025594
897.498	-0.00031892
897.67	-0.00054206
897.843	-0.00065735
898.015	-0.00082788
898.187	-0.00088113
898.36	-0.00095482
898.532	-0.00100347
898.704	-0.00104553
898.877	-0.00093533
899.049	-0.00087452
899.221	-0.00081105
899.393	-0.00075761
899.566	-0.0006995
899.738	-0.00055364
899.91	-0.00050961
900.082	-0.00042308
900.254	-0.00049746
900.426	-0.00052593
900.598	-0.00056335
900.77	-0.00053931
900.942	-0.0006873
901.114	-0.00069002
901.286	-0.00076853
901.458	-0.00070065
901.63	-0.00065309
901.802	-0.00062629
901.974	-0.00064738
902.146	-0.00059312
902.318	-0.00062534
902.49	-0.0005429
902.662	-0.000496
902.834	-0.00051222
903.005	-0.00053394
903.177	-0.00061661
903.349	-0.00061282
903.521	-0.00060563
903.693	-0.00071479
903.864	-0.00075579
904.036	-0.00083834
904.208	-0.00076338
904.379	-0.00068379
904.551	-0.0007609
904.723	-0.00071512
904.894	-0.0005991
905.066	-0.00062384
905.237	-0.00044276
905.409	-0.00041361
905.58	-0.0004889
905.752	-0.00040387
905.923	-0.00039834
906.095	-0.00051006
906.266	-0.00053936
906.438	-0.00068954
906.609	-0.00083505
906.78	-0.0007777
906.952	-0.00090121
907.123	-0.00093869
907.295	-0.00076542
907.466	-0.00066548
907.637	-0.00061967
907.808	-0.00059835
907.98	-0.00060627
908.151	-0.00052121
908.322	-0.00044319
908.493	-0.00056871
908.665	-0.00060069
908.836	-0.00052662
909.007	-0.00048894
909.178	-0.00046244
909.349	-0.00053011
909.52	-0.00060793
909.691	-0.00070209
909.862	-0.00080567
910.033	-0.00092063
910.204	-0.00089579
910.375	-0.00082722
910.546	-0.00080985
910.717	-0.00075719
910.888	-0.00051921
911.059	-0.00038333
911.23	-0.00031668
911.401	-0.00033116
911.572	-0.00031984
911.742	-0.00024425
911.913	-0.00030954
912.084	-0.00051958
912.255	-0.00068313
912.426	-0.00075432
912.596	-0.00079524
912.767	-0.00091111
912.938	-0.00098984
913.108	-0.00097055
913.279	-0.00089434
913.45	-0.00072429
913.62	-0.00067099
913.791	-0.00063123
913.962	-0.0006063
914.132	-0.00054011
914.303	-0.00045764
914.473	-0.00033696
914.644	-0.00043238
914.814	-0.0005349
914.985	-0.00049755
915.155	-0.0006051
915.326	-0.00056652
915.496	-0.00064046
915.666	-0.00073717
915.837	-0.00068994
916.007	-0.0006193
916.177	-0.0006742
916.348	-0.00059298
916.518	-0.00059269
916.688	-0.00056474
916.858	-0.00050987
917.029	-0.00048491
917.199	-0.00055602
917.369	-0.00062791
917.539	-0.0006013
917.709	-0.00071335
917.88	-0.00070079
918.05	-0.0007874
918.22	-0.00086456
918.39	-0.00069729
918.56	-0.00064338
918.73	-0.00062597
918.9	-0.00060263
919.07	-0.00067578
919.24	-0.00064097
919.41	-0.00061441
919.58	-0.00064262
919.75	-0.00064643
919.92	-0.00055933
920.09	-0.00038936
920.26	-0.00033154
920.429	-0.00034314
920.599	-0.00021083
920.769	-0.0002022
920.939	-0.00024386
921.109	-0.00041926
921.278	-0.00071944
921.448	-0.00083015
921.618	-0.00075774
921.787	-0.00095092
921.957	-0.00096514
922.127	-0.00093029
922.296	-0.00088808
922.466	-0.00066772
922.636	-0.00055738
922.805	-0.00057372
922.975	-0.0005571
923.144	-0.0005315
923.314	-0.00051477
923.483	-0.00050299
923.653	-0.00061625
923.822	-0.00063661
923.992	-0.00074324
924.161	-0.00061155
924.331	-0.00065229
924.5	-0.00072341
924.669	-0.00075439
924.839	-0.00077361
925.008	-0.00073343
925.177	-0.00071289
925.347	-0.00087609
925.516	-0.00091493
925.685	-0.000741
925.854	-0.00063056
926.023	-0.00048819
926.193	-0.00043986
926.362	-0.00034837
926.531	-0.00018974
926.7	-0.00021057
926.869	-0.00032092
927.038	-0.00035077
927.207	-0.00026586
927.376	-0.00025878
927.545	-0.00035688
927.715	-0.00048765
927.884	-0.00046774
928.052	-0.00038053
928.221	-0.00033456
928.39	-0.00062014
928.559	-0.00062525
928.728	-0.00069312
928.897	-0.00045908
929.066	-0.00036641
929.235	-0.00040566
929.404	-0.00041973
929.572	-0.00018951
929.741	-0.00019761
929.91	-0.000146
930.079	-0.00023929
930.247	-0.00029149
930.416	-0.00036731
930.585	-0.00051352
930.753	-0.00051761
930.922	-0.00074159
931.091	-0.00067402
931.259	-0.00070219
931.428	-0.00073972
931.596	-0.00076801
931.765	-0.00057105
931.934	-0.00055602
932.102	-0.00041651
932.27	-0.00047036
932.439	-0.00039281
932.607	-0.00017701
932.776	-0.00004854
932.944	-0.00014867
933.113	-0.00021906
933.281	-0.00016246
933.449	-0.00016155
933.618	-0.00011371
933.786	-0.00025291
933.954	-0.00031734
934.123	-0.00029639
934.291	-0.00028272
934.459	-0.00018311
934.627	-0.00008661
934.795	-0.00024806
934.964	-0.00027449
935.132	-0.00005986
935.3	-0.00002689
935.468	0.00013362
935.636	0.00020101
935.804	0.00020942
935.972	0.00010653
936.14	0.00000897
936.308	-0.00008968
936.476	-0.00007485
936.644	0.00001701
936.812	-0.00021623
936.98	-0.00007761
937.148	-0.00001934
937.316	0.00030039
937.484	0.00040943
937.652	0.00023188
937.82	-0.00013095
937.987	-0.00000382
938.155	-0.00007762
938.323	0.00028516
938.491	0.00027918
938.658	0.0000664
938.826	0.00073061
938.994	0.00093614
939.162	0.00127467
939.329	0.00094606
939.497	0.00110546
939.665	0.00142042
939.832	0.00164852
940	0.00113949
940.167	0.00149765
940.335	0.00138412
940.502	0.00174868
940.67	0.00179822
940.837	0.00148944
941.005	0.00163792
941.172	0.00169015
941.34	0.0020746
941.507	0.00201457
941.674	0.0026819
941.842	0.00272276
942.009	0.00295413
942.177	0.00335239
942.344	0.00392755
942.511	0.00322963
942.678	0.00381126
942.846	0.00404543
943.013	0.00409373
943.18	0.00436281
943.347	0.00404261
943.514	0.00375609
943.682	0.00383779
943.849	0.00350901
944.016	0.00284725
944.183	0.00262889
944.35	0.00270239
944.517	0.00260235
944.684	0.00216415
944.851	0.00201305
945.018	0.00244295
945.185	0.00234359
945.352	0.00184963
945.519	0.0009904
945.686	0.00156595
945.853	0.00239033
946.02	0.00215744
946.187	0.00104849
946.353	0.00102182
946.52	0.00137009
946.687	0.00171555
946.854	0.00063809
947.021	0.00076079
947.187	0.00102494
947.354	0.00173107
947.521	0.00199387
947.687	0.00186508
947.854	0.00227833
948.021	0.00267238
948.187	0.00236622
948.354	0.00270121
948.52	0.00256043
948.687	0.00220849
948.854	0.00185798
949.02	0.00121067
949.187	0.00192628
949.353	0.00160608
949.52	0.00159021
949.686	0.00128046
949.852	0.00102056
950.019	0.00171766
950.185	0.00224117
950.352	0.00103748
950.518	0.00082808
950.684	0.00110761
950.851	0.00116748
951.017	0.00182041
951.183	0.00147494
951.349	0.00135104
951.516	0.00146287
951.682	0.00156862
951.848	0.00102057
952.014	0.00122637
952.18	0.00127039
952.346	0.00104639
952.512	0.00117476
952.679	0.00146792
952.845	0.00169225
953.011	0.00166722
953.177	0.00170144
953.343	0.00176115
953.509	0.00136691
953.675	0.00098345
953.841	0.00105436
954.007	0.00083731
954.172	0.00062926
954.338	-0.00018896
954.504	-0.00039989
954.67	-0.00001924
954.836	-0.00024863
955.002	-0.00047078
955.167	-0.00043633
955.333	-0.00014389
955.499	0.00035323
955.665	0.00032494
955.83	0.00068768
955.996	0.00094178
956.162	0.00118087
956.327	0.00111954
956.493	0.0008325
956.659	0.00056247
956.824	0.00055777
956.99	0.00046927
957.155	0.00034625
957.321	0.00000149
957.486	0.00036649
957.652	0.00055422
957.817	0.00134238
957.983	0.00130219
958.148	0.00134496
958.314	0.00130207
958.479	0.00114859
958.644	0.00060132
958.81	0.0002834
958.975	-0.00016398
959.14	-0.00034525
959.306	-0.00046875
959.471	-0.00023562
959.636	-0.00005311
959.801	-0.00038907
959.967	-0.0001105
960.132	-0.00024233
960.297	-0.00007296
960.462	0.00002511
960.627	-0.00015328
960.792	-0.00019213
960.957	-0.00020651
961.123	-0.00018221
961.288	-0.00029688
961.453	-0.00051209
961.618	-0.0008187
961.783	-0.00081918
961.948	-0.0006572
962.113	-0.00042263
962.277	-0.00091125
962.442	-0.00082389
962.607	-0.00091821
962.772	-0.00082433
962.937	-0.00115629
963.102	-0.00073149
963.267	-0.00040419
963.431	-0.00010015
963.596	-0.00046374
963.761	-0.00028769
963.926	-0.00049906
964.09	-0.00043754
964.255	-0.00076236
964.42	-0.00057212
964.584	-0.00065522
964.749	-0.00019058
964.914	-0.00064858
965.078	-0.00070015
965.243	-0.00051234
965.407	-0.000609
965.572	-0.00083702
965.736	-0.0006139
965.901	-0.00048024
966.065	0.00000828
966.23	0.0002203
966.394	0.00020377
966.559	0.00012975
966.723	-0.00011501
966.887	-0.00047587
967.052	-0.00084234
967.216	-0.00095163
967.38	-0.00119736
967.545	-0.00100439
967.709	-0.00074224
967.873	-0.00042212
968.037	-0.00009036
968.202	-0.00021652
968.366	-0.00024437
968.53	0.00004889
968.694	-0.0000436
968.858	-0.00042736
969.022	-0.00061041
969.187	-0.00076997
969.351	-0.00047395
969.515	-0.00014263
969.679	-0.0002356
969.843	-0.00005236
970.007	-0.00029144
970.171	0.00004192
970.335	0.00017404
970.499	0.00022376
970.662	-0.00004031
970.826	0.0000745
970.99	-0.00008064
971.154	0.00009354
971.318	-0.00011975
971.482	-0.00060493
971.645	-0.00059904
971.809	-0.00083286
971.973	-0.00085191
972.137	-0.00085801
972.3	-0.00078616
972.464	-0.00088433
972.628	-0.00073763
972.791	-0.00056876
972.955	-0.00053186
973.119	-0.00075963
973.282	-0.00070312
973.446	-0.00060678
973.609	-0.00053503
973.773	-0.00008829
973.936	0.00009123
974.1	0.00003765
974.263	0.0000691
974.427	0.00054966
974.59	0.00053767
974.754	0.00062548
974.917	0.00064754
975.08	0.00001594
975.244	0.00025081
975.407	0.00068355
975.57	-0.00012608
975.734	-0.00013464
975.897	-0.00032844
976.06	-0.00052426
976.223	-0.00006362
976.387	-0.00060163
976.55	-0.00062827
976.713	-0.00041711
976.876	-0.0007383
977.039	-0.00051
977.202	-0.0006521
977.365	-0.00109559
977.528	-0.00003108
977.692	-0.00063429
977.855	-0.00031697
978.018	0.00012478
978.181	0.00001186
978.344	0.0004171
978.506	0.00113616
978.669	0.00039396
978.832	0.00070019
978.995	0.00002799
979.158	-0.00036792
979.321	-0.00031301
979.484	-0.00058596
979.646	-0.00087015
979.809	-0.00049342
979.972	-0.00044517
980.135	-0.00007136
980.297	0.00005394
980.46	-0.00036288
980.623	-0.00002211
980.786	-0.00032364
980.948	-0.00043898
981.111	-0.00025141
981.273	0.0003394
981.436	0.00076473
981.599	0.00142808
981.761	0.00109706
981.924	0.00104239
982.086	0.00125792
982.249	0.00119778
982.411	0.00083447
982.573	0.00038734
982.736	0.00023922
982.898	0.00007515
983.061	0.00021129
983.223	0.0000106
983.385	-0.00042128
983.548	-0.00070217
983.71	-0.00022322
983.872	-0.00042678
984.034	0.00042501
984.197	0.00049964
984.359	0.00049631
984.521	0.00106624
984.683	0.00088935
984.845	0.00077588
985.008	0.00091593
985.17	0.00036677
985.332	0.00054423
985.494	0.00081062
985.656	0.00054536
985.818	0.00103769
985.98	0.00113786
986.142	0.00122714
986.304	0.00078382
986.466	0.00105364
986.628	0.00118675
986.79	0.00076473
986.952	0.00057267
987.113	0.00056275
987.275	0.00016223
987.437	0.00039047
987.599	-0.00034474
987.761	-0.00076628
987.922	0.00008008
988.084	0.00040036
988.246	0.00082958
988.408	0.00088765
988.569	0.00122206
988.731	0.00105967
988.893	0.00105267
989.054	0.00089867
989.216	0.0006539
989.377	-0.00000777
989.539	0.00055943
989.701	0.00069644
989.862	0.00067975
990.024	0.00080687
990.185	0.0004405
990.347	0.00026028
990.508	-0.00018877
990.669	-0.00058077
990.831	-0.00133848
990.992	-0.00079378
991.154	-0.00103813
991.315	-0.00036384
991.476	0.0002653
991.638	0.00087152
991.799	0.00072936
991.96	0.00120116
992.121	0.00115127
992.283	0.00172583
992.444	0.00146063
992.605	0.00076851
992.766	0.00040836
992.927	0.0005596
993.088	0.00051913
993.249	0.00059867
993.41	0.00040837
993.572	0.00021472
993.733	0.00040217
993.894	0.00070059
994.055	0.00102498
994.216	0.00134814
994.376	0.00119248
994.537	0.00087889
994.698	0.00077855
994.859	0.00104144
995.02	0.00115355
995.181	0.00101955
995.342	0.00073702
995.503	0.0011345
995.663	0.00096213
995.824	0.00082343
995.985	0.00050258
996.146	0.00008679
996.306	-0.0005436
996.467	-0.00067885
996.628	-0.00087024
996.788	-0.00014318
996.949	0.00001405
997.11	0.0002234
997.27	0.00114366
997.431	0.00205493
997.591	0.00236045
997.752	0.00215618
997.912	0.00176228
998.073	0.00151317
998.233	0.00146473
998.394	0.00112501
998.554	0.00043328
998.714	0.00085497
998.875	0.00080355
999.035	0.0012587
999.196	0.00192329
999.356	0.00172815
999.516	0.00141421
999.676	0.00155414
999.837	0.0010539
999.997	0.00078465
1000.157	0.00043782
1000.317	0.00026731
1000.477	0.00062056
1000.638	0.00083022
1000.798	0.00189006
1000.958	0.00262345
1001.118	0.00387533
1001.278	0.00392165
1001.438	0.00370128
1001.598	0.00396255
1001.758	0.00346435
1001.918	0.00295232
1002.078	0.00197614
1002.238	0.00091762
1002.398	0.00129864
1002.558	0.00180056
1002.718	0.00174764
1002.878	0.00269754
1003.037	0.00269073
1003.197	0.00252003
1003.357	0.00203327
1003.517	0.00115442
1003.677	0.0001876
1003.836	-0.00024497
1003.996	-0.0009477
1004.156	-0.00209137
1004.315	-0.00162816
1004.475	-0.0007271
1004.635	-0.00038688
1004.794	0.00084077
1004.954	0.00133687
1005.114	0.00143005
1005.273	0.00323586
1005.433	0.0030452
1005.592	0.00274247
1005.752	0.00330002
1005.911	0.00241151
1006.071	0.00179052
1006.23	0.00259382
1006.389	0.00215131
1006.549	0.00110158
1006.708	0.00143192
1006.868	0.00154675
1007.027	0.00293475
1007.186	0.00392423
1007.345	0.00371151
1007.505	0.00308993
1007.664	0.00534681
1007.823	0.00465191
1007.982	0.00346713
1008.142	0.00309268
1008.301	0.00081051
1008.46	0.0014999
1008.619	0.00139135
1008.778	0.00011725
1008.937	0.00080722
1009.096	0.00208054
1009.255	0.00138222
1009.414	0.0020691
1009.573	0.00032012
1009.732	0.00019637
1009.891	-0.00000143
1010.05	0.00031534
1010.209	-0.00000918
1010.368	-0.00002704
1010.527	0.00135352
1010.686	0.00148931
1010.845	0.00176208
1011.003	0.00373132
1011.162	0.00243044
1011.321	0.00239512
1011.48	0.00095091
1011.638	0.00001042
1011.797	0.00024661
1011.956	0.00101975
1012.115	-0.00070514
1012.273	0.00086638
1012.432	0.00004771
1012.59	0.00163269
1012.749	0.0020643
1012.908	0.00391791
1013.066	0.0030546
1013.225	0.00234861
1013.383	0.00204249
1013.542	0.0024883
1013.7	0.00297989
1013.859	0.00303556
1014.017	0.00102637
1014.175	0.00089049
1014.334	0.00154279
1014.492	0.00133989
1014.65	0.00185601
1014.809	0.00247531
1014.967	0.00189414
1015.125	0.00368619
1015.284	0.00271213
1015.442	0.00228899
1015.6	0.00306405
1015.758	0.00258831
1015.916	0.00297002
1016.075	0.00191393
1016.233	0.00164292
1016.391	0.00248912
1016.549	0.00499719
1016.707	0.00353436
1016.865	0.00419992
1017.023	0.00294792
1017.181	0.00639355
1017.339	0.00598397
1017.497	0.00827657
1017.655	0.00727975
1017.813	0.00860461
1017.971	0.00731668
1018.129	0.00822787
1018.286	0.00768521
1018.444	0.00771672
1018.602	0.006331
1018.76	0.0059604
1018.918	0.00548376
1019.075	0.00531986
1019.233	0.00387073
1019.391	0.00211051
1019.549	0.00174422
1019.706	0.00098994
1019.864	-0.00033677
1020.022	0.00092566
1020.179	0.00211034
1020.337	0.00282261
1020.494	0.00331845
1020.652	0.00474502
1020.809	0.00351884
1020.967	0.00376906
1021.124	0.00486206
1021.282	0.00440891
1021.439	0.00449459
1021.597	0.00344466
1021.754	0.00136568
1021.911	0.00517293
1022.069	0.00630193
1022.226	0.00652216
1022.384	0.00480628
1022.541	0.00253442
1022.698	0.00538161
1022.855	0.00364188
1023.013	0.00282757
1023.17	0.00185255
1023.327	0.00158563
1023.484	0.00609773
1023.641	0.00726838
1023.798	0.00678565
1023.956	0.01130068
1024.113	0.01401469
1024.27	0.01565298
1024.427	0.01055667
1024.584	0.01119704
1024.741	0.01425468
1024.898	0.01681249
1025.055	0.01252974
1025.212	0.00729868
1025.369	0.00602811
1025.525	0.00787282
1025.682	0.00930995
1025.839	0.00829478
1025.996	0.00392533
1026.153	0.00307183
1026.31	0.00756323
1026.466	0.00923168
1026.623	0.00956482
1026.78	0.0071826
1026.937	0.00448681
1027.093	0.00718869
1027.25	0.00917494
1027.407	0.00982604
1027.563	0.00740454
1027.72	0.00676954
1027.876	0.00171472
1028.033	0.00400671
1028.19	0.00130519
1028.346	0.00304567
1028.503	-0.00301434
1028.659	-0.00337083
1028.816	-0.00568701
1028.972	0.0009931
1029.128	0.00035822
1029.285	0.0013209
1029.441	0.00378588
1029.598	0.00696325
1029.754	0.0073603
1029.91	0.01353335
1030.067	0.0103075
1030.223	0.00780901
1030.379	0.00332592
1030.535	-0.00065404
1030.691	-0.00084959
1030.848	0.00365442
1031.004	-0.00551039
1031.16	-0.00635118
1031.316	-0.00349606
1031.472	0.00282794
1031.628	0.00832988
1031.784	0.00768059
1031.94	0.01088994
1032.096	0.01513786
1032.252	0.02243185
1032.408	0.01718392
1032.564	0.01554279
1032.72	0.00566756
1032.876	0.00668741
1033.032	0.00190048
1033.188	0.00384044
1033.344	-0.00253759
1033.5	0.0058353
1033.655	0.00588537
1033.811	0.01538127
1033.967	0.01794869
