Data from 0_1_mm_pl_60pc_Absorbance__0__18-12-24-592.txt Node

Date: Wed Mar 01 18:12:24 CET 2023
User: Ange
Spectrometer: FLMT08341
Trigger mode: 0
Integration Time (sec): 1.000000E-2
Scans to average: 400
Electric dark correction enabled: true
Nonlinearity correction enabled: false
Boxcar width: 3
XAxis mode: Wavelengths
Number of Pixels in Spectrum: 3648
>>>>>Begin Spectral Data<<<<<
345.271	-0.00538477
345.487	-0.01257919
345.704	-0.00561367
345.921	-0.00828808
346.137	-0.01499832
346.354	-0.01855041
346.571	-0.02967963
346.787	0.0448607
347.004	-0.08254324
347.22	0.0031426
347.437	-0.11417437
347.653	-0.04601622
347.87	0.02651739
348.086	-0.7444369
348.303	0.23649657
348.519	0.04268333
348.736	0.0480288
348.952	0.04218366
349.169	0.04912334
349.385	0.05212931
349.601	0.05247767
349.818	0.05120971
350.034	0.05055051
350.251	0.04988655
350.467	0.05197555
350.683	0.0496979
350.9	0.04861299
351.116	0.04837472
351.332	0.04822378
351.549	0.04915791
351.765	0.04988939
351.981	0.04885346
352.197	0.04790895
352.414	0.04849713
352.63	0.04792111
352.846	0.04861096
353.062	0.04987465
353.278	0.05122241
353.495	0.05252304
353.711	0.05399165
353.927	0.05238388
354.143	0.05369698
354.359	0.0535447
354.575	0.05216147
354.792	0.05261458
355.008	0.05267462
355.224	0.0524095
355.44	0.05411652
355.656	0.05340442
355.872	0.05302868
356.088	0.05341337
356.304	0.05181629
356.52	0.04987315
356.736	0.05050135
356.952	0.05165169
357.168	0.05190312
357.384	0.05298226
357.6	0.05425083
357.816	0.05365418
358.032	0.05552845
358.248	0.05682307
358.464	0.05599002
358.679	0.05620294
358.895	0.05583145
359.111	0.05546301
359.327	0.05644082
359.543	0.05625924
359.759	0.05806084
359.974	0.05834472
360.19	0.05717326
360.406	0.05587523
360.622	0.05523776
360.838	0.05532367
361.053	0.05545212
361.269	0.05422486
361.485	0.05365341
361.701	0.05501691
361.916	0.05554955
362.132	0.05535531
362.348	0.05470928
362.563	0.05496921
362.779	0.05435693
362.995	0.0547966
363.21	0.05566366
363.426	0.05657408
363.641	0.05639756
363.857	0.05685322
364.073	0.05575548
364.288	0.05595397
364.504	0.05613821
364.719	0.05539837
364.935	0.05444937
365.15	0.05472933
365.366	0.05432757
365.581	0.05510841
365.797	0.05433316
366.012	0.05385748
366.228	0.05367962
366.443	0.05457428
366.658	0.05364218
366.874	0.05328729
367.089	0.05408339
367.305	0.05486833
367.52	0.05457483
367.735	0.05525094
367.951	0.0542726
368.166	0.05512626
368.381	0.05628939
368.597	0.05632097
368.812	0.05606157
369.027	0.0568187
369.243	0.05663784
369.458	0.05802734
369.673	0.05875027
369.888	0.05857012
370.104	0.05890384
370.319	0.05977495
370.534	0.05981839
370.749	0.06014832
370.964	0.05960649
371.179	0.05903906
371.395	0.06024582
371.61	0.05978276
371.825	0.05902602
372.04	0.05951201
372.255	0.05914293
372.47	0.05945666
372.685	0.0601045
372.9	0.05955538
373.115	0.05981046
373.33	0.06117773
373.545	0.06140021
373.76	0.06199462
373.975	0.06210187
374.19	0.06125098
374.405	0.06142383
374.62	0.06106268
374.835	0.06073344
375.05	0.06074561
375.265	0.06013948
375.48	0.06062359
375.695	0.06170087
375.91	0.06070817
376.125	0.06103805
376.339	0.0601795
376.554	0.06043953
376.769	0.060443
376.984	0.06064809
377.199	0.06139427
377.414	0.06244096
377.628	0.06366005
377.843	0.06462213
378.058	0.06413852
378.273	0.06502826
378.487	0.06494868
378.702	0.06515608
378.917	0.06498479
379.131	0.06438108
379.346	0.06416406
379.561	0.06419978
379.775	0.06394976
379.99	0.06341281
380.205	0.06294552
380.419	0.06218004
380.634	0.06166549
380.848	0.0614831
381.063	0.06162858
381.278	0.06245717
381.492	0.06229702
381.707	0.06270981
381.921	0.06386429
382.136	0.06450769
382.35	0.06513398
382.565	0.06528667
382.779	0.06491358
382.994	0.066028
383.208	0.06538342
383.422	0.06564965
383.637	0.06575347
383.851	0.06572765
384.066	0.0659035
384.28	0.06619022
384.494	0.06544291
384.709	0.06574699
384.923	0.06607512
385.137	0.06600353
385.352	0.06629005
385.566	0.066598
385.78	0.06675471
385.995	0.06715294
386.209	0.06680421
386.423	0.06676266
386.637	0.06699446
386.852	0.06692785
387.066	0.06702832
387.28	0.06736308
387.494	0.06796599
387.708	0.0682344
387.923	0.06814719
388.137	0.06840099
388.351	0.06884321
388.565	0.0691781
388.779	0.0691542
388.993	0.06953525
389.207	0.07007684
389.421	0.07025443
389.635	0.07019319
389.85	0.06992082
390.064	0.07029206
390.278	0.06997434
390.492	0.0698067
390.706	0.06996472
390.92	0.06989056
391.134	0.0699264
391.348	0.07088536
391.561	0.070492
391.775	0.07053388
391.989	0.07005943
392.203	0.07022579
392.417	0.0704968
392.631	0.0710344
392.845	0.07059412
393.059	0.07105853
393.273	0.07099315
393.486	0.07111636
393.7	0.0710716
393.914	0.07120069
394.128	0.07076538
394.342	0.07081629
394.555	0.07035857
394.769	0.07079545
394.983	0.07142323
395.197	0.07149315
395.41	0.07189019
395.624	0.07196236
395.838	0.07214964
396.051	0.07310035
396.265	0.07319512
396.479	0.0732395
396.692	0.07332714
396.906	0.07316673
397.12	0.07330874
397.333	0.07297966
397.547	0.07266944
397.76	0.07276817
397.974	0.07273421
398.187	0.07298701
398.401	0.07301311
398.614	0.07345715
398.828	0.07354676
399.041	0.07354549
399.255	0.0735181
399.468	0.07339963
399.682	0.073737
399.895	0.0738509
400.109	0.07357462
400.322	0.07360643
400.536	0.07286842
400.749	0.07317635
400.962	0.07325073
401.176	0.07282992
401.389	0.07290626
401.602	0.07267385
401.816	0.07302332
402.029	0.07347889
402.242	0.07325388
402.456	0.07324946
402.669	0.07317871
402.882	0.072882
403.095	0.07306577
403.309	0.07285205
403.522	0.07303598
403.735	0.07295368
403.948	0.07292388
404.161	0.07310509
404.375	0.07294348
404.588	0.07330387
404.801	0.07355763
405.014	0.07382764
405.227	0.07397464
405.44	0.07424956
405.653	0.07449192
405.866	0.07507307
406.079	0.07483107
406.293	0.07477781
406.506	0.07446533
406.719	0.07449543
406.932	0.07438181
407.145	0.0740952
407.358	0.07380042
407.571	0.07374833
407.784	0.07361775
407.996	0.07397955
408.209	0.07371553
408.422	0.0736162
408.635	0.07356997
408.848	0.07354757
409.061	0.07321887
409.274	0.07324862
409.487	0.0731456
409.7	0.07343803
409.912	0.0734512
410.125	0.07353201
410.338	0.07336802
410.551	0.07340097
410.764	0.07316582
410.976	0.07285598
411.189	0.07287482
411.402	0.0725603
411.615	0.07232067
411.827	0.07245808
412.04	0.07231169
412.253	0.07219989
412.465	0.07195146
412.678	0.07145834
412.891	0.07159981
413.103	0.07157899
413.316	0.07137779
413.529	0.07139894
413.741	0.0714979
413.954	0.07165858
414.166	0.07161139
414.379	0.07149653
414.591	0.07145156
414.804	0.0711867
415.016	0.07099282
415.229	0.0708586
415.441	0.07076934
415.654	0.07100874
415.866	0.0709005
416.079	0.07080769
416.291	0.07076151
416.504	0.07084672
416.716	0.07069076
416.928	0.07035163
417.141	0.07007186
417.353	0.06971253
417.566	0.06941221
417.778	0.06931029
417.99	0.06897474
418.203	0.06871377
418.415	0.06857134
418.627	0.06820518
418.839	0.0683016
419.052	0.06848143
419.264	0.06858788
419.476	0.06865259
419.688	0.06860851
419.901	0.06848058
420.113	0.06863362
420.325	0.06835905
420.537	0.06796802
420.749	0.06758079
420.961	0.06760707
421.174	0.06749332
421.386	0.06748853
421.598	0.06704381
421.81	0.06688734
422.022	0.06654465
422.234	0.06636968
422.446	0.06598289
422.658	0.0657105
422.87	0.06556558
423.082	0.06540275
423.294	0.06544596
423.506	0.06529683
423.718	0.06519378
423.93	0.06503946
424.142	0.06461462
424.354	0.06437944
424.566	0.06426375
424.778	0.0637632
424.99	0.06363125
425.202	0.0632372
425.414	0.06287837
425.625	0.06320455
425.837	0.06295395
426.049	0.06269399
426.261	0.06265474
426.473	0.06256884
426.684	0.06242691
426.896	0.06233246
427.108	0.0619268
427.32	0.06155904
427.531	0.06142299
427.743	0.06120742
427.955	0.06106779
428.167	0.06085383
428.378	0.06072578
428.59	0.06056853
428.802	0.06057528
429.013	0.06033847
429.225	0.05991834
429.436	0.05945507
429.648	0.05920706
429.86	0.05889142
430.071	0.05853831
430.283	0.05816862
430.494	0.05790025
430.706	0.05769057
430.917	0.05744996
431.129	0.05726217
431.34	0.05695791
431.552	0.05673893
431.763	0.05645152
431.975	0.05610432
432.186	0.05581263
432.398	0.05572938
432.609	0.05538892
432.821	0.05532011
433.032	0.05498426
433.243	0.05479777
433.455	0.05458353
433.666	0.0545245
433.877	0.05441727
434.089	0.05421589
434.3	0.05396347
434.511	0.05388063
434.723	0.05356598
434.934	0.0534088
435.145	0.05306891
435.356	0.05274788
435.568	0.05257904
435.779	0.05232349
435.99	0.05202602
436.201	0.05200187
436.412	0.05177394
436.624	0.0515356
436.835	0.05128668
437.046	0.05126291
437.257	0.05089639
437.468	0.05076363
437.679	0.05027577
437.89	0.04991742
438.101	0.04970598
438.312	0.04934282
438.523	0.04886414
438.734	0.04859519
438.945	0.04819008
439.156	0.04803216
439.367	0.04782542
439.578	0.04745211
439.789	0.04718912
440	0.04670146
440.211	0.04650587
440.422	0.04617159
440.633	0.04581332
440.844	0.045354
441.055	0.04517168
441.266	0.04494318
441.477	0.04490365
441.687	0.04441645
441.898	0.04410987
442.109	0.04376817
442.32	0.04360047
442.531	0.04329863
442.741	0.04300638
442.952	0.04257486
443.163	0.04237094
443.374	0.04205528
443.584	0.0418271
443.795	0.041439
444.006	0.04112219
444.216	0.04069347
444.427	0.04039208
444.638	0.04028517
444.848	0.04007029
445.059	0.04000072
445.27	0.03974555
445.48	0.03955063
445.691	0.03938329
445.901	0.03928664
446.112	0.03882161
446.323	0.03858368
446.533	0.03803654
446.744	0.0378754
446.954	0.03760896
447.165	0.03727553
447.375	0.03689307
447.586	0.03673971
447.796	0.03642496
448.006	0.03616819
448.217	0.03602302
448.427	0.0357725
448.638	0.03553666
448.848	0.03534814
449.058	0.03516824
449.269	0.03491499
449.479	0.03463594
449.689	0.03418287
449.9	0.03385677
450.11	0.03367491
450.32	0.03333164
450.531	0.03299426
450.741	0.0328548
450.951	0.0326282
451.161	0.03245769
451.372	0.0321608
451.582	0.03187425
451.792	0.03174085
452.002	0.03151336
452.212	0.03136101
452.422	0.03123908
452.633	0.03096394
452.843	0.03075799
453.053	0.03058906
453.263	0.03027775
453.473	0.02992976
453.683	0.02946551
453.893	0.02912306
454.103	0.02889271
454.313	0.02872236
454.523	0.02847149
454.733	0.02825992
454.943	0.02815721
455.153	0.0279185
455.363	0.02787226
455.573	0.02757912
455.783	0.02734232
455.993	0.02708929
456.203	0.02697405
456.413	0.02671923
456.623	0.02657792
456.833	0.02622276
457.042	0.0260585
457.252	0.02591391
457.462	0.02567719
457.672	0.02526803
457.882	0.0250498
458.091	0.02485696
458.301	0.02472162
458.511	0.02455152
458.721	0.02427438
458.931	0.02402931
459.14	0.02394051
459.35	0.02393718
459.56	0.02378659
459.769	0.02356506
459.979	0.02345932
460.189	0.02333755
460.398	0.02322262
460.608	0.02306247
460.817	0.02280207
461.027	0.02269001
461.237	0.02259754
461.446	0.0224083
461.656	0.02213464
461.865	0.02194207
462.075	0.0217868
462.284	0.02152496
462.494	0.02128341
462.703	0.02110575
462.913	0.02101577
463.122	0.02103091
463.332	0.020816
463.541	0.02069637
463.751	0.02049219
463.96	0.02025993
464.169	0.02007751
464.379	0.01989091
464.588	0.01959408
464.797	0.01947586
465.007	0.01924658
465.216	0.01923108
465.425	0.01922917
465.635	0.01908371
465.844	0.01884608
466.053	0.01879785
466.263	0.01865849
466.472	0.0184931
466.681	0.01823952
466.89	0.01802718
467.099	0.01790276
467.309	0.01774148
467.518	0.01756859
467.727	0.01750745
467.936	0.01746683
468.145	0.01733778
468.354	0.01726493
468.563	0.0171577
468.772	0.01710669
468.982	0.0169733
469.191	0.01679208
469.4	0.01665265
469.609	0.01666706
469.818	0.01653999
470.027	0.01645477
470.236	0.01632556
470.445	0.01626602
470.654	0.01619525
470.863	0.0160319
471.072	0.01586139
471.28	0.01575328
471.489	0.01556767
471.698	0.01552785
471.907	0.01532955
472.116	0.01519548
472.325	0.0151699
472.534	0.01505705
472.743	0.01493384
472.951	0.01490047
473.16	0.01472105
473.369	0.01466761
473.578	0.01469771
473.786	0.01461656
473.995	0.0145392
474.204	0.01449485
474.413	0.01444905
474.621	0.01441795
474.83	0.01436782
475.039	0.01425481
475.247	0.01410484
475.456	0.01408708
475.665	0.01397058
475.873	0.0138897
476.082	0.01387677
476.291	0.01392878
476.499	0.01385464
476.708	0.01378473
476.916	0.01373157
477.125	0.01363732
477.333	0.01346587
477.542	0.01337738
477.75	0.01322367
477.959	0.01309635
478.167	0.01307335
478.376	0.01304637
478.584	0.01302932
478.793	0.01297453
479.001	0.01289189
479.209	0.01285062
479.418	0.01290857
479.626	0.01294001
479.834	0.0128664
480.043	0.01283801
480.251	0.01284193
480.459	0.01276964
480.668	0.01269119
480.876	0.0125824
481.084	0.0125334
481.293	0.01250021
481.501	0.01254215
481.709	0.01255448
481.917	0.01265042
482.125	0.01260071
482.334	0.01262968
482.542	0.01259793
482.75	0.01247714
482.958	0.01239477
483.166	0.01236074
483.374	0.01226863
483.583	0.01224434
483.791	0.01222142
483.999	0.01212533
484.207	0.01220656
484.415	0.01216326
484.623	0.01219636
484.831	0.01218867
485.039	0.01219121
485.247	0.01211343
485.455	0.01217115
485.663	0.012151
485.871	0.01210973
486.079	0.01209474
486.287	0.01210899
486.495	0.01213571
486.702	0.012155
486.91	0.01211414
487.118	0.01204498
487.326	0.01204319
487.534	0.01199698
487.742	0.01196787
487.95	0.01196665
488.157	0.01190283
488.365	0.01194393
488.573	0.01198577
488.781	0.01203001
488.988	0.01197986
489.196	0.01203231
489.404	0.01197943
489.612	0.01202813
489.819	0.01206367
490.027	0.01205412
490.235	0.01207021
490.442	0.01216901
490.65	0.01208674
490.857	0.01211075
491.065	0.01215519
491.273	0.01210301
491.48	0.01212256
491.688	0.01214293
491.895	0.0121339
492.103	0.01215837
492.31	0.01219212
492.518	0.01220859
492.725	0.01217535
492.933	0.01221327
493.14	0.01221766
493.348	0.01221641
493.555	0.01227974
493.763	0.01230422
493.97	0.01234029
494.177	0.01240169
494.385	0.0123813
494.592	0.01235865
494.8	0.01236715
495.007	0.01234966
495.214	0.01243993
495.422	0.01244848
495.629	0.01253191
495.836	0.01261325
496.043	0.01270469
496.251	0.01276323
496.458	0.01287597
496.665	0.01287406
496.872	0.01292743
497.08	0.01294085
497.287	0.01297264
497.494	0.01302491
497.701	0.01307057
497.908	0.01306722
498.115	0.01310494
498.322	0.01314776
498.53	0.01313109
498.737	0.01324094
498.944	0.01331278
499.151	0.01338942
499.358	0.01342865
499.565	0.01353124
499.772	0.01355812
499.979	0.01366962
500.186	0.01368781
500.393	0.01371786
500.6	0.01372338
500.807	0.01384876
501.014	0.01385203
501.221	0.01389761
501.427	0.01396943
501.634	0.01398368
501.841	0.01401026
502.048	0.01408178
502.255	0.01407868
502.462	0.014151
502.669	0.01423044
502.875	0.01429876
503.082	0.01437842
503.289	0.01444376
503.496	0.01446462
503.702	0.01443567
503.909	0.01444452
504.116	0.01450422
504.323	0.01450577
504.529	0.01456548
504.736	0.01458074
504.943	0.01465267
505.149	0.01477731
505.356	0.01489134
505.563	0.01498115
505.769	0.01510937
505.976	0.0151455
506.182	0.01527801
506.389	0.01537297
506.595	0.01542106
506.802	0.01543416
507.008	0.01548341
507.215	0.01556315
507.421	0.01564985
507.628	0.01570529
507.834	0.01576372
508.041	0.01584032
508.247	0.0159259
508.454	0.01599706
508.66	0.01604491
508.866	0.01608816
509.073	0.01617645
509.279	0.01623953
509.486	0.01633257
509.692	0.01644633
509.898	0.01650828
510.105	0.01658008
510.311	0.01664973
510.517	0.01671264
510.723	0.01682924
510.93	0.01692831
511.136	0.017029
511.342	0.0171598
511.548	0.01726298
511.754	0.01739712
511.961	0.01747119
512.167	0.01750782
512.373	0.01758332
512.579	0.01767206
512.785	0.01770419
512.991	0.01776427
513.197	0.01782743
513.404	0.01789953
513.61	0.01807427
513.816	0.01819312
514.022	0.01825669
514.228	0.01833788
514.434	0.01840497
514.64	0.01849277
514.846	0.0186131
515.052	0.0186866
515.258	0.01877611
515.464	0.01888932
515.669	0.01898157
515.875	0.01912544
516.081	0.01919184
516.287	0.01931237
516.493	0.01941547
516.699	0.01951625
516.905	0.0195768
517.111	0.01967678
517.316	0.01978007
517.522	0.01993312
517.728	0.01998442
517.934	0.02003521
518.139	0.02011733
518.345	0.02021065
518.551	0.02032908
518.757	0.02040887
518.962	0.02052435
519.168	0.02064625
519.374	0.02073321
519.579	0.02081397
519.785	0.02093468
519.991	0.02107518
520.196	0.02116928
520.402	0.02125952
520.607	0.02140504
520.813	0.02154677
521.018	0.02167084
521.224	0.02184383
521.429	0.02198163
521.635	0.02211584
521.84	0.02219583
522.046	0.02229089
522.251	0.02245682
522.457	0.02256717
522.662	0.02267617
522.868	0.02278366
523.073	0.02286677
523.279	0.0230444
523.484	0.02316821
523.689	0.02325009
523.895	0.02343415
524.1	0.02356447
524.305	0.02371093
524.511	0.02383587
524.716	0.02397299
524.921	0.02412934
525.126	0.02425445
525.332	0.02432114
525.537	0.02440641
525.742	0.02454331
525.947	0.02469204
526.153	0.02476056
526.358	0.02485821
526.563	0.02496737
526.768	0.02513128
526.973	0.02523633
527.178	0.02533164
527.383	0.02544387
527.588	0.02560282
527.794	0.025742
527.999	0.0259117
528.204	0.02606755
528.409	0.02624067
528.614	0.0263593
528.819	0.02651605
529.024	0.02662102
529.229	0.02675017
529.434	0.02684984
529.639	0.02696441
529.843	0.02711038
530.048	0.02723006
530.253	0.02733802
530.458	0.02752975
530.663	0.02767863
530.868	0.02786893
531.073	0.02803537
531.278	0.02824468
531.482	0.02843115
531.687	0.02858342
531.892	0.02873562
532.097	0.02892894
532.302	0.02903601
532.506	0.02917199
532.711	0.02926324
532.916	0.02948108
533.12	0.02967866
533.325	0.02979667
533.53	0.02993608
533.734	0.03014739
533.939	0.03033979
534.144	0.03049424
534.348	0.0305519
534.553	0.03069927
534.757	0.03089253
534.962	0.03102744
535.167	0.03116833
535.371	0.03130276
535.576	0.03150571
535.78	0.0317026
535.985	0.03188133
536.189	0.0320382
536.394	0.03223398
536.598	0.03240582
536.803	0.03258975
537.007	0.03271658
537.211	0.03287997
537.416	0.03305857
537.62	0.0332364
537.825	0.03335411
538.029	0.03350975
538.233	0.03366464
538.438	0.0338446
538.642	0.03403224
538.846	0.03421639
539.05	0.03438794
539.255	0.03462751
539.459	0.03482768
539.663	0.0349902
539.867	0.03518062
540.072	0.0353583
540.276	0.0355256
540.48	0.03574236
540.684	0.03589874
540.888	0.03607941
541.092	0.03628364
541.297	0.03645228
541.501	0.03658724
541.705	0.03677289
541.909	0.03694294
542.113	0.0371015
542.317	0.03728766
542.521	0.03746972
542.725	0.03765107
542.929	0.0378571
543.133	0.03799282
543.337	0.03816252
543.541	0.0383345
543.745	0.03852483
543.949	0.03868646
544.153	0.03886892
544.357	0.03906249
544.56	0.03928188
544.764	0.03950788
544.968	0.03974135
545.172	0.03991003
545.376	0.04013045
545.58	0.04034428
545.783	0.04059887
545.987	0.04079727
546.191	0.04092921
546.395	0.04116632
546.598	0.04137656
546.802	0.04156443
547.006	0.04174571
547.21	0.04187536
547.413	0.04212028
547.617	0.04236354
547.821	0.04250691
548.024	0.0427245
548.228	0.04294095
548.431	0.0431555
548.635	0.04335735
548.839	0.04351009
549.042	0.04373672
549.246	0.04395438
549.449	0.04410585
549.653	0.04434862
549.856	0.044545
550.06	0.04480185
550.263	0.0450731
550.467	0.04529904
550.67	0.04550647
550.874	0.04573033
551.077	0.04589197
551.28	0.04611594
551.484	0.04631604
551.687	0.04649427
551.891	0.04667284
552.094	0.04686637
552.297	0.04715041
552.501	0.04741092
552.704	0.04768091
552.907	0.04788321
553.11	0.04815651
553.314	0.0483959
553.517	0.04863598
553.72	0.0488373
553.923	0.04905174
554.127	0.04920756
554.33	0.04946439
554.533	0.0496472
554.736	0.0498392
554.939	0.05008543
555.142	0.05031615
555.345	0.05054703
555.549	0.05079723
555.752	0.05096806
555.955	0.05118683
556.158	0.05148578
556.361	0.0517511
556.564	0.05197102
556.767	0.0522063
556.97	0.05245162
557.173	0.05270614
557.376	0.05294849
557.579	0.05316192
557.782	0.05337046
557.984	0.05362673
558.187	0.05387013
558.39	0.05411317
558.593	0.05441306
558.796	0.0546582
558.999	0.05484182
559.202	0.0550947
559.404	0.05536146
559.607	0.05558061
559.81	0.05583566
560.013	0.05604201
560.216	0.05630721
560.418	0.05659932
560.621	0.05684257
560.824	0.05707626
561.026	0.05736014
561.229	0.0575955
561.432	0.05784546
561.634	0.05806723
561.837	0.05831704
562.04	0.05855232
562.242	0.05882246
562.445	0.05905131
562.647	0.0593112
562.85	0.05955133
563.053	0.05980991
563.255	0.06007472
563.458	0.06032119
563.66	0.06054989
563.863	0.06080387
564.065	0.06102359
564.268	0.06128853
564.47	0.06154695
564.672	0.06177186
564.875	0.06206256
565.077	0.06228119
565.28	0.06253529
565.482	0.06284904
565.684	0.06310952
565.887	0.0633323
566.089	0.06358273
566.291	0.06379137
566.494	0.06405514
566.696	0.06429178
566.898	0.06450434
567.1	0.06475266
567.303	0.06507408
567.505	0.06531716
567.707	0.06557747
567.909	0.06584019
568.111	0.06610529
568.314	0.06639051
568.516	0.06665983
568.718	0.06691708
568.92	0.06723248
569.122	0.06748135
569.324	0.06776595
569.526	0.06801268
569.728	0.06828063
569.93	0.06853477
570.132	0.06878612
570.334	0.06904572
570.536	0.06935109
570.738	0.06956925
570.94	0.06985122
571.142	0.07013169
571.344	0.07038522
571.546	0.07063329
571.748	0.07088353
571.95	0.07115241
572.152	0.07145924
572.354	0.07172008
572.555	0.07201581
572.757	0.07230945
572.959	0.07259208
573.161	0.07286029
573.363	0.07308691
573.564	0.07335492
573.766	0.07361272
573.968	0.07382717
574.17	0.07409382
574.371	0.07432531
574.573	0.0745908
574.775	0.07483586
574.976	0.07508243
575.178	0.07536444
575.38	0.07560334
575.581	0.07585065
575.783	0.07614563
575.985	0.07642016
576.186	0.07671197
576.388	0.07699057
576.589	0.07722936
576.791	0.07753241
576.992	0.07780246
577.194	0.07805239
577.395	0.07827698
577.597	0.07854555
577.798	0.07882605
578	0.07909677
578.201	0.07935249
578.402	0.07958914
578.604	0.07982528
578.805	0.08009751
579.007	0.08041376
579.208	0.08067964
579.409	0.08091209
579.611	0.08116896
579.812	0.08145586
580.013	0.08179395
580.215	0.082099
580.416	0.08231915
580.617	0.0826101
580.818	0.08293756
581.019	0.08320197
581.221	0.08348639
581.422	0.08373419
581.623	0.08401779
581.824	0.08425005
582.025	0.08449901
582.226	0.08475308
582.428	0.08505618
582.629	0.08532809
582.83	0.0856561
583.031	0.08590444
583.232	0.08621413
583.433	0.08650608
583.634	0.08677252
583.835	0.08698103
584.036	0.08724578
584.237	0.08742432
584.438	0.0876479
584.639	0.08788951
584.84	0.08814521
585.041	0.08840238
585.242	0.08872364
585.442	0.0890063
585.643	0.08930156
585.844	0.08957466
586.045	0.08985617
586.246	0.09006334
586.447	0.0903352
586.647	0.09057926
586.848	0.0908212
587.049	0.09107359
587.25	0.09137978
587.45	0.09163701
587.651	0.09190889
587.852	0.09219105
588.053	0.09248283
588.253	0.09274789
588.454	0.09299556
588.655	0.09322244
588.855	0.09353889
589.056	0.0938201
589.256	0.0940602
589.457	0.09428665
589.658	0.09456444
589.858	0.09483814
590.059	0.09510109
590.259	0.09532495
590.46	0.09558152
590.66	0.09583651
590.861	0.09612498
591.061	0.09634346
591.262	0.09660179
591.462	0.09689699
591.662	0.09714248
591.863	0.09737808
592.063	0.09759564
592.264	0.09783064
592.464	0.09809143
592.664	0.09834759
592.865	0.09862256
593.065	0.09884321
593.265	0.09911057
593.465	0.09937387
593.666	0.09961536
593.866	0.09985222
594.066	0.10013766
594.266	0.10030323
594.467	0.10059097
594.667	0.10080001
594.867	0.10109869
595.067	0.10132522
595.267	0.10156962
595.467	0.10181167
595.668	0.10206769
595.868	0.10231855
596.068	0.10263795
596.268	0.10283726
596.468	0.10311167
596.668	0.1033468
596.868	0.10356085
597.068	0.10381938
597.268	0.10407237
597.468	0.10422019
597.668	0.10449435
597.868	0.10471089
598.068	0.104998
598.268	0.10523015
598.467	0.1054972
598.667	0.10566393
598.867	0.10594618
599.067	0.10615701
599.267	0.10635447
599.467	0.10652544
599.667	0.1067351
599.866	0.10690357
600.066	0.1071308
600.266	0.10732202
600.466	0.10752282
600.665	0.10772749
600.865	0.10800502
601.065	0.10823363
601.264	0.10842105
601.464	0.10864336
601.664	0.10890402
601.863	0.10911677
602.063	0.10937774
602.263	0.10949693
602.462	0.1097059
602.662	0.10993851
602.861	0.11018845
603.061	0.11038267
603.26	0.11060184
603.46	0.11076771
603.659	0.11105077
603.859	0.11122187
604.058	0.11139807
604.258	0.11161615
604.457	0.11182179
604.657	0.11198568
604.856	0.11216061
605.056	0.11236137
605.255	0.11256104
605.454	0.11282068
605.654	0.11296342
605.853	0.11316292
606.052	0.11341629
606.252	0.11368051
606.451	0.1138622
606.65	0.11409435
606.849	0.11422125
607.049	0.11445356
607.248	0.11464965
607.447	0.11483612
607.646	0.11498591
607.845	0.11519416
608.045	0.11533866
608.244	0.11567543
608.443	0.11583885
608.642	0.11602178
608.841	0.11619997
609.04	0.11640362
609.239	0.11660052
609.438	0.11674098
609.637	0.11686166
609.836	0.11704326
610.035	0.11718496
610.234	0.11738226
610.433	0.1175375
610.632	0.11767097
610.831	0.11798385
611.03	0.11809958
611.229	0.11833464
611.428	0.11854108
611.627	0.11869091
611.826	0.11892494
612.025	0.11918673
612.224	0.11928427
612.422	0.1194825
612.621	0.11960404
612.82	0.11978586
613.019	0.11999477
613.218	0.12019832
613.416	0.12029251
613.615	0.12051512
613.814	0.12072306
614.012	0.12092094
614.211	0.12107386
614.41	0.12127109
614.608	0.12137912
614.807	0.12154659
615.006	0.12170562
615.204	0.12184298
615.403	0.12202589
615.602	0.12222029
615.8	0.12240478
615.999	0.12255627
616.197	0.12272387
616.396	0.12293369
616.594	0.12306923
616.793	0.12322845
616.991	0.12338106
617.19	0.12343475
617.388	0.12364924
617.586	0.12381083
617.785	0.12390399
617.983	0.12410084
618.182	0.12420699
618.38	0.12430391
618.578	0.12448582
618.777	0.12462545
618.975	0.12479056
619.173	0.12495915
619.372	0.12508308
619.57	0.12521795
619.768	0.12540134
619.966	0.12560683
620.165	0.12571593
620.363	0.12588569
620.561	0.12595445
620.759	0.12610548
620.957	0.12629421
621.155	0.12643732
621.354	0.1264529
621.552	0.12662997
621.75	0.12675447
621.948	0.12699017
622.146	0.12714211
622.344	0.12724838
622.542	0.12741957
622.74	0.1276396
622.938	0.12770424
623.136	0.12781624
623.334	0.12794522
623.532	0.12799027
623.73	0.1281165
623.928	0.12825891
624.126	0.12842637
624.324	0.12863226
624.522	0.12872925
624.719	0.12882001
624.917	0.12902908
625.115	0.12910355
625.313	0.12918791
625.511	0.12927846
625.708	0.12929763
625.906	0.12941899
626.104	0.12948475
626.302	0.12963972
626.499	0.12984439
626.697	0.12998681
626.895	0.13003163
627.093	0.13018687
627.29	0.13034154
627.488	0.13050678
627.686	0.13062297
627.883	0.130681
628.081	0.13072087
628.278	0.13096168
628.476	0.13105104
628.673	0.13116265
628.871	0.13125318
629.068	0.13129123
629.266	0.13143162
629.463	0.13152573
629.661	0.13155921
629.858	0.13162897
630.056	0.13170374
630.253	0.13178716
630.451	0.131902
630.648	0.1319963
630.845	0.13212809
631.043	0.13224651
631.24	0.13242784
631.438	0.13256904
631.635	0.1327259
631.832	0.13279773
632.029	0.13288525
632.227	0.13302133
632.424	0.13315455
632.621	0.13325009
632.818	0.13329797
633.016	0.13337175
633.213	0.13344963
633.41	0.13356168
633.607	0.13362458
633.804	0.13365224
634.001	0.13368664
634.199	0.13381469
634.396	0.1338807
634.593	0.13397818
634.79	0.13406625
634.987	0.13418178
635.184	0.13432775
635.381	0.13446501
635.578	0.13459342
635.775	0.13470041
635.972	0.13481408
636.169	0.13488891
636.366	0.13492662
636.563	0.1349678
636.76	0.13501894
636.957	0.13503975
637.153	0.13505729
637.35	0.13513537
637.547	0.13521372
637.744	0.13532833
637.941	0.13542328
638.138	0.13554482
638.334	0.13558887
638.531	0.13572811
638.728	0.13581944
638.925	0.13595005
639.121	0.13597253
639.318	0.13603587
639.515	0.13608638
639.711	0.13623736
639.908	0.13629927
640.105	0.13632782
640.301	0.13635123
640.498	0.13643126
640.695	0.13648509
640.891	0.13652427
641.088	0.13651105
641.284	0.13658089
641.481	0.13663029
641.677	0.13666492
641.874	0.13672257
642.07	0.13682045
642.267	0.13693123
642.463	0.137042
642.66	0.13711408
642.856	0.13718432
643.053	0.13723226
643.249	0.13732917
643.445	0.13737185
643.642	0.13739139
643.838	0.1374659
644.034	0.1375289
644.231	0.13759931
644.427	0.13766944
644.623	0.13771612
644.82	0.13780911
645.016	0.13789739
645.212	0.13789055
645.408	0.13793877
645.604	0.13811384
645.801	0.13820865
645.997	0.1382517
646.193	0.13823559
646.389	0.13829749
646.585	0.13835686
646.781	0.13842017
646.977	0.13836891
647.173	0.13837827
647.37	0.13840893
647.566	0.1384732
647.762	0.13849095
647.958	0.13858752
648.154	0.13860757
648.35	0.13868801
648.546	0.1387616
648.742	0.13892469
648.937	0.13895672
649.133	0.13908003
649.329	0.13919918
649.525	0.13929575
649.721	0.13934572
649.917	0.13947035
650.113	0.1394255
650.309	0.13955743
650.504	0.13955837
650.7	0.13954483
650.896	0.13962483
651.092	0.1396944
651.287	0.13969743
651.483	0.13981629
651.679	0.13982259
651.875	0.13990896
652.07	0.13989851
652.266	0.13992662
652.462	0.13993191
652.657	0.13997821
652.853	0.13998058
653.048	0.14003351
653.244	0.14001131
653.44	0.14010766
653.635	0.14009408
653.831	0.14020541
654.026	0.14030929
654.222	0.14035402
654.417	0.14048706
654.613	0.14055607
654.808	0.14059416
655.004	0.14069056
655.199	0.14069562
655.394	0.14070441
655.59	0.14080202
655.785	0.14073382
655.98	0.14084313
656.176	0.14087216
656.371	0.14098046
656.566	0.14105213
656.762	0.14104722
656.957	0.14109072
657.152	0.14117507
657.348	0.1412336
657.543	0.14135184
657.738	0.14137637
657.933	0.14137725
658.128	0.14142701
658.324	0.1413841
658.519	0.14144528
658.714	0.14143215
658.909	0.14143924
659.104	0.14146419
659.299	0.14154026
659.494	0.1416052
659.689	0.14171338
659.884	0.14172467
660.079	0.14174224
660.274	0.14180499
660.469	0.14183067
660.664	0.14192213
660.859	0.1420061
661.054	0.1420662
661.249	0.14214149
661.444	0.1422201
661.639	0.14224699
661.834	0.14229566
662.029	0.14234282
662.224	0.14233957
662.418	0.1424087
662.613	0.14243269
662.808	0.14247168
663.003	0.14250565
663.198	0.14252236
663.392	0.14252106
663.587	0.14267009
663.782	0.14264072
663.977	0.142702
664.171	0.14274672
664.366	0.14282844
664.561	0.14294544
664.755	0.1429967
664.95	0.14293468
665.144	0.14304508
665.339	0.14314686
665.534	0.14323338
665.728	0.14329013
665.923	0.14332275
666.117	0.14334908
666.312	0.14343689
666.506	0.14349382
666.701	0.14348372
666.895	0.1435148
667.09	0.14351385
667.284	0.14358543
667.479	0.14362222
667.673	0.14366115
667.867	0.14374883
668.062	0.14380001
668.256	0.14386113
668.45	0.14397242
668.645	0.1440129
668.839	0.14414489
669.033	0.14422813
669.228	0.14422944
669.422	0.14434187
669.616	0.14440888
669.81	0.14447173
670.004	0.14450398
670.199	0.14453396
670.393	0.1445538
670.587	0.14459636
670.781	0.14461748
670.975	0.14468343
671.169	0.14465269
671.363	0.14471354
671.558	0.14470488
671.752	0.14477665
671.946	0.14487574
672.14	0.14495376
672.334	0.14495027
672.528	0.14514698
672.722	0.14518454
672.916	0.1453273
673.11	0.14535718
673.304	0.14545199
673.497	0.14548213
673.691	0.14563074
673.885	0.14564358
674.079	0.14579074
674.273	0.14581949
674.467	0.14591508
674.661	0.14595174
674.854	0.14603904
675.048	0.14610311
675.242	0.14617775
675.436	0.14619784
675.629	0.14627789
675.823	0.14629601
676.017	0.14637493
676.211	0.14642417
676.404	0.14650168
676.598	0.14652095
676.792	0.1465931
676.985	0.14667307
677.179	0.14676581
677.372	0.14680541
677.566	0.14692237
677.76	0.14697365
677.953	0.14707662
678.147	0.14714799
678.34	0.14726381
678.534	0.14737015
678.727	0.14750815
678.921	0.14758229
679.114	0.14766566
679.307	0.14779766
679.501	0.14789544
679.694	0.14796625
679.888	0.14805103
680.081	0.14809395
680.274	0.1481688
680.468	0.1482415
680.661	0.14829871
680.854	0.14845421
681.048	0.1485202
681.241	0.14861007
681.434	0.14864455
681.627	0.14869385
681.821	0.14881638
682.014	0.14893743
682.207	0.14892657
682.4	0.14899088
682.593	0.1491051
682.786	0.14921079
682.98	0.14933029
683.173	0.14943021
683.366	0.14947715
683.559	0.14955027
683.752	0.14966449
683.945	0.14973304
684.138	0.14985878
684.331	0.14990847
684.524	0.14997833
684.717	0.15001777
684.91	0.15015035
685.103	0.15022143
685.296	0.15031154
685.489	0.15039104
685.682	0.15049514
685.874	0.15059319
686.067	0.15072574
686.26	0.15086012
686.453	0.15093424
686.646	0.15099769
686.839	0.15112592
687.031	0.15124113
687.224	0.1512606
687.417	0.15135213
687.61	0.15140243
687.802	0.15147929
687.995	0.15162508
688.188	0.15168116
688.38	0.15172177
688.573	0.15185358
688.766	0.15192174
688.958	0.1519888
689.151	0.15211982
689.343	0.15221253
689.536	0.15227393
689.729	0.15239975
689.921	0.15252559
690.114	0.15260156
690.306	0.15269172
690.499	0.15277739
690.691	0.1528614
690.884	0.15300829
691.076	0.15313542
691.268	0.15319675
691.461	0.15327284
691.653	0.15338151
691.846	0.15352519
692.038	0.15361328
692.23	0.15368699
692.423	0.15376017
692.615	0.15386602
692.807	0.15403775
692.999	0.15416422
693.192	0.15419925
693.384	0.1542984
693.576	0.15435472
693.768	0.15450272
693.961	0.15458147
694.153	0.15466892
694.345	0.15475626
694.537	0.15491598
694.729	0.15505237
694.921	0.15515988
695.113	0.15524542
695.305	0.15536194
695.498	0.1554016
695.69	0.15553307
695.882	0.15562298
696.074	0.15570519
696.266	0.155831
696.458	0.1559185
696.65	0.15606147
696.842	0.15624033
697.033	0.156317
697.225	0.15638267
697.417	0.15654894
697.609	0.15667611
697.801	0.15677729
697.993	0.15692453
698.185	0.15710164
698.376	0.15719902
698.568	0.15734265
698.76	0.15744549
698.952	0.15759956
699.144	0.15774868
699.335	0.15781643
699.527	0.15788633
699.719	0.15804109
699.91	0.15820475
700.102	0.15826046
700.294	0.15835231
700.485	0.15846697
700.677	0.15858579
700.869	0.15869281
701.06	0.15882139
701.252	0.15889994
701.443	0.15907323
701.635	0.15922554
701.826	0.15935541
702.018	0.15947792
702.209	0.15960618
702.401	0.1596944
702.592	0.15985063
702.784	0.15997256
702.975	0.16009009
703.166	0.16020935
703.358	0.16035867
703.549	0.16048545
703.741	0.16062669
703.932	0.1607251
704.123	0.1608417
704.315	0.16096004
704.506	0.16113059
704.697	0.16124657
704.888	0.1614207
705.08	0.16156518
705.271	0.16175889
705.462	0.16181775
705.653	0.16197277
705.844	0.1620428
706.035	0.16217486
706.227	0.16224837
706.418	0.16237817
706.609	0.16245642
706.8	0.16268054
706.991	0.1627668
707.182	0.16289755
707.373	0.16300455
707.564	0.16311914
707.755	0.16319548
707.946	0.16333622
708.137	0.16339977
708.328	0.16350132
708.519	0.16365201
708.71	0.16380372
708.901	0.16394424
709.092	0.16414714
709.283	0.16420346
709.473	0.16435159
709.664	0.16455573
709.855	0.16466057
710.046	0.16474293
710.237	0.16491819
710.427	0.16500302
710.618	0.16521599
710.809	0.16539884
711	0.16549757
711.19	0.16563325
711.381	0.1658279
711.572	0.1658903
711.762	0.16602565
711.953	0.166148
712.144	0.16622808
712.334	0.16633639
712.525	0.16652524
712.715	0.16665802
712.906	0.16680252
713.097	0.16690038
713.287	0.16702279
713.478	0.16717063
713.668	0.16734488
713.859	0.16742375
714.049	0.16750758
714.239	0.167675
714.43	0.1678719
714.62	0.16803275
714.811	0.16821398
715.001	0.16833566
715.191	0.16846581
715.382	0.16861071
715.572	0.16876452
715.762	0.16883562
715.953	0.1689543
716.143	0.16906266
716.333	0.16919517
716.523	0.16934897
716.714	0.16951775
716.904	0.1695955
717.094	0.16985921
717.284	0.16997395
717.474	0.17007794
717.664	0.17022777
717.855	0.17034158
718.045	0.17045638
718.235	0.17062276
718.425	0.17071571
718.615	0.17085117
718.805	0.17105258
718.995	0.17115148
719.185	0.17131305
719.375	0.17151186
719.565	0.17170506
719.755	0.17184559
719.945	0.17204229
720.135	0.17215957
720.325	0.17235502
720.515	0.1724941
720.704	0.1726036
720.894	0.17273619
721.084	0.172897
721.274	0.1730473
721.464	0.17327122
721.654	0.17347819
721.843	0.17365114
722.033	0.17380329
722.223	0.1739079
722.413	0.17405179
722.602	0.17414353
722.792	0.17423721
722.982	0.17429647
723.171	0.17442577
723.361	0.17454954
723.55	0.17471539
723.74	0.17483984
723.93	0.17499598
724.119	0.17511053
724.309	0.17528635
724.498	0.17542329
724.688	0.17560391
724.877	0.17577752
725.067	0.1759094
725.256	0.17605201
725.446	0.17619722
725.635	0.17626269
725.825	0.17639466
726.014	0.17649718
726.203	0.17658921
726.393	0.17667831
726.582	0.1767619
726.771	0.1768504
726.961	0.17702863
727.15	0.17711755
727.339	0.17721336
727.529	0.1773319
727.718	0.17741352
727.907	0.17758575
728.096	0.17771849
728.286	0.17781208
728.475	0.1779748
728.664	0.17810383
728.853	0.17819036
729.042	0.17830175
729.231	0.17837355
729.42	0.17850382
729.609	0.17857532
729.799	0.17859612
729.988	0.17870134
730.177	0.17874623
730.366	0.17885445
730.555	0.17894259
730.744	0.17897505
730.933	0.17908882
731.122	0.17922056
731.31	0.17928808
731.499	0.17943439
731.688	0.17953633
731.877	0.1796337
732.066	0.17975657
732.255	0.17981104
732.444	0.17992415
732.632	0.18005153
732.821	0.18013703
733.01	0.1802621
733.199	0.18032447
733.388	0.18038441
733.576	0.1805144
733.765	0.18056754
733.954	0.18062097
734.142	0.18070054
734.331	0.18079799
734.52	0.18091563
734.708	0.18100607
734.897	0.18110098
735.086	0.1812144
735.274	0.18128016
735.463	0.1813874
735.651	0.18143928
735.84	0.18155613
736.028	0.18168761
736.217	0.18179648
736.405	0.18190684
736.594	0.182067
736.782	0.18212976
736.971	0.18225146
737.159	0.18228916
737.347	0.18239457
737.536	0.18242865
737.724	0.1824979
737.912	0.18250715
738.101	0.18257173
738.289	0.18261526
738.477	0.18273203
738.666	0.18274822
738.854	0.18287132
739.042	0.18296956
739.23	0.18306757
739.418	0.18319119
739.607	0.18327464
739.795	0.18336564
739.983	0.18348208
740.171	0.18354304
740.359	0.18359236
740.547	0.18365263
740.735	0.18373204
740.923	0.18387145
741.112	0.18392596
741.3	0.18401556
741.488	0.18411688
741.676	0.1842925
741.864	0.18435511
742.052	0.18448985
742.239	0.18449549
742.427	0.18456743
742.615	0.18459503
742.803	0.18462677
742.991	0.1846047
743.179	0.18472889
743.367	0.18476781
743.555	0.18484006
743.742	0.18494266
743.93	0.18504354
744.118	0.18511645
744.306	0.18523774
744.494	0.18529546
744.681	0.18533459
744.869	0.18540303
745.057	0.1854513
745.244	0.1854903
745.432	0.1855925
745.62	0.18561704
745.807	0.18568365
745.995	0.18577397
746.182	0.18582442
746.37	0.18584161
746.558	0.18590654
746.745	0.18595649
746.933	0.1860408
747.12	0.18611784
747.308	0.18619074
747.495	0.18629153
747.683	0.186359
747.87	0.18644646
748.057	0.18647719
748.245	0.18651257
748.432	0.18660792
748.62	0.18661115
748.807	0.18662347
748.994	0.18676053
749.182	0.18676942
749.369	0.18688514
749.556	0.18696316
749.743	0.18699574
749.931	0.18714229
750.118	0.18719563
750.305	0.18721745
750.492	0.18728279
750.68	0.1872921
750.867	0.1872855
751.054	0.18730147
751.241	0.18726129
751.428	0.18736975
751.615	0.18742663
751.802	0.18749552
751.989	0.18752459
752.176	0.18761654
752.363	0.18765924
752.55	0.18774173
752.737	0.18772785
752.924	0.18776147
753.111	0.1878485
753.298	0.18794981
753.485	0.18796663
753.672	0.18799746
753.859	0.18803309
754.046	0.18814334
754.233	0.18811418
754.42	0.18810162
754.606	0.18806553
754.793	0.18810616
754.98	0.18811421
755.167	0.18812452
755.353	0.18814167
755.54	0.18824227
755.727	0.18827114
755.914	0.18832838
756.1	0.18834098
756.287	0.18836555
756.474	0.18836902
756.66	0.18843217
756.847	0.18841917
757.033	0.18837003
757.22	0.18835319
757.407	0.18843016
757.593	0.18848598
757.78	0.18848459
757.966	0.18841368
758.153	0.18842352
758.339	0.1884655
758.526	0.18846891
758.712	0.18840536
758.898	0.18840478
759.085	0.18841604
759.271	0.18843651
759.458	0.18844911
759.644	0.18847772
759.83	0.18853873
760.017	0.18859827
760.203	0.18861801
760.389	0.18867414
760.576	0.18862088
760.762	0.18860241
760.948	0.18859249
761.134	0.18853003
761.32	0.18848274
761.507	0.18843032
761.693	0.18845379
761.879	0.18849229
762.065	0.18855494
762.251	0.18860576
762.437	0.18870071
762.623	0.18870243
762.809	0.18877251
762.995	0.1886919
763.181	0.18868905
763.367	0.18863151
763.553	0.18860071
763.739	0.18857507
763.925	0.1885828
764.111	0.18849593
764.297	0.18848667
764.483	0.18845392
764.669	0.1884244
764.855	0.18834794
765.041	0.18829003
765.227	0.18823452
765.412	0.18822597
765.598	0.18822584
765.784	0.18822211
765.97	0.18820957
766.156	0.18824322
766.341	0.18828147
766.527	0.18825519
766.713	0.18822613
766.898	0.1881742
767.084	0.18811654
767.27	0.18807605
767.455	0.188053
767.641	0.18797375
767.827	0.18794713
768.012	0.18789283
768.198	0.18792966
768.383	0.18795489
768.569	0.18794637
768.754	0.18788202
768.94	0.18779736
769.125	0.18777568
769.311	0.18774145
769.496	0.18767444
769.682	0.18764684
769.867	0.18763304
770.052	0.18762622
770.238	0.18756654
770.423	0.18754996
770.608	0.18758895
770.794	0.1875298
770.979	0.18742717
771.164	0.18738006
771.35	0.18730942
771.535	0.18732504
771.72	0.1872451
771.905	0.18717503
772.09	0.18714923
772.276	0.18714038
772.461	0.18700931
772.646	0.18700654
772.831	0.18689986
773.016	0.18681144
773.201	0.18674314
773.386	0.18667014
773.571	0.18658945
773.756	0.18653797
773.941	0.18644678
774.126	0.18645329
774.311	0.18643649
774.496	0.18637296
774.681	0.18630554
774.866	0.1862375
775.051	0.18616437
775.236	0.18606962
775.421	0.18595227
775.606	0.18587906
775.791	0.18576641
775.976	0.18573138
776.16	0.18565875
776.345	0.18561631
776.53	0.18558571
776.715	0.18554721
776.899	0.18549673
777.084	0.18543401
777.269	0.18530506
777.454	0.18519528
777.638	0.18514144
777.823	0.18497315
778.008	0.18488793
778.192	0.1848303
778.377	0.18471092
778.561	0.18463802
778.746	0.18468685
778.931	0.18461244
779.115	0.18463131
779.3	0.18451405
779.484	0.18434843
779.669	0.18426706
779.853	0.18418845
780.037	0.1839951
780.222	0.18381038
780.406	0.18365741
780.591	0.18359961
780.775	0.18353254
780.959	0.1834765
781.144	0.18336224
781.328	0.1832298
781.512	0.1831295
781.697	0.18305572
781.881	0.18290263
782.065	0.18278265
782.249	0.18265608
782.434	0.18253434
782.618	0.18246316
782.802	0.1824687
782.986	0.18236733
783.17	0.18229224
783.354	0.18217303
783.539	0.18201894
783.723	0.18193315
783.907	0.18180361
784.091	0.18161283
784.275	0.1815179
784.459	0.18137009
784.643	0.18130029
784.827	0.18124144
785.011	0.18113475
785.195	0.18109274
785.379	0.18100057
785.563	0.18087828
785.747	0.18079001
785.93	0.18069722
786.114	0.18057603
786.298	0.18038181
786.482	0.18017
786.666	0.18006622
786.85	0.17990507
787.033	0.17983175
787.217	0.17967769
787.401	0.17951295
787.585	0.17939295
787.768	0.1793078
787.952	0.17916105
788.136	0.17895472
788.319	0.17874264
788.503	0.17856078
788.687	0.17845532
788.87	0.17833849
789.054	0.17816204
789.237	0.17807481
789.421	0.17792628
789.605	0.17780134
789.788	0.17763405
789.972	0.17748816
790.155	0.17733448
790.338	0.17716515
790.522	0.17694714
790.705	0.17686052
790.889	0.17670737
791.072	0.17660078
791.256	0.17645975
791.439	0.17631158
791.622	0.17622366
791.806	0.1761414
791.989	0.17594083
792.172	0.17581181
792.355	0.17566102
792.539	0.17551826
792.722	0.17536093
792.905	0.17513602
793.088	0.17491741
793.271	0.17481642
793.455	0.17462103
793.638	0.17447483
793.821	0.17429647
794.004	0.17416447
794.187	0.17410099
794.37	0.17397652
794.553	0.17385141
794.736	0.17373024
794.919	0.17354704
795.102	0.1734096
795.285	0.17324469
795.468	0.17309777
795.651	0.17292472
795.834	0.17275062
796.017	0.17260897
796.2	0.17245853
796.383	0.17225431
796.566	0.17211508
796.749	0.17190723
796.931	0.17173846
797.114	0.17156681
797.297	0.17139152
797.48	0.17120122
797.663	0.17111733
797.845	0.17091827
798.028	0.1707946
798.211	0.17066531
798.393	0.1705288
798.576	0.17031934
798.759	0.17015367
798.941	0.16997174
799.124	0.16977074
799.307	0.16950308
799.489	0.1692634
799.672	0.16903614
799.854	0.16885797
800.037	0.16868787
800.219	0.16847035
800.402	0.16839444
800.584	0.16828474
800.767	0.16818549
800.949	0.16804876
801.132	0.16792151
801.314	0.16772624
801.496	0.16753877
801.679	0.16729573
801.861	0.16706272
802.043	0.1668398
802.226	0.16661937
802.408	0.16636057
802.59	0.16620309
802.772	0.1660339
802.955	0.16588149
803.137	0.16568301
803.319	0.16544473
803.501	0.16522699
803.684	0.16507898
803.866	0.16486403
804.048	0.16463809
804.23	0.16437111
804.412	0.16415995
804.594	0.16393267
804.776	0.16386034
804.958	0.16362234
805.14	0.16340985
805.322	0.16324396
805.504	0.16309148
805.686	0.16294659
805.868	0.16277637
806.05	0.16247794
806.232	0.16234942
806.414	0.16221831
806.596	0.16204472
806.778	0.16182088
806.96	0.16164871
807.141	0.16145396
807.323	0.16124905
807.505	0.16102231
807.687	0.16078733
807.869	0.16050834
808.05	0.16030201
808.232	0.16008048
808.414	0.15986801
808.595	0.1596551
808.777	0.15943737
808.959	0.15922093
809.14	0.15909612
809.322	0.15896027
809.504	0.15868259
809.685	0.15856188
809.867	0.15842569
810.048	0.15821709
810.23	0.15806477
810.411	0.1578243
810.593	0.1575413
810.774	0.15738454
810.956	0.1571087
811.137	0.15683626
811.319	0.15662248
811.5	0.1563717
811.681	0.15613081
811.863	0.1559194
812.044	0.15566015
812.225	0.15548956
812.407	0.15526072
812.588	0.15498763
812.769	0.15477576
812.951	0.15459389
813.132	0.15439868
813.313	0.15420503
813.494	0.15391082
813.675	0.15365307
813.857	0.15346233
814.038	0.15322475
814.219	0.15295672
814.4	0.15273504
814.581	0.15250287
814.762	0.15225368
814.943	0.152155
815.124	0.15190858
815.305	0.15169283
815.486	0.15147229
815.667	0.15119435
815.848	0.15093953
816.029	0.15074177
816.21	0.15044471
816.391	0.15029785
816.572	0.1500468
816.753	0.14982549
816.934	0.14962271
817.115	0.14942037
817.295	0.14918419
817.476	0.14889471
817.657	0.14857251
817.838	0.14833114
818.019	0.14804787
818.199	0.14776423
818.38	0.14752747
818.561	0.14733719
818.741	0.14713637
818.922	0.146934
819.103	0.14673315
819.283	0.14655024
819.464	0.14638291
819.645	0.14621168
819.825	0.14592003
820.006	0.14571081
820.186	0.14546573
820.367	0.14524048
820.547	0.14499817
820.728	0.14470714
820.908	0.14441317
821.089	0.14416099
821.269	0.14389986
821.45	0.1437258
821.63	0.14343536
821.81	0.14319553
821.991	0.14297558
822.171	0.14276226
822.351	0.14254013
822.532	0.14225432
822.712	0.14198324
822.892	0.14173591
823.072	0.14146695
823.253	0.14119519
823.433	0.14090951
823.613	0.14076529
823.793	0.14052111
823.973	0.14027088
824.154	0.14002533
824.334	0.13981884
824.514	0.13961838
824.694	0.13943948
824.874	0.13911842
825.054	0.13893085
825.234	0.1386491
825.414	0.13838718
825.594	0.13811979
825.774	0.13793416
825.954	0.13768647
826.134	0.13739601
826.314	0.13716537
826.494	0.13692326
826.674	0.13671158
826.854	0.13637183
827.033	0.1360038
827.213	0.13575963
827.393	0.13552836
827.573	0.13535389
827.753	0.13513608
827.932	0.13490411
828.112	0.13476435
828.292	0.13460189
828.472	0.13435011
828.651	0.13415808
828.831	0.13383055
829.011	0.13355746
829.19	0.13330042
829.37	0.13304595
829.549	0.13269091
829.729	0.13243715
829.909	0.13209615
830.088	0.1318433
830.268	0.13155942
830.447	0.13128607
830.627	0.13109246
830.806	0.13090316
830.986	0.13062047
831.165	0.13051391
831.344	0.13024804
831.524	0.13007104
831.703	0.1298193
831.883	0.12947007
832.062	0.12920949
832.241	0.12890536
832.421	0.12858221
832.6	0.12835327
832.779	0.12803593
832.958	0.12775553
833.138	0.12752485
833.317	0.1272809
833.496	0.12705246
833.675	0.12674924
833.854	0.12648914
834.034	0.12630002
834.213	0.12603975
834.392	0.12579116
834.571	0.12546776
834.75	0.12517934
834.929	0.12494675
835.108	0.12460563
835.287	0.12431368
835.466	0.12406553
835.645	0.12384324
835.824	0.12362829
836.003	0.12339086
836.182	0.12311783
836.361	0.12293296
836.54	0.12267624
836.719	0.1224464
836.897	0.12216221
837.076	0.12190887
837.255	0.12162623
837.434	0.12141937
837.613	0.12109388
837.791	0.12080189
837.97	0.12048862
838.149	0.12024145
838.328	0.11998586
838.506	0.11974239
838.685	0.11948093
838.864	0.11930941
839.042	0.11910173
839.221	0.11892425
839.4	0.11860089
839.578	0.1183063
839.757	0.11806741
839.935	0.11773045
840.114	0.11745947
840.292	0.11711918
840.471	0.11690021
840.649	0.11666299
840.828	0.11638983
841.006	0.1161869
841.185	0.11591626
841.363	0.11569571
841.541	0.11553071
841.72	0.11521441
841.898	0.11503752
842.076	0.11481726
842.255	0.11452865
842.433	0.11426679
842.611	0.11389516
842.789	0.11358793
842.968	0.11332866
843.146	0.11299542
843.324	0.11276036
843.502	0.11249165
843.68	0.11232024
843.859	0.11213687
844.037	0.11187624
844.215	0.11157675
844.393	0.11131602
844.571	0.11102932
844.749	0.11081184
844.927	0.11051645
845.105	0.11016346
845.283	0.10990344
845.461	0.10970529
845.639	0.10948169
845.817	0.10929664
845.995	0.10899407
846.173	0.10878545
846.351	0.10864026
846.529	0.108392
846.706	0.10808195
846.884	0.10781754
847.062	0.10749852
847.24	0.10719575
847.418	0.1068116
847.595	0.1064603
847.773	0.10621253
847.951	0.10594115
848.129	0.10572489
848.306	0.10549583
848.484	0.10531248
848.662	0.10519888
848.839	0.10498927
849.017	0.10470906
849.194	0.10449079
849.372	0.10420886
849.549	0.10404149
849.727	0.10375006
849.905	0.10339395
850.082	0.10310415
850.26	0.10292396
850.437	0.10270107
850.614	0.10243768
850.792	0.10211265
850.969	0.10186719
851.147	0.1016756
851.324	0.10143871
851.501	0.10117145
851.679	0.10084195
851.856	0.10055669
852.033	0.10024637
852.211	0.09995818
852.388	0.09964416
852.565	0.09940959
852.742	0.09911606
852.92	0.09883708
853.097	0.09859411
853.274	0.09842613
853.451	0.09824485
853.628	0.09805128
853.805	0.09780693
853.982	0.09760952
854.159	0.09741702
854.336	0.09719398
854.514	0.09680275
854.691	0.09645129
854.868	0.09621397
855.045	0.09591898
855.221	0.09556323
855.398	0.09535175
855.575	0.09511419
855.752	0.09500366
855.929	0.09488841
856.106	0.09459609
856.283	0.09445314
856.46	0.09435468
856.637	0.09406398
856.813	0.09385036
856.99	0.09358593
857.167	0.09333353
857.344	0.09310954
857.52	0.09282391
857.697	0.09250941
857.874	0.09228623
858.05	0.09193593
858.227	0.09171263
858.404	0.09146505
858.58	0.09124258
858.757	0.09102499
858.933	0.09081098
859.11	0.09064618
859.287	0.09044776
859.463	0.09017985
859.64	0.08988818
859.816	0.08962868
859.993	0.08938686
860.169	0.08908699
860.345	0.08880719
860.522	0.08856643
860.698	0.08838178
860.875	0.08819645
861.051	0.08802501
861.227	0.08772035
861.404	0.08753692
861.58	0.08733659
861.756	0.08715776
861.932	0.08691727
862.109	0.08668041
862.285	0.0863751
862.461	0.08623349
862.637	0.08597598
862.813	0.08561733
862.99	0.0852475
863.166	0.08485726
863.342	0.08457894
863.518	0.08430716
863.694	0.08403545
863.87	0.08383124
864.046	0.08370328
864.222	0.08362134
864.398	0.08354831
864.574	0.08329515
864.75	0.08312272
864.926	0.08288129
865.102	0.08256296
865.278	0.08223021
865.454	0.08191564
865.63	0.08161752
865.805	0.08143592
865.981	0.08126934
866.157	0.08106713
866.333	0.08089095
866.509	0.08075856
866.684	0.08060613
866.86	0.08052655
867.036	0.0803371
867.212	0.07999934
867.387	0.07970088
867.563	0.07948528
867.739	0.07918438
867.914	0.07895377
868.09	0.0786201
868.265	0.07832684
868.441	0.07810317
868.617	0.07795113
868.792	0.07779197
868.968	0.0776305
869.143	0.07746238
869.319	0.07718945
869.494	0.0770124
869.67	0.07683759
869.845	0.07663427
870.02	0.07635537
870.196	0.07599878
870.371	0.07566139
870.546	0.07535885
870.722	0.07508494
870.897	0.07477321
871.072	0.07441861
871.248	0.07409718
871.423	0.07392549
871.598	0.07376941
871.773	0.07360533
871.949	0.07341254
872.124	0.07329057
872.299	0.07316008
872.474	0.07308475
872.649	0.07282263
872.824	0.07253803
872.999	0.07223717
873.174	0.0719634
873.349	0.07167694
873.524	0.07146748
873.699	0.07120937
873.874	0.07104028
874.049	0.07084818
874.224	0.07078948
874.399	0.07051764
874.574	0.07034783
874.749	0.07009925
874.924	0.069849
875.099	0.06974683
875.274	0.06952647
875.449	0.06934048
875.623	0.06920759
875.798	0.06892201
875.973	0.06873817
876.148	0.0684821
876.322	0.06808469
876.497	0.06780372
876.672	0.06753293
876.846	0.06735234
877.021	0.06722758
877.196	0.06696606
877.37	0.06684848
877.545	0.06678401
877.72	0.06661035
877.894	0.06644496
878.069	0.06627215
878.243	0.06598887
878.418	0.06577874
878.592	0.06547121
878.767	0.06516994
878.941	0.06493953
879.116	0.06461715
879.29	0.06440183
879.464	0.06426654
879.639	0.06421767
879.813	0.06418816
879.987	0.06414062
880.162	0.06398049
880.336	0.06383647
880.51	0.06357304
880.685	0.06332504
880.859	0.06304506
881.033	0.06268018
881.207	0.06240968
881.381	0.0621953
881.556	0.06195908
881.73	0.06168285
881.904	0.06146754
882.078	0.06129276
882.252	0.06117868
882.426	0.06102388
882.6	0.06088468
882.774	0.06069053
882.948	0.06070348
883.122	0.06055464
883.296	0.06035684
883.47	0.06018271
883.644	0.05991648
883.818	0.05963087
883.992	0.0594256
884.166	0.05897943
884.34	0.05872504
884.514	0.05856043
884.687	0.0583897
884.861	0.05821414
885.035	0.05814724
885.209	0.05797671
885.382	0.05801307
885.556	0.0579303
885.73	0.05773908
885.904	0.05760887
886.077	0.05740598
886.251	0.05714994
886.425	0.05712471
886.598	0.05676584
886.772	0.05659354
886.945	0.05625354
887.119	0.05590789
887.292	0.0556998
887.466	0.05546233
887.64	0.05521145
887.813	0.05519612
887.986	0.05501711
888.16	0.05496922
888.333	0.05479574
888.507	0.05466315
888.68	0.05455084
888.854	0.05435635
889.027	0.05416739
889.2	0.05391097
889.374	0.05365191
889.547	0.05350926
889.72	0.05334987
889.893	0.05308014
890.067	0.0528238
890.24	0.0524966
890.413	0.052418
890.586	0.05225086
890.759	0.05213364
890.933	0.05197448
891.106	0.0518995
891.279	0.0518747
891.452	0.05177388
891.625	0.05159277
891.798	0.05141216
891.971	0.05117015
892.144	0.0509312
892.317	0.05071843
892.49	0.05035548
892.663	0.05020446
892.836	0.0499553
893.009	0.0497909
893.182	0.04968039
893.355	0.04952696
893.527	0.04936959
893.7	0.04934636
893.873	0.0492661
894.046	0.04908555
894.219	0.04896654
894.391	0.04884639
894.564	0.04879227
894.737	0.04852704
894.91	0.04829749
895.082	0.0479979
895.255	0.04787947
895.428	0.04760076
895.6	0.04728206
895.773	0.04701539
895.945	0.04701056
896.118	0.04679972
896.291	0.04671836
896.463	0.04648605
896.636	0.0465084
896.808	0.04646209
896.981	0.04636541
897.153	0.04619758
897.326	0.04607345
897.498	0.04582874
897.67	0.04571367
897.843	0.04547048
898.015	0.04524942
898.187	0.04497115
898.36	0.04457826
898.532	0.04445328
898.704	0.0443789
898.877	0.0441862
899.049	0.04409876
899.221	0.04393237
899.393	0.04388355
899.566	0.04396455
899.738	0.04388111
899.91	0.04365092
900.082	0.04350819
900.254	0.04325384
900.426	0.04315121
900.598	0.04295529
900.77	0.04260802
900.942	0.04236671
901.114	0.04225928
901.286	0.04209836
901.458	0.04200389
901.63	0.04173153
901.802	0.04157458
901.974	0.04152804
902.146	0.04136569
902.318	0.04115977
902.49	0.04104877
902.662	0.04097126
902.834	0.04087448
903.005	0.04067905
903.177	0.04058584
903.349	0.04040558
903.521	0.04028565
903.693	0.0401941
903.864	0.03994744
904.036	0.03976547
904.208	0.03969259
904.379	0.03959669
904.551	0.03953346
904.723	0.03942048
904.894	0.03934102
905.066	0.0392919
905.237	0.03925246
905.409	0.03901474
905.58	0.03889914
905.752	0.03870504
905.923	0.03853374
906.095	0.03821141
906.266	0.03803185
906.438	0.03794175
906.609	0.03785257
906.78	0.03761732
906.952	0.03754297
907.123	0.03747548
907.295	0.03738734
907.466	0.03715535
907.637	0.03698964
907.808	0.03693179
907.98	0.03690149
908.151	0.03677905
908.322	0.03669117
908.493	0.03664123
908.665	0.03655508
908.836	0.03642802
909.007	0.03632467
909.178	0.03608946
909.349	0.03589513
909.52	0.03577731
909.691	0.0355695
909.862	0.03543866
910.033	0.03520381
910.204	0.03494448
910.375	0.0347897
910.546	0.0348195
910.717	0.03477324
910.888	0.03472854
911.059	0.03467177
911.23	0.0346755
911.401	0.03458199
911.572	0.03451658
911.742	0.03429652
911.913	0.03393508
912.084	0.0338067
912.255	0.03362857
912.426	0.03338982
912.596	0.0332709
912.767	0.03303103
912.938	0.03271923
913.108	0.03271571
913.279	0.03257266
913.45	0.03241576
913.62	0.03235957
913.791	0.03230993
913.962	0.0322803
914.132	0.03235718
914.303	0.03220859
914.473	0.03215583
914.644	0.03203499
914.814	0.03182196
914.985	0.03163194
915.155	0.03150789
915.326	0.03121088
915.496	0.03097306
915.666	0.03079578
915.837	0.0306957
916.007	0.03062251
916.177	0.03054408
916.348	0.030424
916.518	0.03034279
916.688	0.03046605
916.858	0.03033728
917.029	0.03024641
917.199	0.03023521
917.369	0.03015432
917.539	0.02995939
917.709	0.02994147
917.88	0.0296292
918.05	0.02957851
918.22	0.02939494
918.39	0.02904638
918.56	0.02878538
918.73	0.02869199
918.9	0.02848679
919.07	0.02845165
919.24	0.02824865
919.41	0.02817634
919.58	0.02824456
919.75	0.02828015
919.92	0.02825862
920.09	0.02826434
920.26	0.02809246
920.429	0.02796455
920.599	0.02793787
920.769	0.02774694
920.939	0.02749795
921.109	0.0273863
921.278	0.02716912
921.448	0.02698979
921.618	0.02681309
921.787	0.02656705
921.957	0.02653881
922.127	0.02654748
922.296	0.02658408
922.466	0.0265503
922.636	0.02656301
922.805	0.02666539
922.975	0.02660367
923.144	0.02652859
923.314	0.0264519
923.483	0.02618491
923.653	0.02613745
923.822	0.02608885
923.992	0.0258918
924.161	0.02574637
924.331	0.02558427
924.5	0.02534928
924.669	0.02516007
924.839	0.02497082
925.008	0.02489343
925.177	0.02476574
925.347	0.02477611
925.516	0.02481205
925.685	0.02490732
925.854	0.02500676
926.023	0.02500837
926.193	0.02500004
926.362	0.02499082
926.531	0.02487781
926.7	0.02463405
926.869	0.02435557
927.038	0.02419524
927.207	0.02394433
927.376	0.02353783
927.545	0.02332028
927.715	0.02316401
927.884	0.02314794
928.052	0.02328214
928.221	0.02312895
928.39	0.02305017
928.559	0.02314759
928.728	0.02321559
928.897	0.023206
929.066	0.02312466
929.235	0.02300778
929.404	0.02304398
929.572	0.02311019
929.741	0.02303399
929.91	0.02287344
930.079	0.02283897
930.247	0.02287515
930.416	0.02264392
930.585	0.02251382
930.753	0.02233448
930.922	0.02210849
931.091	0.02204792
931.259	0.02189961
931.428	0.02158873
931.596	0.02149225
931.765	0.02156931
931.934	0.02155567
932.102	0.02168979
932.27	0.02160149
932.439	0.02150974
932.607	0.02142894
932.776	0.02146889
932.944	0.02101858
933.113	0.02101308
933.281	0.02085775
933.449	0.02077296
933.618	0.02075075
933.786	0.02080165
933.954	0.02073769
934.123	0.02106705
934.291	0.02094125
934.459	0.02082872
934.627	0.02077629
934.795	0.02061383
934.964	0.02059745
935.132	0.02066985
935.3	0.02053562
935.468	0.02050773
935.636	0.02055765
935.804	0.02048766
935.972	0.0206739
936.14	0.02057352
936.308	0.02050206
936.476	0.02041979
936.644	0.0205543
936.812	0.02057353
936.98	0.02058521
937.148	0.02056264
937.316	0.02072829
937.484	0.02047282
937.652	0.02054087
937.82	0.02072763
937.987	0.02097551
938.155	0.02107152
938.323	0.02100603
938.491	0.02105943
938.658	0.02151629
938.826	0.02129802
938.994	0.02105557
939.162	0.02113132
939.329	0.02096072
939.497	0.02122161
939.665	0.02139292
939.832	0.02130906
940	0.02199191
940.167	0.02259492
940.335	0.02209444
940.502	0.02275892
940.67	0.02346581
940.837	0.02384128
941.005	0.02399525
941.172	0.02372781
941.34	0.02376441
941.507	0.02468625
941.674	0.02431954
941.842	0.02358601
942.009	0.02364079
942.177	0.02390741
942.344	0.02375248
942.511	0.023289
942.678	0.02290083
942.846	0.0231837
943.013	0.02336701
943.18	0.02260326
943.347	0.02283852
943.514	0.02361987
943.682	0.02334512
943.849	0.02314108
944.016	0.02370481
944.183	0.02326685
944.35	0.02284422
944.517	0.02301315
944.684	0.02218719
944.851	0.02212988
945.018	0.02244971
945.185	0.02189674
945.352	0.0216036
945.519	0.02176673
945.686	0.02148567
945.853	0.0220471
946.02	0.02149124
946.187	0.0211524
946.353	0.02145568
946.52	0.021197
946.687	0.02093366
946.854	0.02027382
947.021	0.01925399
947.187	0.01981348
947.354	0.01954317
947.521	0.01938116
947.687	0.01962053
947.854	0.02042212
948.021	0.02021825
948.187	0.02067304
948.354	0.0203793
948.52	0.02046325
948.687	0.01978062
948.854	0.01954029
949.02	0.01907344
949.187	0.01842667
949.353	0.01888559
949.52	0.0186089
949.686	0.01772977
949.852	0.01792507
950.019	0.01782048
950.185	0.01763539
950.352	0.01842267
950.518	0.01755914
950.684	0.0182402
950.851	0.01801941
951.017	0.01816511
951.183	0.01868655
951.349	0.01858313
951.516	0.01819702
951.682	0.0181398
951.848	0.01736777
952.014	0.01749575
952.18	0.01778955
952.346	0.01758941
952.512	0.0174546
952.679	0.0173538
952.845	0.01689561
953.011	0.01706133
953.177	0.01754195
953.343	0.01689105
953.509	0.01675243
953.675	0.01626813
953.841	0.01632318
954.007	0.01607412
954.172	0.01619994
954.338	0.01578864
954.504	0.01517459
954.67	0.01524197
954.836	0.01533004
955.002	0.01466318
955.167	0.01522482
955.333	0.01488616
955.499	0.01462803
955.665	0.01466628
955.83	0.01407583
955.996	0.01402003
956.162	0.01438363
956.327	0.01419397
956.493	0.01393473
956.659	0.0135499
956.824	0.01412734
956.99	0.01389791
957.155	0.01415077
957.321	0.0138804
957.486	0.01406113
957.652	0.01375755
957.817	0.0138636
957.983	0.01308568
958.148	0.01322463
958.314	0.01303956
958.479	0.01261211
958.644	0.01246785
958.81	0.01258277
958.975	0.0125976
959.14	0.01253736
959.306	0.01240314
959.471	0.01217578
959.636	0.01271673
959.801	0.0123229
959.967	0.01219223
960.132	0.01224391
960.297	0.01190681
960.462	0.01196981
960.627	0.01145603
960.792	0.01098844
960.957	0.01101663
961.123	0.01093646
961.288	0.01056356
961.453	0.0106209
961.618	0.01047138
961.783	0.01097951
961.948	0.01074912
962.113	0.01075995
962.277	0.01114589
962.442	0.01119639
962.607	0.01138003
962.772	0.01121621
962.937	0.01100442
963.102	0.01136255
963.267	0.0112604
963.431	0.01081935
963.596	0.01117848
963.761	0.01127899
963.926	0.0113535
964.09	0.01139249
964.255	0.01139329
964.42	0.01090652
964.584	0.0106516
964.749	0.01031617
964.914	0.0101615
965.078	0.01039184
965.243	0.01013436
965.407	0.00989757
965.572	0.01022962
965.736	0.01085881
965.901	0.01069687
966.065	0.01078405
966.23	0.01062629
966.394	0.01093443
966.559	0.01091494
966.723	0.01106014
966.887	0.01071005
967.052	0.01084293
967.216	0.01089937
967.38	0.01091778
967.545	0.01069585
967.709	0.01069614
967.873	0.01074281
968.037	0.01072425
968.202	0.01082145
968.366	0.01071727
968.53	0.01080531
968.694	0.01064811
968.858	0.01045411
969.022	0.01008465
969.187	0.01007356
969.351	0.00982915
969.515	0.00962307
969.679	0.00907151
969.843	0.00869722
970.007	0.00869345
970.171	0.00878801
970.335	0.00869884
970.499	0.00862644
970.662	0.00847374
970.826	0.00850125
970.99	0.00883046
971.154	0.00893912
971.318	0.00895634
971.482	0.00876954
971.645	0.00870793
971.809	0.00922818
971.973	0.00898478
972.137	0.00877438
972.3	0.00887114
972.464	0.00894644
972.628	0.0091742
972.791	0.00907794
972.955	0.00886186
973.119	0.00885754
973.282	0.00915199
973.446	0.00883766
973.609	0.00864915
973.773	0.00842555
973.936	0.00855658
974.1	0.00813904
974.263	0.00848748
974.427	0.00809252
974.59	0.00872463
974.754	0.00828019
974.917	0.00819177
975.08	0.00827161
975.244	0.00807801
975.407	0.00795985
975.57	0.00803267
975.734	0.00734464
975.897	0.00789809
976.06	0.00792295
976.223	0.00809187
976.387	0.00856378
976.55	0.00839451
976.713	0.00857206
976.876	0.00846529
977.039	0.00824435
977.202	0.00820945
977.365	0.0081658
977.528	0.00780352
977.692	0.00783923
977.855	0.00793222
978.018	0.00825162
978.181	0.00832195
978.344	0.00807895
978.506	0.00754013
978.669	0.00770037
978.832	0.00782389
978.995	0.00742686
979.158	0.00751713
979.321	0.00727186
979.484	0.00712296
979.646	0.00679092
979.809	0.0064824
979.972	0.00637987
980.135	0.00664843
980.297	0.00674185
980.46	0.00695928
980.623	0.00688229
980.786	0.00775006
980.948	0.00787707
981.111	0.00802552
981.273	0.00806833
981.436	0.0076902
981.599	0.00779934
981.761	0.00801586
981.924	0.00777214
982.086	0.00837069
982.249	0.00878755
982.411	0.00888172
982.573	0.00894893
982.736	0.00876824
982.898	0.0091367
983.061	0.00949667
983.223	0.0087661
983.385	0.00781599
983.548	0.00775003
983.71	0.00750075
983.872	0.00734784
984.034	0.00701798
984.197	0.00634175
984.359	0.00675656
984.521	0.00726024
984.683	0.00721559
984.845	0.0076563
985.008	0.0076945
985.17	0.00808432
985.332	0.00813928
985.494	0.00782901
985.656	0.00757066
985.818	0.00761775
985.98	0.00727879
986.142	0.00764203
986.304	0.00764023
986.466	0.00795337
986.628	0.00810067
986.79	0.00837396
986.952	0.00823641
987.113	0.00833192
987.275	0.00807343
987.437	0.00756011
987.599	0.00731431
987.761	0.00735208
987.922	0.00741756
988.084	0.00741434
988.246	0.00732299
988.408	0.00705926
988.569	0.00744015
988.731	0.00774872
988.893	0.00726796
989.054	0.00718756
989.216	0.00789636
989.377	0.0079575
989.539	0.00826007
989.701	0.00857343
989.862	0.00850663
990.024	0.009175
990.185	0.00909354
990.347	0.00840849
990.508	0.00794994
990.669	0.007795
990.831	0.00686569
990.992	0.00683421
991.154	0.00649749
991.315	0.00661894
991.476	0.00643225
991.638	0.00715366
991.799	0.00739205
991.96	0.00844183
992.121	0.00814349
992.283	0.00809671
992.444	0.00808298
992.605	0.00764821
992.766	0.00741845
992.927	0.00691086
993.088	0.00639135
993.249	0.00616324
993.41	0.00683319
993.572	0.00636038
993.733	0.00705564
993.894	0.00738395
994.055	0.00721535
994.216	0.00724672
994.376	0.00727523
994.537	0.00718284
994.698	0.00741789
994.859	0.00757481
995.02	0.00709984
995.181	0.00750507
995.342	0.00743955
995.503	0.0073226
995.663	0.00650781
995.824	0.00644425
995.985	0.00576173
996.146	0.0054584
996.306	0.00537398
996.467	0.00493418
996.628	0.00526396
996.788	0.00561129
996.949	0.00526577
997.11	0.00605383
997.27	0.00537989
997.431	0.00467219
997.591	0.00574574
997.752	0.00495456
997.912	0.00500426
998.073	0.00546391
998.233	0.00472469
998.394	0.005781
998.554	0.00687212
998.714	0.00722273
998.875	0.00817108
999.035	0.0077146
999.196	0.00793248
999.356	0.00816226
999.516	0.00805279
999.676	0.00830654
999.837	0.00697766
999.997	0.0075239
1000.157	0.00828872
1000.317	0.00791231
1000.477	0.00781543
1000.638	0.00770826
1000.798	0.00730206
1000.958	0.00733712
1001.118	0.00712236
1001.278	0.00628155
1001.438	0.00643991
1001.598	0.00695655
1001.758	0.00864464
1001.918	0.00905122
1002.078	0.00945719
1002.238	0.00950978
1002.398	0.010145
1002.558	0.01070165
1002.718	0.00997384
1002.878	0.00859832
1003.037	0.00757724
1003.197	0.00720769
1003.357	0.00691029
1003.517	0.00810112
1003.677	0.00693329
1003.836	0.00696679
1003.996	0.00725988
1004.156	0.00728333
1004.315	0.00739561
1004.475	0.00821298
1004.635	0.00739218
1004.794	0.00803475
1004.954	0.00903737
1005.114	0.00812591
1005.273	0.00845111
1005.433	0.00872547
1005.592	0.00679453
1005.752	0.00585655
1005.911	0.00578329
1006.071	0.00581079
1006.23	0.00660172
1006.389	0.00747342
1006.549	0.00750439
1006.708	0.0079794
1006.868	0.0076979
1007.027	0.00912029
1007.186	0.00837285
1007.345	0.00814432
1007.505	0.00772658
1007.664	0.00787887
1007.823	0.00874498
1007.982	0.00920645
1008.142	0.00725247
1008.301	0.00644622
1008.46	0.00571887
1008.619	0.00667056
1008.778	0.00586826
1008.937	0.00548179
1009.096	0.0047369
1009.255	0.00577328
1009.414	0.00657696
1009.573	0.00742364
1009.732	0.00603364
1009.891	0.00565961
1010.05	0.00734056
1010.209	0.00918523
1010.368	0.00874626
1010.527	0.00914494
1010.686	0.00913574
1010.845	0.00971648
1011.003	0.00918432
1011.162	0.00776071
1011.321	0.00675778
1011.48	0.00745514
1011.638	0.0076788
1011.797	0.00830667
1011.956	0.00806136
1012.115	0.01009009
1012.273	0.01044654
1012.432	0.01206755
1012.59	0.01070716
1012.749	0.01026729
1012.908	0.00904259
1013.066	0.00941738
1013.225	0.00939586
1013.383	0.00908021
1013.542	0.00589589
1013.7	0.00764134
1013.859	0.00848849
1014.017	0.00989716
1014.175	0.00969339
1014.334	0.01048727
1014.492	0.01002023
1014.65	0.01171741
1014.809	0.00947113
1014.967	0.0093782
1015.125	0.00940997
1015.284	0.00916978
1015.442	0.00895984
1015.6	0.01036881
1015.758	0.01119967
1015.916	0.0123611
1016.075	0.01241555
1016.233	0.01267671
1016.391	0.01305957
1016.549	0.01433472
1016.707	0.01474145
1016.865	0.01402284
1017.023	0.01510631
1017.181	0.01421902
1017.339	0.01383508
1017.497	0.01277363
1017.655	0.01221983
1017.813	0.01167905
1017.971	0.01244381
1018.129	0.01190592
1018.286	0.01213508
1018.444	0.01044241
1018.602	0.01079479
1018.76	0.00955661
1018.918	0.00930481
1019.075	0.01053606
1019.233	0.00982542
1019.391	0.01070415
1019.549	0.01203103
1019.706	0.01461701
1019.864	0.01450442
1020.022	0.01668527
1020.179	0.01560951
1020.337	0.01692681
1020.494	0.01420039
1020.652	0.01427353
1020.809	0.01475851
1020.967	0.01557776
1021.124	0.0132695
1021.282	0.01317257
1021.439	0.01361199
1021.597	0.01681505
1021.754	0.01748873
1021.911	0.01457713
1022.069	0.01395383
1022.226	0.01390614
1022.384	0.01712352
1022.541	0.01727185
1022.698	0.01984225
1022.855	0.02288603
1023.013	0.02529743
1023.17	0.02625886
1023.327	0.02785037
1023.484	0.02554641
1023.641	0.02677685
1023.798	0.0235194
1023.956	0.0174871
1024.113	0.0159784
1024.27	0.01436843
1024.427	0.01460935
1024.584	0.01540534
1024.741	0.01161639
1024.898	0.01082122
1025.055	0.01397662
1025.212	0.01267631
1025.369	0.01237038
1025.525	0.01230611
1025.682	0.01110284
1025.839	0.01683415
1025.996	0.01909116
1026.153	0.0240994
1026.31	0.02246517
1026.466	0.0251501
1026.623	0.02344674
1026.78	0.02592339
1026.937	0.02096449
1027.093	0.02166251
1027.25	0.0183311
1027.407	0.02101581
1027.563	0.01699775
1027.72	0.0143237
1027.876	0.01480506
1028.033	0.01841376
1028.19	0.01706409
1028.346	0.01461812
1028.503	0.01904076
1028.659	0.02181413
1028.816	0.02822142
1028.972	0.028878
1029.128	0.02642542
1029.285	0.02977779
1029.441	0.02834395
1029.598	0.0263767
1029.754	0.0273455
1029.91	0.02879777
1030.067	0.02352337
1030.223	0.0212052
1030.379	0.02023842
1030.535	0.02214288
1030.691	0.02020812
1030.848	0.02713006
1031.004	0.02475763
1031.16	0.02527577
1031.316	0.0320905
1031.472	0.03302491
1031.628	0.03238405
1031.784	0.04057244
1031.94	0.03548487
1032.096	0.03682009
1032.252	0.04508636
1032.408	0.04357919
1032.564	0.03662573
1032.72	0.0379566
1032.876	0.02789812
1033.032	0.02926303
1033.188	0.02648034
1033.344	0.02061395
1033.5	0.01621799
1033.655	0.01961031
1033.811	0.02006444
1033.967	0.0236354
