Data from 0_1_mm_pl_10pc_Absorbance__0__15-45-35-481.txt Node

Date: Fri Feb 24 15:45:35 CET 2023
User: Ange
Spectrometer: FLMT08341
Trigger mode: 0
Integration Time (sec): 1.000000E-2
Scans to average: 400
Electric dark correction enabled: true
Nonlinearity correction enabled: false
Boxcar width: 3
XAxis mode: Wavelengths
Number of Pixels in Spectrum: 3648
>>>>>Begin Spectral Data<<<<<
345.271	0.0084858
345.487	0.01097671
345.704	0.01999388
345.921	0.02901196
346.137	0.04262117
346.354	0.05582687
346.571	0.06084093
346.787	0.27379745
347.004	-0.02539823
347.22	0.03583523
347.437	0.0584637
347.653	0.30297543
347.87	-0.9109757
348.086	-0.39085605
348.303	1.14993548
348.519	0.2458244
348.736	0.24517345
348.952	0.24724543
349.169	0.25919311
349.385	0.2705771
349.601	0.26922518
349.818	0.26789497
350.034	0.26647019
350.251	0.26648436
350.467	0.26766373
350.683	0.2617227
350.9	0.25953854
351.116	0.25821634
351.332	0.25518351
351.549	0.26090549
351.765	0.26603373
351.981	0.26995096
352.197	0.27714421
352.414	0.28687843
352.63	0.28750862
352.846	0.29225145
353.062	0.28781444
353.278	0.28165569
353.495	0.28493384
353.711	0.28382052
353.927	0.28303826
354.143	0.2833612
354.359	0.28005816
354.575	0.27657288
354.792	0.27914824
355.008	0.27324426
355.224	0.27095704
355.44	0.26435445
355.656	0.26453098
355.872	0.26609477
356.088	0.27539066
356.304	0.27576888
356.52	0.27565984
356.736	0.27718889
356.952	0.27954562
357.168	0.27828812
357.384	0.27928188
357.6	0.27219927
357.816	0.27519881
358.032	0.27723861
358.248	0.27940201
358.464	0.27838534
358.679	0.27944163
358.895	0.27848359
359.111	0.27901911
359.327	0.27385536
359.543	0.27257997
359.759	0.27221259
359.974	0.26964202
360.19	0.26765666
360.406	0.26586865
360.622	0.26498673
360.838	0.26272959
361.053	0.26362294
361.269	0.26147064
361.485	0.26379615
361.701	0.26249012
361.916	0.25908981
362.132	0.25806841
362.348	0.2575811
362.563	0.25525815
362.779	0.25251804
362.995	0.25053805
363.21	0.25101067
363.426	0.25122482
363.641	0.24977452
363.857	0.24936428
364.073	0.24733317
364.288	0.24584785
364.504	0.24731139
364.719	0.24526172
364.935	0.24345102
365.15	0.24205454
365.366	0.24166855
365.581	0.24208157
365.797	0.2415967
366.012	0.23732161
366.228	0.23565397
366.443	0.23682892
366.658	0.23619493
366.874	0.23351827
367.089	0.23346973
367.305	0.23203549
367.52	0.23122844
367.735	0.22887625
367.951	0.22697075
368.166	0.22557583
368.381	0.22730308
368.597	0.2246855
368.812	0.2251706
369.027	0.22511646
369.243	0.2256518
369.458	0.2265979
369.673	0.2269547
369.888	0.225098
370.104	0.22268436
370.319	0.22148641
370.534	0.21966651
370.749	0.21838706
370.964	0.21612104
371.179	0.21506193
371.395	0.21396446
371.61	0.21340912
371.825	0.21018328
372.04	0.2100909
372.255	0.2074841
372.47	0.20656501
372.685	0.20430533
372.9	0.20285248
373.115	0.20221708
373.33	0.20246808
373.545	0.20081839
373.76	0.20009877
373.975	0.19736236
374.19	0.19547019
374.405	0.19379385
374.62	0.1928699
374.835	0.19264747
375.05	0.19152676
375.265	0.19055238
375.48	0.19064026
375.695	0.19094676
375.91	0.1896645
376.125	0.18840441
376.339	0.18542217
376.554	0.18341726
376.769	0.18279497
376.984	0.1812355
377.199	0.18062161
377.414	0.1787625
377.628	0.17813414
377.843	0.17829161
378.058	0.17755274
378.273	0.17748663
378.487	0.17663299
378.702	0.17489637
378.917	0.1745621
379.131	0.17332501
379.346	0.17159649
379.561	0.170602
379.775	0.16825038
379.99	0.16654533
380.205	0.16508473
380.419	0.16286338
380.634	0.16118191
380.848	0.1608815
381.063	0.16014443
381.278	0.16053702
381.492	0.15924424
381.707	0.15883269
381.921	0.15833298
382.136	0.15854756
382.35	0.15710332
382.565	0.15537714
382.779	0.15429005
382.994	0.1534752
383.208	0.15172823
383.422	0.15200727
383.637	0.1505396
383.851	0.15041714
384.066	0.15021491
384.28	0.14917875
384.494	0.14879802
384.709	0.14870129
384.923	0.14726932
385.137	0.14590016
385.352	0.14475458
385.566	0.14390537
385.78	0.14298083
385.995	0.14235824
386.209	0.14060337
386.423	0.14032401
386.637	0.14008534
386.852	0.13830705
387.066	0.13727629
387.28	0.13625753
387.494	0.13535015
387.708	0.13497913
387.923	0.1335733
388.137	0.13275555
388.351	0.13266367
388.565	0.13207976
388.779	0.13123542
388.993	0.13094815
389.207	0.13073107
389.421	0.13047969
389.635	0.12943957
389.85	0.12879627
390.064	0.12840168
390.278	0.12802193
390.492	0.12664894
390.706	0.12586098
390.92	0.1253074
391.134	0.12444732
391.348	0.12421932
391.561	0.12305219
391.775	0.12202877
391.989	0.12188865
392.203	0.12082354
392.417	0.11961214
392.631	0.11982737
392.845	0.11879086
393.059	0.11833432
393.273	0.11755229
393.486	0.11649645
393.7	0.11606917
393.914	0.11596547
394.128	0.11463348
394.342	0.11374282
394.555	0.11322333
394.769	0.11308529
394.983	0.11262865
395.197	0.1121081
395.41	0.1113622
395.624	0.11132491
395.838	0.11082465
396.051	0.11102711
396.265	0.11056618
396.479	0.10998662
396.692	0.10933241
396.906	0.10893245
397.12	0.10795431
397.333	0.10759007
397.547	0.1068821
397.76	0.10630962
397.974	0.10625137
398.187	0.10592477
398.401	0.105313
398.614	0.10538543
398.828	0.10507686
399.041	0.1045155
399.255	0.10402476
399.468	0.10310314
399.682	0.10279537
399.895	0.10305424
400.109	0.10276665
400.322	0.10256934
400.536	0.1016972
400.749	0.10151086
400.962	0.10138567
401.176	0.10113962
401.389	0.09988052
401.602	0.09889939
401.816	0.09840786
402.029	0.09814158
402.242	0.09787845
402.456	0.09727711
402.669	0.09666428
402.882	0.09647592
403.095	0.09652621
403.309	0.09614878
403.522	0.09590441
403.735	0.09509585
403.948	0.09482211
404.161	0.0947989
404.375	0.09429623
404.588	0.09391522
404.801	0.09380243
405.014	0.09329961
405.227	0.09329229
405.44	0.09338894
405.653	0.09312901
405.866	0.09285987
406.079	0.09237895
406.293	0.0917059
406.506	0.09150458
406.719	0.09109723
406.932	0.09043936
407.145	0.0898109
407.358	0.08988906
407.571	0.08951526
407.784	0.08931362
407.996	0.08911916
408.209	0.08853697
408.422	0.08829833
408.635	0.08800915
408.848	0.0877151
409.061	0.08736778
409.274	0.08694353
409.487	0.08649983
409.7	0.08660286
409.912	0.08655937
410.125	0.08650579
410.338	0.08603485
410.551	0.08617084
410.764	0.08580962
410.976	0.0857096
411.189	0.08550182
411.402	0.08490569
411.615	0.08474682
411.827	0.0846811
412.04	0.08409222
412.253	0.08406542
412.465	0.08372892
412.678	0.08331455
412.891	0.08334284
413.103	0.08311433
413.316	0.08299094
413.529	0.08289759
413.741	0.08283433
413.954	0.08269885
414.166	0.08249557
414.379	0.08243424
414.591	0.08213466
414.804	0.08204926
415.016	0.08200502
415.229	0.08161799
415.441	0.08169891
415.654	0.08185503
415.866	0.08165963
416.079	0.08151
416.291	0.08130475
416.504	0.08108909
416.716	0.08121232
416.928	0.08096828
417.141	0.08045031
417.353	0.08027622
417.566	0.08013282
417.778	0.07988676
417.99	0.0798543
418.203	0.07945109
418.415	0.07929997
418.627	0.07924966
418.839	0.07916552
419.052	0.0789972
419.264	0.07885766
419.476	0.07866835
419.688	0.07855514
419.901	0.07864357
420.113	0.07861665
420.325	0.0784568
420.537	0.07830536
420.749	0.07831171
420.961	0.07826532
421.174	0.07815456
421.386	0.07777513
421.598	0.07760692
421.81	0.0774755
422.022	0.07730832
422.234	0.07704692
422.446	0.07689736
422.658	0.07689085
422.87	0.07684657
423.082	0.07663395
423.294	0.07650095
423.506	0.07653411
423.718	0.07629015
423.93	0.07609989
424.142	0.07584967
424.354	0.07564829
424.566	0.07569963
424.778	0.0755146
424.99	0.07542796
425.202	0.07533098
425.414	0.07537488
425.625	0.07530876
425.837	0.07501514
426.049	0.0749346
426.261	0.07497028
426.473	0.0748047
426.684	0.07485162
426.896	0.07479778
427.108	0.07478625
427.32	0.07484244
427.531	0.07484376
427.743	0.07486865
427.955	0.0750044
428.167	0.07492036
428.378	0.07464533
428.59	0.07458836
428.802	0.07460074
429.013	0.07438674
429.225	0.07417752
429.436	0.07398164
429.648	0.07408871
429.86	0.07426818
430.071	0.07442346
430.283	0.07467842
430.494	0.07483546
430.706	0.07494426
430.917	0.07486877
431.129	0.07495544
431.34	0.07492484
431.552	0.07489911
431.763	0.07476672
431.975	0.07480261
432.186	0.07452351
432.398	0.07456832
432.609	0.07434031
432.821	0.07432573
433.032	0.07395261
433.243	0.07392655
433.455	0.07389834
433.666	0.07405407
433.877	0.0739733
434.089	0.07387123
434.3	0.07379192
434.511	0.07390406
434.723	0.07373003
434.934	0.07340781
435.145	0.07320775
435.356	0.07307264
435.568	0.07284539
435.779	0.0727318
435.99	0.07246715
436.201	0.07230789
436.412	0.07223869
436.624	0.07217173
436.835	0.07215864
437.046	0.0722511
437.257	0.07222533
437.468	0.07244848
437.679	0.07238035
437.89	0.07245247
438.101	0.07258692
438.312	0.07260019
438.523	0.07256409
438.734	0.07246703
438.945	0.0723307
439.156	0.07226341
439.367	0.07216421
439.578	0.07188993
439.789	0.07180457
440	0.07184146
440.211	0.07179889
440.422	0.07178927
440.633	0.07188897
440.844	0.07186013
441.055	0.07187475
441.266	0.07195077
441.477	0.07169032
441.687	0.07165086
441.898	0.07169213
442.109	0.07164431
442.32	0.07169048
442.531	0.07172208
442.741	0.0716805
442.952	0.07181973
443.163	0.07186468
443.374	0.07173234
443.584	0.07174726
443.795	0.07171493
444.006	0.07179051
444.216	0.07164013
444.427	0.0716347
444.638	0.07160581
444.848	0.07164708
445.059	0.07154202
445.27	0.07151921
445.48	0.07139985
445.691	0.07142772
445.901	0.07144306
446.112	0.07141572
446.323	0.07135661
446.533	0.07132974
446.744	0.0713871
446.954	0.07126292
447.165	0.07128751
447.375	0.07126968
447.586	0.07123926
447.796	0.07126965
448.006	0.07123585
448.217	0.07106363
448.427	0.07110083
448.638	0.07108095
448.848	0.07093068
449.058	0.07076471
449.269	0.07076777
449.479	0.0709297
449.689	0.07094327
449.9	0.07098915
450.11	0.07107342
450.32	0.0711745
450.531	0.07128274
450.741	0.07121609
450.951	0.07118565
451.161	0.07117056
451.372	0.07127624
451.582	0.07133744
451.792	0.07131915
452.002	0.071311
452.212	0.07124099
452.422	0.07108544
452.633	0.07118966
452.843	0.07110575
453.053	0.07091675
453.263	0.07089269
453.473	0.07096568
453.683	0.071196
453.893	0.07126517
454.103	0.07120079
454.313	0.07146705
454.523	0.07156245
454.733	0.07175183
454.943	0.07178012
455.153	0.0716995
455.363	0.07178478
455.573	0.07180103
455.783	0.07174272
455.993	0.07173952
456.203	0.07169187
456.413	0.0717687
456.623	0.07182409
456.833	0.0719678
457.042	0.07203026
457.252	0.07197897
457.462	0.07200137
457.672	0.0721184
457.882	0.07207859
458.091	0.07220416
458.301	0.07207063
458.511	0.0722408
458.721	0.0723204
458.931	0.07232265
459.14	0.07236246
459.35	0.07240587
459.56	0.07245346
459.769	0.0727094
459.979	0.07275128
460.189	0.07272632
460.398	0.07286302
460.608	0.07279738
460.817	0.072812
461.027	0.07272431
461.237	0.07261902
461.446	0.07258007
461.656	0.07266573
461.865	0.07273441
462.075	0.0728311
462.284	0.0730793
462.494	0.07317716
462.703	0.07320812
462.913	0.07327891
463.122	0.07331468
463.332	0.07341179
463.541	0.07351414
463.751	0.07342238
463.96	0.07344567
464.169	0.07351715
464.379	0.07354496
464.588	0.07362349
464.797	0.07362345
465.007	0.07367598
465.216	0.07373133
465.425	0.07387726
465.635	0.07383394
465.844	0.07395131
466.053	0.07399873
466.263	0.07402664
466.472	0.07410567
466.681	0.07408327
466.89	0.07406718
467.099	0.07423387
467.309	0.07421385
467.518	0.07426701
467.727	0.07429192
467.936	0.0741944
468.145	0.07433541
468.354	0.07447037
468.563	0.07456097
468.772	0.07461384
468.982	0.07470564
469.191	0.0747862
469.4	0.07489402
469.609	0.07496715
469.818	0.07509321
470.027	0.07514095
470.236	0.07522458
470.445	0.07524381
470.654	0.0752403
470.863	0.07517227
471.072	0.07521384
471.28	0.07518935
471.489	0.07522134
471.698	0.0752905
471.907	0.07538786
472.116	0.07551733
472.325	0.0757543
472.534	0.07583893
472.743	0.07581585
472.951	0.07593177
473.16	0.07602742
473.369	0.07607319
473.578	0.07612318
473.786	0.07628036
473.995	0.07638736
474.204	0.07665773
474.413	0.07679028
474.621	0.07692175
474.83	0.07706113
475.039	0.07725297
475.247	0.07738069
475.456	0.07746574
475.665	0.07755686
475.873	0.07767069
476.082	0.07778022
476.291	0.07789361
476.499	0.07797178
476.708	0.07800693
476.916	0.07809033
477.125	0.07821826
477.333	0.07831934
477.542	0.07841334
477.75	0.07854164
477.959	0.07871168
478.167	0.07881626
478.376	0.07897982
478.584	0.07907942
478.793	0.07921164
479.001	0.07931228
479.209	0.07931163
479.418	0.07935651
479.626	0.07947471
479.834	0.07951204
480.043	0.07956567
480.251	0.07961652
480.459	0.07970831
480.668	0.07986039
480.876	0.08000487
481.084	0.08007567
481.293	0.08020171
481.501	0.08029437
481.709	0.08048679
481.917	0.08060201
482.125	0.08074426
482.334	0.08088612
482.542	0.080968
482.75	0.08116927
482.958	0.08136015
483.166	0.08151357
483.374	0.08164174
483.583	0.08181777
483.791	0.08192235
483.999	0.08212583
484.207	0.08221912
484.415	0.0822525
484.623	0.08231075
484.831	0.08243648
485.039	0.0825963
485.247	0.0826932
485.455	0.08287891
485.663	0.08299786
485.871	0.08319458
486.079	0.08334053
486.287	0.08352281
486.495	0.08358391
486.702	0.0837253
486.91	0.08382454
487.118	0.08397026
487.326	0.08406912
487.534	0.08416501
487.742	0.08427765
487.95	0.08439485
488.157	0.0845741
488.365	0.08470959
488.573	0.08490281
488.781	0.08503721
488.988	0.08520215
489.196	0.08539056
489.404	0.08552162
489.612	0.08564021
489.819	0.085824
490.027	0.08599505
490.235	0.08619594
490.442	0.08642659
490.65	0.08661817
490.857	0.08694638
491.065	0.08715055
491.273	0.08728911
491.48	0.08744723
491.688	0.08763317
491.895	0.0877536
492.103	0.08786184
492.31	0.08790288
492.518	0.08807709
492.725	0.08821311
492.933	0.0883233
493.14	0.08844198
493.348	0.08853814
493.555	0.08877328
493.763	0.08895628
493.97	0.08910764
494.177	0.08934374
494.385	0.08956585
494.592	0.08979701
494.8	0.08998279
495.007	0.09008401
495.214	0.09033293
495.422	0.09051518
495.629	0.09065244
495.836	0.09083172
496.043	0.09099007
496.251	0.09125957
496.458	0.09150618
496.665	0.09161704
496.872	0.09179229
497.08	0.09197283
497.287	0.09214762
497.494	0.09235645
497.701	0.09250892
497.908	0.09264355
498.115	0.09284725
498.322	0.09302035
498.53	0.09323082
498.737	0.09345402
498.944	0.09357968
499.151	0.09378043
499.358	0.09397148
499.565	0.0941919
499.772	0.09444715
499.979	0.09465228
500.186	0.09483505
500.393	0.09504004
500.6	0.09524957
500.807	0.09545695
501.014	0.0956539
501.221	0.0958703
501.427	0.09607153
501.634	0.0962665
501.841	0.09649798
502.048	0.09674156
502.255	0.09694806
502.462	0.09712608
502.669	0.09726745
502.875	0.09746915
503.082	0.09765075
503.289	0.09788294
503.496	0.09806133
503.702	0.09828282
503.909	0.0985504
504.116	0.09879565
504.323	0.09904104
504.529	0.09931841
504.736	0.09950838
504.943	0.09970902
505.149	0.09996544
505.356	0.10021052
505.563	0.1004541
505.769	0.10066046
505.976	0.10088404
506.182	0.1011634
506.389	0.10142006
506.595	0.10163473
506.802	0.10182498
507.008	0.10205625
507.215	0.10229704
507.421	0.10246775
507.628	0.10266449
507.834	0.10285842
508.041	0.1030506
508.247	0.1032261
508.454	0.10345846
508.66	0.10367472
508.866	0.10391456
509.073	0.10412025
509.279	0.10430332
509.486	0.1045763
509.692	0.10483866
509.898	0.10507498
510.105	0.10532373
510.311	0.10553361
510.517	0.10581776
510.723	0.10610151
510.93	0.1063272
511.136	0.10660492
511.342	0.10681756
511.548	0.1070537
511.754	0.10734097
511.961	0.107538
512.167	0.10778487
512.373	0.10806215
512.579	0.10823588
512.785	0.1084651
512.991	0.10872437
513.197	0.10892611
513.404	0.10919206
513.61	0.10945037
513.816	0.10965571
514.022	0.11000457
514.228	0.11026703
514.434	0.11047583
514.64	0.11074626
514.846	0.11101858
515.052	0.11129296
515.258	0.11152707
515.464	0.1117147
515.669	0.11201526
515.875	0.11234176
516.081	0.11262455
516.287	0.11293002
516.493	0.11320547
516.699	0.11343706
516.905	0.11367409
517.111	0.11389707
517.316	0.1141318
517.522	0.11438315
517.728	0.11458383
517.934	0.11484399
518.139	0.11514238
518.345	0.11543758
518.551	0.1157786
518.757	0.11602885
518.962	0.11630989
519.168	0.11658892
519.374	0.11685695
519.579	0.1171157
519.785	0.11740572
519.991	0.11763135
520.196	0.11793109
520.402	0.11819497
520.607	0.11848219
520.813	0.11873006
521.018	0.11904026
521.224	0.11929367
521.429	0.11955655
521.635	0.11980895
521.84	0.12008487
522.046	0.12037476
522.251	0.12065489
522.457	0.12094796
522.662	0.12124299
522.868	0.12151416
523.073	0.12176256
523.279	0.12205715
523.484	0.12233522
523.689	0.12262185
523.895	0.12290669
524.1	0.12311622
524.305	0.12339538
524.511	0.12374434
524.716	0.12402561
524.921	0.1242779
525.126	0.12458507
525.332	0.12488027
525.537	0.12524981
525.742	0.12553653
525.947	0.1258065
526.153	0.12612226
526.358	0.12646574
526.563	0.12665249
526.768	0.12693036
526.973	0.12720178
527.178	0.12753937
527.383	0.12784342
527.588	0.12814554
527.794	0.12843784
527.999	0.12877851
528.204	0.12906684
528.409	0.12936528
528.614	0.12963539
528.819	0.12989338
529.024	0.13010851
529.229	0.1304015
529.434	0.13069876
529.639	0.13097661
529.843	0.13126926
530.048	0.13157086
530.253	0.13187771
530.458	0.1322279
530.663	0.13248111
530.868	0.13282998
531.073	0.13313222
531.278	0.1334346
531.482	0.13371877
531.687	0.13399349
531.892	0.13425121
532.097	0.13450388
532.302	0.13479965
532.506	0.13512711
532.711	0.13538712
532.916	0.13571307
533.12	0.13605133
533.325	0.13636961
533.53	0.13672743
533.734	0.1370303
533.939	0.13735273
534.144	0.13770529
534.348	0.13805058
534.553	0.13837475
534.757	0.13872356
534.962	0.13902401
535.167	0.13930025
535.371	0.13960152
535.576	0.13991303
535.78	0.14021358
535.985	0.14055007
536.189	0.14081404
536.394	0.14121153
536.598	0.14156274
536.803	0.14188279
537.007	0.14219456
537.211	0.14247483
537.416	0.14274688
537.62	0.14312293
537.825	0.14336771
538.029	0.14373472
538.233	0.14398727
538.438	0.14429058
538.642	0.1445768
538.846	0.1448799
539.05	0.14518351
539.255	0.14547082
539.459	0.14571647
539.663	0.14604738
539.867	0.14637022
540.072	0.14670611
540.276	0.14705954
540.48	0.14740359
540.684	0.1477655
540.888	0.14812617
541.092	0.14850927
541.297	0.14880517
541.501	0.14909118
541.705	0.14936994
541.909	0.1496397
542.113	0.14995759
542.317	0.15026928
542.521	0.15056914
542.725	0.15090375
542.929	0.15127431
543.133	0.1516055
543.337	0.15191403
543.541	0.15220598
543.745	0.1525179
543.949	0.15279325
544.153	0.15310102
544.357	0.15337675
544.56	0.15371872
544.764	0.15406789
544.968	0.15436005
545.172	0.1545921
545.376	0.1549412
545.58	0.15526731
545.783	0.15560397
545.987	0.15591045
546.191	0.15618884
546.395	0.15654572
546.598	0.15694372
546.802	0.15723074
547.006	0.1575766
547.21	0.15784977
547.413	0.158179
547.617	0.15854113
547.821	0.15882845
548.024	0.15918682
548.228	0.15952655
548.431	0.15983848
548.635	0.16021747
548.839	0.1604896
549.042	0.16080568
549.246	0.16113116
549.449	0.16138563
549.653	0.16167814
549.856	0.16198353
550.06	0.16229543
550.263	0.16263393
550.467	0.162946
550.67	0.16329796
550.874	0.16360751
551.077	0.16394294
551.28	0.16424615
551.484	0.16455906
551.687	0.16484368
551.891	0.16516953
552.094	0.16542444
552.297	0.16579403
552.501	0.16616606
552.704	0.16646356
552.907	0.16673243
553.11	0.16706829
553.314	0.16738189
553.517	0.16772178
553.72	0.16797961
553.923	0.16821792
554.127	0.16852506
554.33	0.1688167
554.533	0.16912887
554.736	0.16935087
554.939	0.16968734
555.142	0.17010572
555.345	0.17043711
555.549	0.17077458
555.752	0.17108747
555.955	0.17138359
556.158	0.17175987
556.361	0.1720549
556.564	0.17228435
556.767	0.17257711
556.97	0.17293865
557.173	0.17328691
557.376	0.17360595
557.579	0.1738906
557.782	0.1741886
557.984	0.17447445
558.187	0.17481744
558.39	0.17505138
558.593	0.17537846
558.796	0.17566601
558.999	0.1759104
559.202	0.17623401
559.404	0.17649039
559.607	0.17675826
559.81	0.17704886
560.013	0.1773212
560.216	0.1776132
560.418	0.17797767
560.621	0.17821198
560.824	0.17854236
561.026	0.17887598
561.229	0.17920614
561.432	0.17947628
561.634	0.17975975
561.837	0.18006274
562.04	0.18040167
562.242	0.18070188
562.445	0.18092917
562.647	0.181231
562.85	0.18149842
563.053	0.18179257
563.255	0.18205744
563.458	0.18238866
563.66	0.18269405
563.863	0.18299277
564.065	0.18324899
564.268	0.18356259
564.47	0.18389885
564.672	0.18418646
564.875	0.18438602
565.077	0.18462687
565.28	0.18495309
565.482	0.18521877
565.684	0.18546128
565.887	0.18570746
566.089	0.18596314
566.291	0.18627609
566.494	0.18658072
566.696	0.18680337
566.898	0.1870977
567.1	0.18736952
567.303	0.1876502
567.505	0.18790328
567.707	0.18812468
567.909	0.18837553
568.111	0.18866203
568.314	0.18889566
568.516	0.18921602
568.718	0.1894688
568.92	0.1897542
569.122	0.19004375
569.324	0.1903295
569.526	0.19052108
569.728	0.1908333
569.93	0.19106522
570.132	0.19126812
570.334	0.19154577
570.536	0.19180576
570.738	0.19199158
570.94	0.19223897
571.142	0.19250563
571.344	0.19270956
571.546	0.19296551
571.748	0.19323161
571.95	0.19342418
572.152	0.19370492
572.354	0.19401664
572.555	0.194227
572.757	0.19455161
572.959	0.19482104
573.161	0.19502753
573.363	0.19526341
573.564	0.19558829
573.766	0.19581612
573.968	0.19608573
574.17	0.19633002
574.371	0.19654115
574.573	0.19677487
574.775	0.19705121
574.976	0.19716189
575.178	0.19740428
575.38	0.19757513
575.581	0.19773149
575.783	0.19800844
575.985	0.19827538
576.186	0.19848689
576.388	0.19875617
576.589	0.19896276
576.791	0.199213
576.992	0.19948808
577.194	0.19968431
577.395	0.19986634
577.597	0.20013131
577.798	0.20038134
578	0.20065002
578.201	0.20096756
578.402	0.20118458
578.604	0.20139182
578.805	0.20165378
579.007	0.20189186
579.208	0.20216774
579.409	0.2023358
579.611	0.20248692
579.812	0.20271255
580.013	0.20299353
580.215	0.20313098
580.416	0.20334571
580.617	0.20347248
580.818	0.20371848
581.019	0.20389484
581.221	0.20409733
581.422	0.20433281
581.623	0.20463669
581.824	0.20476875
582.025	0.20501109
582.226	0.20521987
582.428	0.20551113
582.629	0.2057078
582.83	0.20592267
583.031	0.20609181
583.232	0.20633173
583.433	0.20657428
583.634	0.2067724
583.835	0.20697024
584.036	0.20720468
584.237	0.20736758
584.438	0.207613
584.639	0.20784695
584.84	0.2080462
585.041	0.20825275
585.242	0.20841879
585.442	0.20863252
585.643	0.20889023
585.844	0.20907071
586.045	0.2092602
586.246	0.2093804
586.447	0.20954688
586.647	0.20973366
586.848	0.20989423
587.049	0.21002507
587.25	0.21017203
587.45	0.21036856
587.651	0.21064622
587.852	0.21089122
588.053	0.21121376
588.253	0.21143409
588.454	0.21164461
588.655	0.211877
588.855	0.2120815
589.056	0.21226617
589.256	0.21247495
589.457	0.21258806
589.658	0.21281901
589.858	0.21296749
590.059	0.2132217
590.259	0.21345927
590.46	0.21369394
590.66	0.21387454
590.861	0.21411485
591.061	0.21426539
591.262	0.21457095
591.462	0.21480159
591.662	0.21497019
591.863	0.21510607
592.063	0.21531988
592.264	0.21552077
592.464	0.21574516
592.664	0.21588324
592.865	0.21615264
593.065	0.21630141
593.265	0.21654888
593.465	0.21673359
593.666	0.21689774
593.866	0.21708015
594.066	0.21736208
594.266	0.21739184
594.467	0.21761592
594.667	0.21775609
594.867	0.21799615
595.067	0.21815761
595.267	0.21833916
595.467	0.21843611
595.668	0.21866174
595.868	0.21887441
596.068	0.21907435
596.268	0.21921005
596.468	0.21942994
596.668	0.2196321
596.868	0.21990923
597.068	0.22006595
597.268	0.22026535
597.468	0.22043874
597.668	0.22064758
597.868	0.22080488
598.068	0.2210317
598.268	0.22117722
598.467	0.22150037
598.667	0.22159472
598.867	0.22180306
599.067	0.2219729
599.267	0.22220552
599.467	0.22234632
599.667	0.22249733
599.866	0.222592
600.066	0.22288418
600.266	0.22305167
600.466	0.22329731
600.665	0.22342623
600.865	0.22363773
601.065	0.22383589
601.264	0.22398647
601.464	0.22408173
601.664	0.22435033
601.863	0.22447458
602.063	0.22472978
602.263	0.22480465
602.462	0.22502871
602.662	0.22522443
602.861	0.22549022
603.061	0.22560301
603.26	0.22583291
603.46	0.22591123
603.659	0.22625089
603.859	0.22635106
604.058	0.22649528
604.258	0.22676037
604.457	0.22702038
604.657	0.22708104
604.856	0.22725569
605.056	0.22743752
605.255	0.22764266
605.454	0.22791232
605.654	0.22795
605.853	0.22809672
606.052	0.2283646
606.252	0.22862802
606.451	0.22880295
606.65	0.22909619
606.849	0.22916176
607.049	0.22936121
607.248	0.22955489
607.447	0.22970898
607.646	0.22989706
607.845	0.23006781
608.045	0.23008541
608.244	0.23045211
608.443	0.23069103
608.642	0.2309354
608.841	0.23112834
609.04	0.23127382
609.239	0.2314592
609.438	0.23166907
609.637	0.23185834
609.836	0.23207072
610.035	0.23218888
610.234	0.23247037
610.433	0.23272189
610.632	0.23293698
610.831	0.23334332
611.03	0.23347045
611.229	0.23373464
611.428	0.23397864
611.627	0.23415387
611.826	0.23440302
612.025	0.23473743
612.224	0.23485973
612.422	0.23511145
612.621	0.23530512
612.82	0.23554613
613.019	0.23576969
613.218	0.23604003
613.416	0.2360778
613.615	0.23635449
613.814	0.23656952
614.012	0.23676098
614.211	0.2368715
614.41	0.23716522
614.608	0.2373371
614.807	0.23765616
615.006	0.23792791
615.204	0.2381725
615.403	0.23844969
615.602	0.23883622
615.8	0.23911865
615.999	0.23928169
616.197	0.23950994
616.396	0.23976218
616.594	0.23994939
616.793	0.24022283
616.991	0.24041014
617.19	0.24047845
617.388	0.24080593
617.586	0.24102598
617.785	0.24114933
617.983	0.24140031
618.182	0.24152007
618.38	0.24169951
618.578	0.24197131
618.777	0.24216702
618.975	0.24243543
619.173	0.24274949
619.372	0.2430089
619.57	0.24321886
619.768	0.24353344
619.966	0.24382668
620.165	0.24405399
620.363	0.24432128
620.561	0.24436859
620.759	0.24458434
620.957	0.24494204
621.155	0.24519969
621.354	0.24538337
621.552	0.24570381
621.75	0.24586347
621.948	0.24629423
622.146	0.24660541
622.344	0.24681423
622.542	0.24704689
622.74	0.24733733
622.938	0.24748839
623.136	0.24782304
623.334	0.2480625
623.532	0.24813098
623.73	0.24830566
623.928	0.2485843
624.126	0.24886571
624.324	0.24924427
624.522	0.24936314
624.719	0.24957221
624.917	0.2499815
625.115	0.25021515
625.313	0.25049139
625.511	0.25075427
625.708	0.25077492
625.906	0.25109219
626.104	0.25129481
626.302	0.25161964
626.499	0.25197857
626.697	0.25216516
626.895	0.25229158
627.093	0.25265202
627.29	0.25298016
627.488	0.25332313
627.686	0.25356618
627.883	0.25374493
628.081	0.2539096
628.278	0.25443065
628.476	0.25466122
628.673	0.2548935
628.871	0.25507887
629.068	0.25531687
629.266	0.25569789
629.463	0.2559719
629.661	0.25608977
629.858	0.25630663
630.056	0.25650493
630.253	0.25674315
630.451	0.25698942
630.648	0.25718939
630.845	0.25743183
631.043	0.25766534
631.24	0.25805035
631.438	0.25838409
631.635	0.25870694
631.832	0.25883601
632.029	0.25909373
632.227	0.25943775
632.424	0.25971254
632.621	0.25997272
632.818	0.26016601
633.016	0.26042519
633.213	0.26069101
633.41	0.26104291
633.607	0.26127001
633.804	0.26154452
634.001	0.26168557
634.199	0.26200085
634.396	0.26223776
634.593	0.26248402
634.79	0.26271691
634.987	0.26300914
635.184	0.26325126
635.381	0.26362422
635.578	0.26389395
635.775	0.26413161
635.972	0.26443249
636.169	0.26462379
636.366	0.26483067
636.563	0.26503852
636.76	0.26521159
636.957	0.26546585
637.153	0.26564224
637.35	0.26593065
637.547	0.26615844
637.744	0.26639706
637.941	0.26668447
638.138	0.26699709
638.334	0.26715548
638.531	0.26750282
638.728	0.26777753
638.925	0.26814544
639.121	0.26842751
639.318	0.26873012
639.515	0.26894218
639.711	0.26934523
639.908	0.26947266
640.105	0.26967618
640.301	0.2698985
640.498	0.27012927
640.695	0.27036279
640.891	0.27061845
641.088	0.27076262
641.284	0.27112678
641.481	0.27136367
641.677	0.27154207
641.874	0.27173512
642.07	0.27201287
642.267	0.27237159
642.463	0.27263617
642.66	0.27294469
642.856	0.27314317
643.053	0.27333983
643.249	0.27365711
643.445	0.27388289
643.642	0.27405393
643.838	0.27435005
644.034	0.27455436
644.231	0.27489641
644.427	0.2752388
644.623	0.27553263
644.82	0.27577792
645.016	0.27602354
645.212	0.2761994
645.408	0.27644213
645.604	0.27680115
645.801	0.27706753
645.997	0.27729724
646.193	0.27748152
646.389	0.27782745
646.585	0.27811797
646.781	0.27846842
646.977	0.27864236
647.173	0.27880999
647.37	0.27902327
647.566	0.27933265
647.762	0.27949613
647.958	0.2798139
648.154	0.27990683
648.35	0.28018719
648.546	0.28044167
648.742	0.28082273
648.937	0.28094092
649.133	0.28123524
649.329	0.2814904
649.525	0.28181381
649.721	0.28204757
649.917	0.28240727
650.113	0.28249365
650.309	0.2829791
650.504	0.28313514
650.7	0.28324889
650.896	0.28351704
651.092	0.283738
651.287	0.28394777
651.483	0.28430892
651.679	0.28441661
651.875	0.28475284
652.07	0.28500994
652.266	0.28525242
652.462	0.28550864
652.657	0.28577015
652.853	0.28590919
653.048	0.28615418
653.244	0.28622274
653.44	0.2864658
653.635	0.28659791
653.831	0.28681362
654.026	0.28704801
654.222	0.28733956
654.417	0.28765933
654.613	0.28803113
654.808	0.28824976
655.004	0.28858794
655.199	0.2887815
655.394	0.28893482
655.59	0.28923963
655.785	0.2893705
655.98	0.28963663
656.176	0.28986957
656.371	0.29017323
656.566	0.2904788
656.762	0.29066213
656.957	0.29086193
657.152	0.29107489
657.348	0.29125275
657.543	0.29151132
657.738	0.29166744
657.933	0.29180748
658.128	0.29208317
658.324	0.29224616
658.519	0.29246981
658.714	0.29270119
658.909	0.29290288
659.104	0.29311182
659.299	0.2933672
659.494	0.29358231
659.689	0.29386466
659.884	0.29412455
660.079	0.29430335
660.274	0.29453889
660.469	0.29480364
660.664	0.29515171
660.859	0.29541939
661.054	0.29562274
661.249	0.29587241
661.444	0.29610671
661.639	0.29629679
661.834	0.29646546
662.029	0.29664232
662.224	0.29683298
662.418	0.29706919
662.613	0.29727556
662.808	0.29744704
663.003	0.29767455
663.198	0.29790761
663.392	0.29802807
663.587	0.29836359
663.782	0.29847717
663.977	0.29868796
664.171	0.29900799
664.366	0.29927015
664.561	0.29949791
664.755	0.29980534
664.95	0.29990997
665.144	0.30018234
665.339	0.30044624
665.534	0.30067056
665.728	0.30092486
665.923	0.30117491
666.117	0.30133358
666.312	0.3015629
666.506	0.30192853
666.701	0.3020801
666.895	0.30225715
667.09	0.3023878
667.284	0.30266075
667.479	0.30285187
667.673	0.30299637
667.867	0.30315006
668.062	0.30332964
668.256	0.30360018
668.45	0.303942
668.645	0.30408798
668.839	0.30438662
669.033	0.30465579
669.228	0.30482156
669.422	0.30511321
669.616	0.30527049
669.81	0.30550487
670.004	0.30568689
670.199	0.30588096
670.393	0.30610369
670.587	0.30636279
670.781	0.30659526
670.975	0.30687718
671.169	0.3069781
671.363	0.3071576
671.558	0.30733152
671.752	0.3075824
671.946	0.30777564
672.14	0.30800852
672.334	0.30815605
672.528	0.30851738
672.722	0.30873309
672.916	0.30895623
673.11	0.30908156
673.304	0.30932934
673.497	0.30940969
673.691	0.3096802
673.885	0.30969982
674.079	0.30998568
674.273	0.31013177
674.467	0.31040219
674.661	0.31052946
674.854	0.31081569
675.048	0.3110355
675.242	0.31135212
675.436	0.31152246
675.629	0.31176918
675.823	0.31192323
676.017	0.31224779
676.211	0.31235047
676.404	0.31252196
676.598	0.31266471
676.792	0.31284973
676.985	0.31315963
677.179	0.31341387
677.372	0.31352282
677.566	0.31393266
677.76	0.31418036
677.953	0.31440687
678.147	0.31466973
678.34	0.31490543
678.534	0.31507813
678.727	0.31533318
678.921	0.3155416
679.114	0.31564423
679.307	0.31588109
679.501	0.31609582
679.694	0.31621088
679.888	0.31644409
680.081	0.31667712
680.274	0.31674364
680.468	0.31706941
680.661	0.31728459
680.854	0.31756741
681.048	0.31785055
681.241	0.31804267
681.434	0.31820712
681.627	0.31850854
681.821	0.31871737
682.014	0.31899666
682.207	0.31912398
682.4	0.31930071
682.593	0.31960831
682.786	0.31979167
682.98	0.31997725
683.173	0.32019362
683.366	0.32034573
683.559	0.32055867
683.752	0.32084304
683.945	0.3210145
684.138	0.32131287
684.331	0.32147553
684.524	0.32169521
684.717	0.32187427
684.91	0.32216966
685.103	0.32232389
685.296	0.32255506
685.489	0.32277059
685.682	0.32299075
685.874	0.32328021
686.067	0.32351145
686.26	0.32367354
686.453	0.32387062
686.646	0.32404145
686.839	0.32423197
687.031	0.32445764
687.224	0.32441656
687.417	0.32466182
687.61	0.32483863
687.802	0.3250051
687.995	0.32528435
688.188	0.32549459
688.38	0.32571345
688.573	0.32606747
688.766	0.32624099
688.958	0.32642605
689.151	0.32657397
689.343	0.32678361
689.536	0.32694749
689.729	0.32712634
689.921	0.32731938
690.114	0.32743696
690.306	0.32764442
690.499	0.32792615
690.691	0.32811091
690.884	0.32832864
691.076	0.3286118
691.268	0.32881736
691.461	0.32902826
691.653	0.32929012
691.846	0.32952371
692.038	0.32969603
692.23	0.32981611
692.423	0.32998012
692.615	0.33020157
692.807	0.33045336
692.999	0.33062666
693.192	0.33072704
693.384	0.33096682
693.576	0.33117665
693.768	0.33137524
693.961	0.33146111
694.153	0.33168681
694.345	0.33183776
694.537	0.33211231
694.729	0.33227099
694.921	0.33244805
695.113	0.33269975
695.305	0.33298204
695.498	0.33309125
695.69	0.33338148
695.882	0.33355878
696.074	0.33384971
696.266	0.33410618
696.458	0.33426509
696.65	0.33457165
696.842	0.33490308
697.033	0.33504234
697.225	0.33520312
697.417	0.33540055
697.609	0.33565989
697.801	0.33585581
697.993	0.33601991
698.185	0.33622484
698.376	0.33652531
698.568	0.33675431
698.76	0.33691195
698.952	0.33707052
699.144	0.33726134
699.335	0.33741044
699.527	0.33752346
699.719	0.3376314
699.91	0.33795069
700.102	0.33813163
700.294	0.33838462
700.485	0.3386208
700.677	0.33883589
700.869	0.33916123
701.06	0.33947183
701.252	0.33960181
701.443	0.33986603
701.635	0.34008176
701.826	0.34032767
702.018	0.34057326
702.209	0.34073871
702.401	0.34089928
702.592	0.3412426
702.784	0.34143501
702.975	0.341689
703.166	0.34189674
703.358	0.34206534
703.549	0.34231149
703.741	0.34252944
703.932	0.3426303
704.123	0.34279828
704.315	0.34298432
704.506	0.34329798
704.697	0.34353798
704.888	0.34378567
705.08	0.34399498
705.271	0.34427605
705.462	0.34445019
705.653	0.3446532
705.844	0.34470925
706.035	0.34490827
706.227	0.34501476
706.418	0.34520278
706.609	0.34533337
706.8	0.34568958
706.991	0.34587777
707.182	0.34615555
707.373	0.34635085
707.564	0.34665316
707.755	0.3468443
707.946	0.34708126
708.137	0.34720954
708.328	0.34738917
708.519	0.34754467
708.71	0.34775317
708.901	0.34791146
709.092	0.34819194
709.283	0.34839112
709.473	0.34861433
709.664	0.34887517
709.855	0.34910226
710.046	0.34935116
710.237	0.34955301
710.427	0.34973405
710.618	0.3499825
710.809	0.35017731
711	0.35043201
711.19	0.35063774
711.381	0.35088653
711.572	0.35105685
711.762	0.35131398
711.953	0.35145149
712.144	0.35167955
712.334	0.35184503
712.525	0.35213254
712.715	0.35228864
712.906	0.35249753
713.097	0.35260383
713.287	0.35286867
713.478	0.35304344
713.668	0.35329969
713.859	0.35345054
714.049	0.35371013
714.239	0.35403344
714.43	0.35431718
714.62	0.35448411
714.811	0.35473319
715.001	0.35492057
715.191	0.35509779
715.382	0.35520509
715.572	0.35545021
715.762	0.35562552
715.953	0.35595543
716.143	0.35624858
716.333	0.35643664
716.523	0.35670534
716.714	0.35706368
716.904	0.35721375
717.094	0.35751568
717.284	0.35759936
717.474	0.35776551
717.664	0.35806279
717.855	0.35826204
718.045	0.35842216
718.235	0.35867251
718.425	0.35892398
718.615	0.35924429
718.805	0.35949854
718.995	0.35974672
719.185	0.36008311
719.375	0.36040246
719.565	0.36071338
719.755	0.36087594
719.945	0.36108692
720.135	0.3613953
720.325	0.36164644
720.515	0.36189145
720.704	0.36212215
720.894	0.36234809
721.084	0.36264531
721.274	0.36297399
721.464	0.36317003
721.654	0.3633899
721.843	0.363592
722.033	0.36382603
722.223	0.36399208
722.413	0.36428508
722.602	0.36446058
722.792	0.36473592
722.982	0.36492899
723.171	0.36516628
723.361	0.36535476
723.55	0.36568625
723.74	0.36582726
723.93	0.36607942
724.119	0.36627545
724.309	0.36657088
724.498	0.36677623
724.688	0.36701623
724.877	0.36720265
725.067	0.36743526
725.256	0.36762411
725.446	0.36779972
725.635	0.3679408
725.825	0.36814551
726.014	0.36830841
726.203	0.36842103
726.393	0.36854406
726.582	0.36869911
726.771	0.36891486
726.961	0.36911311
727.15	0.36926197
727.339	0.36945588
727.529	0.36973674
727.718	0.36987936
727.907	0.37004991
728.096	0.3701956
728.286	0.37027192
728.475	0.37046791
728.664	0.37062517
728.853	0.37071814
729.042	0.3709168
729.231	0.37111365
729.42	0.37123345
729.609	0.37144177
729.799	0.37152435
729.988	0.37170329
730.177	0.37179502
730.366	0.37194712
730.555	0.37208816
730.744	0.37231909
730.933	0.37250502
731.122	0.37272738
731.31	0.37287468
731.499	0.37303279
731.688	0.37329171
731.877	0.37344809
732.066	0.37353629
732.255	0.3736637
732.444	0.37378051
732.632	0.37393361
732.821	0.37411358
733.01	0.374197
733.199	0.37426522
733.388	0.37439907
733.576	0.37452677
733.765	0.37465679
733.954	0.37476734
734.142	0.3749098
734.331	0.37512418
734.52	0.37539377
734.708	0.37561723
734.897	0.37584348
735.086	0.37604768
735.274	0.37623823
735.463	0.37640885
735.651	0.37648668
735.84	0.3766415
736.028	0.37677758
736.217	0.37696044
736.405	0.37711327
736.594	0.37723847
736.782	0.37741566
736.971	0.37763221
737.159	0.37776036
737.347	0.37791698
737.536	0.37802789
737.724	0.37818234
737.912	0.37832388
738.101	0.37841737
738.289	0.37852374
738.477	0.3786845
738.666	0.37879675
738.854	0.37894161
739.042	0.37907786
739.23	0.37917711
739.418	0.37933132
739.607	0.3793897
739.795	0.3794465
739.983	0.37964678
740.171	0.37976832
740.359	0.37990659
740.547	0.38003725
740.735	0.38019681
740.923	0.38042686
741.112	0.38065006
741.3	0.38079062
741.488	0.38087714
741.676	0.38106449
741.864	0.38129023
742.052	0.38150935
742.239	0.38161776
742.427	0.38180626
742.615	0.38189662
742.803	0.38208999
742.991	0.38213032
743.179	0.38222087
743.367	0.38233635
743.555	0.38252296
743.742	0.38254167
743.93	0.38267685
744.118	0.38283663
744.306	0.38299864
744.494	0.38311239
744.681	0.38312506
744.869	0.38323353
745.057	0.38338116
745.244	0.38352649
745.432	0.38363984
745.62	0.38378797
745.807	0.38398515
745.995	0.38419971
746.182	0.38428628
746.37	0.38446218
746.558	0.38449981
746.745	0.38451225
746.933	0.38460609
747.12	0.38466208
747.308	0.38482913
747.495	0.38493106
747.683	0.38502917
747.87	0.38517387
748.057	0.38540452
748.245	0.38553468
748.432	0.38572621
748.62	0.38579799
748.807	0.38588877
748.994	0.38597636
749.182	0.38612023
749.369	0.38614557
749.556	0.38623277
749.743	0.38624391
749.931	0.38627088
750.118	0.38643834
750.305	0.38644368
750.492	0.38647466
750.68	0.38659122
750.867	0.38671981
751.054	0.38689219
751.241	0.3869937
751.428	0.38708249
751.615	0.38727794
751.802	0.38741429
751.989	0.38752136
752.176	0.3876841
752.363	0.3877453
752.55	0.38787464
752.737	0.38794687
752.924	0.38801919
753.111	0.3881502
753.298	0.38829357
753.485	0.38828848
753.672	0.38836633
753.859	0.38843908
754.046	0.38851939
754.233	0.38856872
754.42	0.3886838
754.606	0.38870263
754.793	0.38880579
754.98	0.38891226
755.167	0.38896346
755.353	0.38907949
755.54	0.3892179
755.727	0.38928525
755.914	0.38941156
756.1	0.38951626
756.287	0.38956243
756.474	0.38963807
756.66	0.38972426
756.847	0.38977915
757.033	0.38977533
757.22	0.38975317
757.407	0.3898453
757.593	0.38990632
757.78	0.38998769
757.966	0.3901094
758.153	0.39021788
758.339	0.39027929
758.526	0.39043474
758.712	0.39036796
758.898	0.39047834
759.085	0.39047958
759.271	0.39044889
759.458	0.39045996
759.644	0.39054648
759.83	0.39057658
760.017	0.39071512
760.203	0.39073507
760.389	0.39085292
760.576	0.39090624
760.762	0.39096862
760.948	0.39093789
761.134	0.39092965
761.32	0.39091106
761.507	0.39088293
761.693	0.39095758
761.879	0.39095717
762.065	0.39097644
762.251	0.39107536
762.437	0.39118447
762.623	0.39126749
762.809	0.39133487
762.995	0.3913904
763.181	0.39146745
763.367	0.39150245
763.553	0.39152512
763.739	0.39149383
763.925	0.39153451
764.111	0.39158475
764.297	0.39150772
764.483	0.39148647
764.669	0.39144036
764.855	0.39136149
765.041	0.39132793
765.227	0.39128049
765.412	0.39138285
765.598	0.39144701
765.784	0.39149734
765.97	0.39159056
766.156	0.39173682
766.341	0.39184852
766.527	0.3918445
766.713	0.39175244
766.898	0.39176972
767.084	0.39176841
767.27	0.39174095
767.455	0.39171791
767.641	0.39166804
767.827	0.39173085
768.012	0.39177046
768.198	0.39173596
768.383	0.39171211
768.569	0.39173686
768.754	0.39177167
768.94	0.39175844
769.125	0.39166257
769.311	0.39156305
769.496	0.3915079
769.682	0.39146197
769.867	0.39144091
770.052	0.39141093
770.238	0.39138894
770.423	0.39143235
770.608	0.3915448
770.794	0.39160616
770.979	0.39161915
771.164	0.39156242
771.35	0.39147625
771.535	0.39148827
771.72	0.39143885
771.905	0.39140392
772.09	0.39128567
772.276	0.39124907
772.461	0.39113058
772.646	0.39109214
772.831	0.39098356
773.016	0.39103003
773.201	0.39088293
773.386	0.39089766
773.571	0.39081151
773.756	0.39082631
773.941	0.39071298
774.126	0.39076024
774.311	0.39064566
774.496	0.3906174
774.681	0.39059049
774.866	0.39062906
775.051	0.39060893
775.236	0.3906315
775.421	0.39053016
775.606	0.3904259
775.791	0.39031746
775.976	0.39021659
776.16	0.39009036
776.345	0.39006517
776.53	0.39002249
776.715	0.39000365
776.899	0.38999078
777.084	0.39002702
777.269	0.38996293
777.454	0.38991985
777.638	0.38978841
777.823	0.38969987
778.008	0.38952151
778.192	0.3894602
778.377	0.38939976
778.561	0.38937045
778.746	0.38930818
778.931	0.3892724
779.115	0.38926699
779.3	0.38927196
779.484	0.38915022
779.669	0.38895283
779.853	0.3888111
780.037	0.38870372
780.222	0.38852448
780.406	0.38831836
780.591	0.38819443
780.775	0.38806186
780.959	0.38803608
781.144	0.3879467
781.328	0.38785913
781.512	0.38777647
781.697	0.38767581
781.881	0.38748951
782.065	0.38739703
782.249	0.38717146
782.434	0.3870677
782.618	0.38692262
782.802	0.38686123
782.986	0.38675314
783.17	0.38669413
783.354	0.38658808
783.539	0.38656347
783.723	0.38633736
783.907	0.38621429
784.091	0.38603192
784.275	0.38595945
784.459	0.38579539
784.643	0.38564906
784.827	0.38541977
785.011	0.38532235
785.195	0.38519202
785.379	0.38509182
785.563	0.38494251
785.747	0.38485921
785.93	0.38489956
786.114	0.38477092
786.298	0.38466159
786.482	0.38450458
786.666	0.38439619
786.85	0.38418765
787.033	0.38403044
787.217	0.38374145
787.401	0.38363399
787.585	0.3834684
787.768	0.38331612
787.952	0.3830932
788.136	0.38292152
788.319	0.38274144
788.503	0.38249873
788.687	0.38236946
788.87	0.38223474
789.054	0.3820769
789.237	0.38192951
789.421	0.38178365
789.605	0.38163129
789.788	0.38152555
789.972	0.38131445
790.155	0.38109637
790.338	0.38092814
790.522	0.38076868
790.705	0.38058144
790.889	0.3803431
791.072	0.38018577
791.256	0.38005903
791.439	0.37992621
791.622	0.37976512
791.806	0.37970254
791.989	0.37952882
792.172	0.37940629
792.355	0.37919052
792.539	0.37906152
792.722	0.37880641
792.905	0.37846581
793.088	0.37812508
793.271	0.3780239
793.455	0.37783837
793.638	0.37764345
793.821	0.37735944
794.004	0.37722227
794.187	0.37722788
794.37	0.37713623
794.553	0.37691312
794.736	0.37665792
794.919	0.37643462
795.102	0.37626313
795.285	0.37606135
795.468	0.37580317
795.651	0.37556597
795.834	0.37540669
796.017	0.3752997
796.2	0.37514832
796.383	0.37494863
796.566	0.37480937
796.749	0.37467488
796.931	0.37445991
797.114	0.37416415
797.297	0.37387342
797.48	0.37355972
797.663	0.37336405
797.845	0.37308758
798.028	0.37284386
798.211	0.37262483
798.393	0.37238994
798.576	0.37221347
798.759	0.3719992
798.941	0.37170253
799.124	0.37148771
799.307	0.3712488
799.489	0.37106459
799.672	0.37087525
799.854	0.37064035
800.037	0.37047809
800.219	0.37029986
800.402	0.37014742
800.584	0.3698682
800.767	0.36957785
800.949	0.36933557
801.132	0.3691791
801.314	0.36894259
801.496	0.36871667
801.679	0.36831226
801.861	0.36805939
802.043	0.36773609
802.226	0.36742949
802.408	0.36710409
802.59	0.3668956
802.772	0.36665043
802.955	0.36649345
803.137	0.36626118
803.319	0.36604383
803.501	0.36579396
803.684	0.36556646
803.866	0.36521215
804.048	0.3649423
804.23	0.36468061
804.412	0.36450905
804.594	0.36431769
804.776	0.36413788
804.958	0.36387534
805.14	0.36375001
805.322	0.36355349
805.504	0.3633699
805.686	0.36305482
805.868	0.36273691
806.05	0.3624737
806.232	0.36222576
806.414	0.36193388
806.596	0.36157355
806.778	0.36120842
806.96	0.36097324
807.141	0.36071398
807.323	0.36041597
807.505	0.36007142
807.687	0.35976108
807.869	0.35950547
808.05	0.35922759
808.232	0.3588905
808.414	0.3586351
808.595	0.35839812
808.777	0.35816841
808.959	0.35796333
809.14	0.35773622
809.322	0.35757983
809.504	0.35728078
809.685	0.35701945
809.867	0.35670507
810.048	0.35635577
810.23	0.35602818
810.411	0.35568414
810.593	0.35525603
810.774	0.35496878
810.956	0.35463092
811.137	0.35429138
811.319	0.35406131
811.5	0.35376112
811.681	0.3534697
811.863	0.35318514
812.044	0.35288773
812.225	0.3526912
812.407	0.35243817
812.588	0.35215
812.769	0.35177883
812.951	0.35145666
813.132	0.35115673
813.313	0.35082741
813.494	0.35043686
813.675	0.35018276
813.857	0.34992267
814.038	0.34976467
814.219	0.34951623
814.4	0.34928994
814.581	0.34913402
814.762	0.34881059
814.943	0.34856057
815.124	0.34820812
815.305	0.34777349
815.486	0.34753952
815.667	0.34724049
815.848	0.34683367
816.029	0.34650657
816.21	0.34611212
816.391	0.3458995
816.572	0.34562003
816.753	0.34527994
816.934	0.34492376
817.115	0.34464658
817.295	0.34438723
817.476	0.34399325
817.657	0.34357548
817.838	0.34332272
818.019	0.34298758
818.199	0.34259078
818.38	0.34223417
818.561	0.34182448
818.741	0.34158357
818.922	0.34124392
819.103	0.34090952
819.283	0.34053694
819.464	0.34027292
819.645	0.33992899
819.825	0.33970535
820.006	0.33935548
820.186	0.33901159
820.367	0.33865279
820.547	0.33828854
820.728	0.33793466
820.908	0.3376667
821.089	0.33737
821.269	0.33710917
821.45	0.33685757
821.63	0.33653066
821.81	0.33621709
821.991	0.33597348
822.171	0.33557748
822.351	0.33519737
822.532	0.33482062
822.712	0.3344017
822.892	0.33408528
823.072	0.33372528
823.253	0.33331799
823.433	0.33301376
823.613	0.33266619
823.793	0.33226968
823.973	0.33199956
824.154	0.33164509
824.334	0.33135318
824.514	0.33099036
824.694	0.33065724
824.874	0.33023256
825.054	0.32993056
825.234	0.32951863
825.414	0.32908981
825.594	0.32866306
825.774	0.32832428
825.954	0.3278929
826.134	0.32754684
826.314	0.32708135
826.494	0.32679493
826.674	0.32634384
826.854	0.32597726
827.033	0.32550372
827.213	0.32529216
827.393	0.32485101
827.573	0.3245283
827.753	0.32410797
827.932	0.32388482
828.112	0.32361511
828.292	0.32340058
828.472	0.32293539
828.651	0.32279774
828.831	0.32247914
829.011	0.32211598
829.19	0.32169688
829.37	0.32128946
829.549	0.32086637
829.729	0.32044259
829.909	0.3199915
830.088	0.3195571
830.268	0.31906884
830.447	0.31868163
830.627	0.31828972
830.806	0.31797634
830.986	0.31761852
831.165	0.31727396
831.344	0.31693555
831.524	0.31666705
831.703	0.31632612
831.883	0.31595817
832.062	0.3155027
832.241	0.31507705
832.421	0.31462418
832.6	0.31428986
832.779	0.31393683
832.958	0.31363808
833.138	0.31328029
833.317	0.31300174
833.496	0.31276893
833.675	0.31242065
833.854	0.3120663
834.034	0.31167982
834.213	0.31127061
834.392	0.3109738
834.571	0.31049659
834.75	0.31008543
834.929	0.30967436
835.108	0.30927268
835.287	0.30892079
835.466	0.3084402
835.645	0.30800963
835.824	0.30763678
836.003	0.30726391
836.182	0.30698845
836.361	0.3066205
836.54	0.3062167
836.719	0.30591118
836.897	0.30544876
837.076	0.30507008
837.255	0.30471186
837.434	0.30431161
837.613	0.3039568
837.791	0.30361582
837.97	0.30323449
838.149	0.30286085
838.328	0.3024346
838.506	0.30200695
838.685	0.30157812
838.864	0.30123502
839.042	0.30072277
839.221	0.30037775
839.4	0.30005069
839.578	0.29972814
839.757	0.29928351
839.935	0.29886488
840.114	0.29845456
840.292	0.29812923
840.471	0.29786819
840.649	0.29751098
840.828	0.29719548
841.006	0.29691244
841.185	0.29651171
841.363	0.29628452
841.541	0.29596165
841.72	0.29556139
841.898	0.29513297
842.076	0.29459742
842.255	0.2941808
842.433	0.29384301
842.611	0.29311351
842.789	0.29272527
842.968	0.29231496
843.146	0.2920142
843.324	0.29173025
843.502	0.29138586
843.68	0.29108166
843.859	0.29085611
844.037	0.29046986
844.215	0.28995653
844.393	0.28950482
844.571	0.289156
844.749	0.28874705
844.927	0.28832148
845.105	0.28789369
845.283	0.28746347
845.461	0.28711857
845.639	0.28678441
845.817	0.28632993
845.995	0.2859484
846.173	0.28559925
846.351	0.28523521
846.529	0.28484844
846.706	0.28435517
846.884	0.28395732
847.062	0.28358177
847.24	0.28314735
847.418	0.28259669
847.595	0.28217003
847.773	0.2817932
847.951	0.28142
848.129	0.2809431
848.306	0.28057017
848.484	0.28026648
848.662	0.28003903
848.839	0.27977695
849.017	0.27949411
849.194	0.27916324
849.372	0.27876301
849.549	0.27831262
849.727	0.27786013
849.905	0.27729623
850.082	0.27685665
850.26	0.27637376
850.437	0.27595532
850.614	0.27558562
850.792	0.27525297
850.969	0.27498473
851.147	0.27477088
851.324	0.27439449
851.501	0.27406932
851.679	0.27380778
851.856	0.27346416
852.033	0.27315114
852.211	0.27268421
852.388	0.2722246
852.565	0.27182902
852.742	0.27145816
852.92	0.27104986
853.097	0.27064089
853.274	0.27020026
853.451	0.26975245
853.628	0.2693941
853.805	0.26900018
853.982	0.268544
854.159	0.26814303
854.336	0.26778394
854.514	0.26740656
854.691	0.26702831
854.868	0.26659523
855.045	0.26610972
855.221	0.26578706
855.398	0.26539187
855.575	0.26500898
855.752	0.26467686
855.929	0.26442842
856.106	0.26404609
856.283	0.26378325
856.46	0.2634327
856.637	0.26313656
856.813	0.26279446
856.99	0.26236515
857.167	0.26194576
857.344	0.26155709
857.52	0.26122454
857.697	0.26065833
857.874	0.26012245
858.05	0.25965085
858.227	0.25918062
858.404	0.25876231
858.58	0.25848859
858.757	0.25793239
858.933	0.25766929
859.11	0.25731607
859.287	0.25693005
859.463	0.25663185
859.64	0.25612715
859.816	0.25564416
859.993	0.2553286
860.169	0.25496986
860.345	0.25453668
860.522	0.25422738
860.698	0.25376671
860.875	0.25356924
861.051	0.25329688
861.227	0.25293158
861.404	0.2525579
861.58	0.25240283
861.756	0.25197727
861.932	0.2517439
862.109	0.25120745
862.285	0.25080679
862.461	0.25047261
862.637	0.25009354
862.813	0.24959288
862.99	0.2492316
863.166	0.24875554
863.342	0.24854631
863.518	0.24801091
863.694	0.24765307
863.87	0.24715603
864.046	0.24674881
864.222	0.24636903
864.398	0.24612209
864.574	0.24556457
864.75	0.24524731
864.926	0.24484999
865.102	0.24452108
865.278	0.24411637
865.454	0.24379488
865.63	0.24327496
865.805	0.2429366
865.981	0.24256894
866.157	0.24220023
866.333	0.24175815
866.509	0.24149216
866.684	0.24116147
866.86	0.24092003
867.036	0.24063721
867.212	0.24036408
867.387	0.24003772
867.563	0.23983301
867.739	0.23939077
867.914	0.23895869
868.09	0.23849017
868.265	0.23811726
868.441	0.23774563
868.617	0.23738173
868.792	0.23705425
868.968	0.23668041
869.143	0.23636824
869.319	0.23616373
869.494	0.23576507
869.67	0.23542521
869.845	0.23500909
870.02	0.23461981
870.196	0.23434835
870.371	0.23396389
870.546	0.23355425
870.722	0.23327495
870.897	0.2327837
871.072	0.23246592
871.248	0.23201771
871.423	0.23159505
871.598	0.23129996
871.773	0.23078149
871.949	0.23034041
872.124	0.23011219
872.299	0.22975482
872.474	0.22944436
872.649	0.22910942
872.824	0.22875626
872.999	0.22855844
873.174	0.22828081
873.349	0.22789884
873.524	0.22756434
873.699	0.22730183
873.874	0.22701786
874.049	0.22669567
874.224	0.22635545
874.399	0.22598916
874.574	0.22575396
874.749	0.22547839
874.924	0.22503275
875.099	0.22461368
875.274	0.22416887
875.449	0.22373355
875.623	0.22334531
875.798	0.22282459
875.973	0.22230559
876.148	0.2218932
876.322	0.22155697
876.497	0.22117766
876.672	0.22095887
876.846	0.22067026
877.021	0.22041938
877.196	0.22006763
877.37	0.21977964
877.545	0.21955656
877.72	0.21926853
877.894	0.21882451
878.069	0.2184768
878.243	0.21801085
878.418	0.21766479
878.592	0.21727334
878.767	0.21672527
878.941	0.21642731
879.116	0.215913
879.29	0.21543568
879.464	0.2150931
879.639	0.21483674
879.813	0.21463518
879.987	0.21436905
880.162	0.21397104
880.336	0.21395037
880.51	0.2137874
880.685	0.21369992
880.859	0.21338351
881.033	0.2129669
881.207	0.21255412
881.381	0.21232899
881.556	0.2118172
881.73	0.21135706
881.904	0.21103149
882.078	0.2107098
882.252	0.21047026
882.426	0.21013506
882.6	0.20972771
882.774	0.20945391
882.948	0.20920472
883.122	0.20869679
883.296	0.20833362
883.47	0.20798246
883.644	0.20788662
883.818	0.20737857
883.992	0.20711087
884.166	0.20693735
884.34	0.20661269
884.514	0.2063598
884.687	0.20598428
884.861	0.20555057
885.035	0.2055148
885.209	0.20520478
885.382	0.20488454
885.556	0.20462093
885.73	0.20434144
885.904	0.20408104
886.077	0.20375124
886.251	0.20328398
886.425	0.20284099
886.598	0.20242584
886.772	0.20200425
886.945	0.20147634
887.119	0.20109797
887.292	0.20072387
887.466	0.20047891
887.64	0.20018616
887.813	0.19982919
887.986	0.19963019
888.16	0.19957575
888.333	0.19931644
888.507	0.19912968
888.68	0.19877305
888.854	0.19858721
889.027	0.19833038
889.2	0.19808629
889.374	0.19760282
889.547	0.19741134
889.72	0.19714114
889.893	0.19694312
890.067	0.19653366
890.24	0.1961666
890.413	0.19572876
890.586	0.19538809
890.759	0.19504911
890.933	0.19470191
891.106	0.19441719
891.279	0.19426367
891.452	0.19403531
891.625	0.19374908
891.798	0.19364915
891.971	0.19336498
892.144	0.19293061
892.317	0.19257176
892.49	0.19202634
892.663	0.19154742
892.836	0.19136556
893.009	0.19104873
893.182	0.19047946
893.355	0.19032835
893.527	0.18995448
893.7	0.18994902
893.873	0.18993107
894.046	0.18965299
894.219	0.18932575
894.391	0.18923418
894.564	0.18896639
894.737	0.18874201
894.91	0.18827781
895.082	0.18777859
895.255	0.18745381
895.428	0.18714185
895.6	0.18675465
895.773	0.18638652
895.945	0.18604704
896.118	0.18574263
896.291	0.18554946
896.463	0.18524661
896.636	0.18506829
896.808	0.1849476
896.981	0.18477891
897.153	0.18450932
897.326	0.18424577
897.498	0.18393888
897.67	0.18358486
897.843	0.1832095
898.015	0.18292283
898.187	0.18259822
898.36	0.18227044
898.532	0.18201579
898.704	0.18177382
898.877	0.18142581
899.049	0.18117804
899.221	0.18089878
899.393	0.18064038
899.566	0.18047069
899.738	0.18037272
899.91	0.18019527
900.082	0.18010381
900.254	0.17992192
900.426	0.17963044
900.598	0.17936232
900.77	0.17906836
900.942	0.17854928
901.114	0.17806827
901.286	0.17761667
901.458	0.17725658
901.63	0.17694856
901.802	0.17661747
901.974	0.1764859
902.146	0.17631254
902.318	0.17608803
902.49	0.17591011
902.662	0.17565915
902.834	0.17531519
903.005	0.17513336
903.177	0.17477254
903.349	0.17458164
903.521	0.17440063
903.693	0.17414894
903.864	0.17386578
904.036	0.17371749
904.208	0.17321376
904.379	0.17288056
904.551	0.17264155
904.723	0.17252684
904.894	0.17227048
905.066	0.17196502
905.237	0.17182065
905.409	0.171779
905.58	0.17166767
905.752	0.17141025
905.923	0.17097143
906.095	0.17070689
906.266	0.17039326
906.438	0.17011991
906.609	0.1699012
906.78	0.16957514
906.952	0.169264
907.123	0.16892997
907.295	0.16875686
907.466	0.16861411
907.637	0.16835772
907.808	0.16797554
907.98	0.167606
908.151	0.16747046
908.322	0.1674145
908.493	0.1671973
908.665	0.16700794
908.836	0.16679094
909.007	0.1666423
909.178	0.16645462
909.349	0.16616655
909.52	0.16595173
909.691	0.16556746
909.862	0.16529469
910.033	0.16498669
910.204	0.16478438
910.375	0.16473338
910.546	0.16446724
910.717	0.16420958
910.888	0.16417957
911.059	0.16397946
911.23	0.16368718
911.401	0.16347406
911.572	0.16318249
911.742	0.16300305
911.913	0.16271589
912.084	0.16224746
912.255	0.16193821
912.426	0.16180486
912.596	0.16148668
912.767	0.16119705
912.938	0.16098316
913.108	0.16080964
913.279	0.16074892
913.45	0.16062996
913.62	0.16027067
913.791	0.16012961
913.962	0.15996349
914.132	0.15980286
914.303	0.15945065
914.473	0.1591809
914.644	0.15887724
914.814	0.1586814
914.985	0.15831097
915.155	0.15799975
915.326	0.1576029
915.496	0.15730722
915.666	0.15708437
915.837	0.15685497
916.007	0.15658782
916.177	0.15638526
916.348	0.15623967
916.518	0.15604578
916.688	0.15587755
916.858	0.15565504
917.029	0.15544387
917.199	0.15535948
917.369	0.15532581
917.539	0.15514128
917.709	0.1547805
917.88	0.15453997
918.05	0.15421358
918.22	0.15384968
918.39	0.15359951
918.56	0.15327929
918.73	0.1530163
918.9	0.15291706
919.07	0.15274503
919.24	0.15262692
919.41	0.15257936
919.58	0.15217953
919.75	0.15203082
919.92	0.15165086
920.09	0.1515295
920.26	0.15139791
920.429	0.15115969
920.599	0.15093343
920.769	0.15075018
920.939	0.15030347
921.109	0.150294
921.278	0.1499014
921.448	0.1496362
921.618	0.14956423
921.787	0.14929688
921.957	0.14916783
922.127	0.14894427
922.296	0.14859084
922.466	0.14836443
922.636	0.14823673
922.805	0.14794093
922.975	0.14786958
923.144	0.14759299
923.314	0.14744674
923.483	0.14731147
923.653	0.14712483
923.822	0.14678205
923.992	0.14654807
924.161	0.14625502
924.331	0.14613882
924.5	0.14599612
924.669	0.14582589
924.839	0.14565006
925.008	0.14551543
925.177	0.14524096
925.347	0.14507644
925.516	0.14486603
925.685	0.14471145
925.854	0.14455654
926.023	0.14458933
926.193	0.1445408
926.362	0.14457794
926.531	0.14442011
926.7	0.14423334
926.869	0.14408552
927.038	0.14365936
927.207	0.1433131
927.376	0.14304771
927.545	0.14269578
927.715	0.14263238
927.884	0.14249277
928.052	0.14244462
928.221	0.14254479
928.39	0.14242306
928.559	0.14231324
928.728	0.14235163
928.897	0.14237995
929.066	0.14255233
929.235	0.14244408
929.404	0.1421572
929.572	0.14220626
929.741	0.14219234
929.91	0.14209734
930.079	0.14177552
930.247	0.14134157
930.416	0.14113095
930.585	0.14117182
930.753	0.14103016
930.922	0.14072103
931.091	0.14058016
931.259	0.14038765
931.428	0.1403369
931.596	0.14016814
931.765	0.14000669
931.934	0.13978028
932.102	0.13962406
932.27	0.13934154
932.439	0.13884001
932.607	0.13879215
932.776	0.1387329
932.944	0.1384291
933.113	0.13807235
933.281	0.13774308
933.449	0.13745344
933.618	0.13734223
933.786	0.13660217
933.954	0.13620343
934.123	0.13586804
934.291	0.13577174
934.459	0.13591091
934.627	0.13589505
934.795	0.13594819
934.964	0.13636151
935.132	0.13615288
935.3	0.13634661
935.468	0.13633237
935.636	0.13619837
935.804	0.13610699
935.972	0.13609625
936.14	0.13574801
936.308	0.13575569
936.476	0.13557834
936.644	0.13547896
936.812	0.13509013
936.98	0.13479843
937.148	0.13455015
937.316	0.13440889
937.484	0.13454435
937.652	0.13414898
937.82	0.13428531
937.987	0.13407759
938.155	0.13408508
938.323	0.1343066
938.491	0.13426183
938.658	0.13463091
938.826	0.13512265
938.994	0.13459957
939.162	0.13515355
939.329	0.13527008
939.497	0.13511708
939.665	0.13508374
939.832	0.13498993
940	0.13507838
940.167	0.13581594
940.335	0.1354514
940.502	0.13530572
940.67	0.13569702
940.837	0.13615146
941.005	0.13646532
941.172	0.13625863
941.34	0.13608262
941.507	0.1373395
941.674	0.13863267
941.842	0.13868155
942.009	0.13884902
942.177	0.13709193
942.344	0.13720407
942.511	0.13712571
942.678	0.13637974
942.846	0.13589942
943.013	0.13609668
943.18	0.13633064
943.347	0.13769457
943.514	0.1375178
943.682	0.13809497
943.849	0.13787476
944.016	0.13641673
944.183	0.13617595
944.35	0.13605013
944.517	0.1359372
944.684	0.13652131
944.851	0.1334446
945.018	0.13346261
945.185	0.13411561
945.352	0.13416128
945.519	0.13374831
945.686	0.132384
945.853	0.13295384
946.02	0.13406343
946.187	0.13417059
946.353	0.13447196
946.52	0.13426668
946.687	0.13454382
946.854	0.13583924
947.021	0.13457733
947.187	0.13476142
947.354	0.13329959
947.521	0.13281843
947.687	0.13147292
947.854	0.1306407
948.021	0.12923482
948.187	0.1294912
948.354	0.12920502
948.52	0.1294993
948.687	0.13022437
948.854	0.13104116
949.02	0.13025295
949.187	0.13092856
949.353	0.13044177
949.52	0.13027124
949.686	0.13021613
949.852	0.1290969
950.019	0.129603
950.185	0.12986723
950.352	0.128547
950.518	0.12816523
950.684	0.12731596
950.851	0.12683624
951.017	0.12704361
951.183	0.12564714
951.349	0.12584877
951.516	0.12552875
951.682	0.12568914
951.848	0.12581547
952.014	0.12574594
952.18	0.12521851
952.346	0.12500964
952.512	0.12447627
952.679	0.12554563
952.845	0.12474364
953.011	0.12448394
953.177	0.12381677
953.343	0.12310538
953.509	0.12287881
953.675	0.12238442
953.841	0.12113424
954.007	0.12133484
954.172	0.12146059
954.338	0.12139874
954.504	0.12075915
954.67	0.11999143
954.836	0.11997743
955.002	0.12036175
955.167	0.11999185
955.333	0.11968629
955.499	0.11994172
955.665	0.11992209
955.83	0.12061661
955.996	0.12042272
956.162	0.11995729
956.327	0.11966472
956.493	0.11901805
956.659	0.11879137
956.824	0.11838249
956.99	0.11784014
957.155	0.11782067
957.321	0.11727472
957.486	0.11708359
957.652	0.11732081
957.817	0.11765227
957.983	0.11789636
958.148	0.11750797
958.314	0.11719591
958.479	0.11683376
958.644	0.11705223
958.81	0.11669366
958.975	0.11632336
959.14	0.11611375
959.306	0.11656555
959.471	0.11581571
959.636	0.11535412
959.801	0.11548878
959.967	0.11522223
960.132	0.11429993
960.297	0.11393066
960.462	0.11386234
960.627	0.11430309
960.792	0.11486769
960.957	0.11406057
961.123	0.11404426
961.288	0.11437759
961.453	0.1146769
961.618	0.11442267
961.783	0.11382443
961.948	0.11353529
962.113	0.11337282
962.277	0.11322989
962.442	0.11264928
962.607	0.11256452
962.772	0.1120657
962.937	0.11199594
963.102	0.11206787
963.267	0.11232855
963.431	0.11217811
963.596	0.11177032
963.761	0.11158032
963.926	0.11143662
964.09	0.11170357
964.255	0.11195072
964.42	0.11161416
964.584	0.11186817
964.749	0.11247549
964.914	0.11255109
965.078	0.11229564
965.243	0.11201269
965.407	0.1109941
965.572	0.11070652
965.736	0.11027247
965.901	0.10999371
966.065	0.10988354
966.23	0.10975885
966.394	0.10990602
966.559	0.1103335
966.723	0.11030609
966.887	0.11013759
967.052	0.10963971
967.216	0.10935826
967.38	0.10924481
967.545	0.10904762
967.709	0.10866804
967.873	0.10898037
968.037	0.10900648
968.202	0.10982056
968.366	0.10988578
968.53	0.11015885
968.694	0.10973037
968.858	0.1097043
969.022	0.10875225
969.187	0.10844013
969.351	0.10790442
969.515	0.10742121
969.679	0.10691054
969.843	0.1067847
970.007	0.10645807
970.171	0.10696716
970.335	0.10707636
970.499	0.1068541
970.662	0.10733628
970.826	0.10728577
970.99	0.10732759
971.154	0.10770547
971.318	0.10771423
971.482	0.10722292
971.645	0.10725184
971.809	0.10679078
971.973	0.10682148
972.137	0.10666213
972.3	0.10647168
972.464	0.10609135
972.628	0.10680562
972.791	0.10680111
972.955	0.10652641
973.119	0.10634452
973.282	0.10658111
973.446	0.10646463
973.609	0.10630091
973.773	0.10590632
973.936	0.10548778
974.1	0.10530559
974.263	0.10538168
974.427	0.10530468
974.59	0.10509464
974.754	0.10499598
974.917	0.10476354
975.08	0.10513947
975.244	0.10525163
975.407	0.10501002
975.57	0.10478443
975.734	0.10455324
975.897	0.10475548
976.06	0.10486051
976.223	0.10472298
976.387	0.10466342
976.55	0.10431796
976.713	0.10368594
976.876	0.1038046
977.039	0.10358747
977.202	0.10328049
977.365	0.10323905
977.528	0.10340086
977.692	0.10392996
977.855	0.10410076
978.018	0.10378924
978.181	0.10376084
978.344	0.10378636
978.506	0.10313718
978.669	0.10264772
978.832	0.10203249
978.995	0.10195013
979.158	0.10251969
979.321	0.10218994
979.484	0.10224456
979.646	0.10217086
979.809	0.10224224
979.972	0.10185971
980.135	0.1023968
980.297	0.10167247
980.46	0.10145569
980.623	0.10111578
980.786	0.10133048
980.948	0.10159953
981.111	0.101769
981.273	0.10159212
981.436	0.10180701
981.599	0.10220575
981.761	0.10176971
981.924	0.10185854
982.086	0.10150208
982.249	0.10130909
982.411	0.10108908
982.573	0.10110104
982.736	0.10074382
982.898	0.10114711
983.061	0.10095751
983.223	0.100679
983.385	0.1006947
983.548	0.10061569
983.71	0.10022417
983.872	0.10022056
984.034	0.09967436
984.197	0.09931238
984.359	0.09952329
984.521	0.09993691
984.683	0.09996035
984.845	0.10031077
985.008	0.09956275
985.17	0.10006018
985.332	0.10047258
985.494	0.09998197
985.656	0.09966397
985.818	0.09926839
985.98	0.09939025
986.142	0.09967025
986.304	0.09911032
986.466	0.098896
986.628	0.0990074
986.79	0.09902305
986.952	0.09888644
987.113	0.09860052
987.275	0.09823926
987.437	0.0985528
987.599	0.09834303
987.761	0.098413
987.922	0.09816982
988.084	0.09818362
988.246	0.09776042
988.408	0.09846694
988.569	0.09839646
988.731	0.09871819
988.893	0.09851925
989.054	0.09937828
989.216	0.09945602
989.377	0.09899536
989.539	0.09874977
989.701	0.09894791
989.862	0.09814492
990.024	0.09739321
990.185	0.09617225
990.347	0.09620697
990.508	0.09687091
990.669	0.09692534
990.831	0.0967846
990.992	0.09741886
991.154	0.09793991
991.315	0.09924307
991.476	0.09932173
991.638	0.09896861
991.799	0.09919832
991.96	0.09889751
992.121	0.09868771
992.283	0.09850153
992.444	0.0980727
992.605	0.09757732
992.766	0.09734151
992.927	0.09664654
993.088	0.09652302
993.249	0.09639199
993.41	0.09629458
993.572	0.09601432
993.733	0.09551505
993.894	0.09541865
994.055	0.09501997
994.216	0.09518613
994.376	0.09432698
994.537	0.09490237
994.698	0.09487185
994.859	0.09524596
995.02	0.09540108
995.181	0.09572041
995.342	0.09565075
995.503	0.09534585
995.663	0.09464158
995.824	0.09373579
995.985	0.09467929
996.146	0.09447327
996.306	0.09437217
996.467	0.09419151
996.628	0.09544279
996.788	0.0955463
996.949	0.09679264
997.11	0.09604046
997.27	0.09573709
997.431	0.09533806
997.591	0.09529014
997.752	0.09355283
997.912	0.0942197
998.073	0.09322132
998.233	0.09344222
998.394	0.09365944
998.554	0.09485171
998.714	0.09464745
998.875	0.09532264
999.035	0.09378001
999.196	0.0937159
999.356	0.09345352
999.516	0.09381476
999.676	0.09314339
999.837	0.09373472
999.997	0.09445087
1000.157	0.09576597
1000.317	0.09529343
1000.477	0.0944905
1000.638	0.0946042
1000.798	0.09511438
1000.958	0.09481405
1001.118	0.09455331
1001.278	0.09416495
1001.438	0.09368938
1001.598	0.09438164
1001.758	0.09414681
1001.918	0.09422449
1002.078	0.09358106
1002.238	0.09356433
1002.398	0.09299086
1002.558	0.09330066
1002.718	0.09318451
1002.878	0.09270522
1003.037	0.09065041
1003.197	0.09102234
1003.357	0.0904279
1003.517	0.09185551
1003.677	0.0921
1003.836	0.09104698
1003.996	0.09106525
1004.156	0.0919645
1004.315	0.09221511
1004.475	0.09315376
1004.635	0.09277566
1004.794	0.0930515
1004.954	0.09415067
1005.114	0.09404502
1005.273	0.09427693
1005.433	0.09349439
1005.592	0.09250759
1005.752	0.09209031
1005.911	0.09214694
1006.071	0.09200473
1006.23	0.09149727
1006.389	0.09088608
1006.549	0.09115607
1006.708	0.09153138
1006.868	0.09058074
1007.027	0.09119776
1007.186	0.09136016
1007.345	0.09273395
1007.505	0.09261918
1007.664	0.09360328
1007.823	0.0934992
1007.982	0.09428683
1008.142	0.09444504
1008.301	0.09588465
1008.46	0.09524773
1008.619	0.09571814
1008.778	0.09496291
1008.937	0.09593901
1009.096	0.09526248
1009.255	0.09524412
1009.414	0.0912808
1009.573	0.09208113
1009.732	0.09289646
1009.891	0.09244779
1010.05	0.09316233
1010.209	0.09306165
1010.368	0.0920709
1010.527	0.09338745
1010.686	0.09265098
1010.845	0.09115566
1011.003	0.09167758
1011.162	0.09160463
1011.321	0.09062331
1011.48	0.09193971
1011.638	0.09213227
1011.797	0.09193139
1011.956	0.09229269
1012.115	0.09310192
1012.273	0.09074864
1012.432	0.0919792
1012.59	0.09043664
1012.749	0.09142485
1012.908	0.09134128
1013.066	0.09284671
1013.225	0.09210508
1013.383	0.0936274
1013.542	0.09388463
1013.7	0.09319079
1013.859	0.09490364
1014.017	0.09566672
1014.175	0.09313315
1014.334	0.09456601
1014.492	0.09585527
1014.65	0.09529623
1014.809	0.0963665
1014.967	0.09645112
1015.125	0.0976476
1015.284	0.10132192
1015.442	0.09891288
1015.6	0.09787701
1015.758	0.09770018
1015.916	0.09826414
1016.075	0.09661714
1016.233	0.0961883
1016.391	0.09580678
1016.549	0.09741839
1016.707	0.09649446
1016.865	0.09764908
1017.023	0.09503552
1017.181	0.09468085
1017.339	0.09270049
1017.497	0.09159629
1017.655	0.08973013
1017.813	0.09013481
1017.971	0.09009474
1018.129	0.09234439
1018.286	0.09360782
1018.444	0.09344744
1018.602	0.09272951
1018.76	0.09356742
1018.918	0.09378912
1019.075	0.09366712
1019.233	0.09330836
1019.391	0.09229284
1019.549	0.09253105
1019.706	0.09239849
1019.864	0.09225468
1020.022	0.09148964
1020.179	0.09100712
1020.337	0.08992805
1020.494	0.08765199
1020.652	0.08970023
1020.809	0.09141956
1020.967	0.09022083
1021.124	0.0888783
1021.282	0.09147634
1021.439	0.09279206
1021.597	0.09596612
1021.754	0.09639132
1021.911	0.09842956
1022.069	0.09731979
1022.226	0.09841828
1022.384	0.09497008
1022.541	0.09551009
1022.698	0.09323931
1022.855	0.09200479
1023.013	0.08977335
1023.17	0.09208461
1023.327	0.09214732
1023.484	0.09641729
1023.641	0.0976249
1023.798	0.10389288
1023.956	0.10624175
1024.113	0.10430572
1024.27	0.10340805
1024.427	0.1069213
1024.584	0.10261184
1024.741	0.09764325
1024.898	0.0919176
1025.055	0.0890899
1025.212	0.08814198
1025.369	0.08716199
1025.525	0.08400109
1025.682	0.0841211
1025.839	0.08525786
1025.996	0.08871706
1026.153	0.09337493
1026.31	0.09786951
1026.466	0.10314593
1026.623	0.11072697
1026.78	0.11586892
1026.937	0.12260902
1027.093	0.12343092
1027.25	0.12145354
1027.407	0.12052838
1027.563	0.11897846
1027.72	0.11603138
1027.876	0.11263103
1028.033	0.11191722
1028.19	0.1090504
1028.346	0.10491742
1028.503	0.10520455
1028.659	0.10285917
1028.816	0.10384086
1028.972	0.10842559
1029.128	0.10715965
1029.285	0.11244472
1029.441	0.11485164
1029.598	0.10748552
1029.754	0.11274044
1029.91	0.10867004
1030.067	0.10216814
1030.223	0.10564444
1030.379	0.10220309
1030.535	0.10434516
1030.691	0.10958735
1030.848	0.10985135
1031.004	0.11108832
1031.16	0.11904373
1031.316	0.11973241
1031.472	0.12688287
1031.628	0.12612144
1031.784	0.12600399
1031.94	0.12260847
1032.096	0.12032082
1032.252	0.12123064
1032.408	0.12305214
1032.564	0.11622047
1032.72	0.11911125
1032.876	0.11651215
1033.032	0.11615052
1033.188	0.11696811
1033.344	0.11414088
1033.5	0.11097327
1033.655	0.11094731
1033.811	0.1067307
1033.967	0.11551168
