Data from 0_1_mm_pl_20pc_Absorbance__0__15-46-15-773.txt Node

Date: Fri Feb 24 15:46:15 CET 2023
User: Ange
Spectrometer: FLMT08341
Trigger mode: 0
Integration Time (sec): 1.000000E-2
Scans to average: 400
Electric dark correction enabled: true
Nonlinearity correction enabled: false
Boxcar width: 3
XAxis mode: Wavelengths
Number of Pixels in Spectrum: 3648
>>>>>Begin Spectral Data<<<<<
345.271	-0.00457372
345.487	-0.00700158
345.704	0.00775067
345.921	0.00352384
346.137	-0.00527121
346.354	-0.0072364
346.571	-0.0333366
346.787	-0.0496635
347.004	0.06653375
347.22	0.06304071
347.437	-0.0050098
347.653	-0.03925925
347.87	-0.49862053
348.086	0.43084596
348.303	-0.09340649
348.519	0.44906503
348.736	0.40429022
348.952	0.41460618
349.169	0.43378528
349.385	0.45928467
349.601	0.45350787
349.818	0.45439467
350.034	0.44748341
350.251	0.44722734
350.467	0.44740411
350.683	0.43466203
350.9	0.43258452
351.116	0.42805055
351.332	0.41867691
351.549	0.43440597
351.765	0.44839835
351.981	0.45647678
352.197	0.47000741
352.414	0.48583142
352.63	0.4951113
352.846	0.50642273
353.062	0.49315618
353.278	0.48045027
353.495	0.4867271
353.711	0.48806436
353.927	0.4870273
354.143	0.48681014
354.359	0.48202018
354.575	0.47924803
354.792	0.49077789
355.008	0.48293849
355.224	0.47867133
355.44	0.47336253
355.656	0.46993483
355.872	0.47325906
356.088	0.49764727
356.304	0.49572457
356.52	0.49627486
356.736	0.49599636
356.952	0.49833556
357.168	0.49867314
357.384	0.50576211
357.6	0.48637691
357.816	0.49020707
358.032	0.49304295
358.248	0.50469833
358.464	0.50398471
358.679	0.50884374
358.895	0.50350414
359.111	0.50836867
359.327	0.49940907
359.543	0.50205607
359.759	0.50104153
359.974	0.49984462
360.19	0.49617817
360.406	0.49560076
360.622	0.49176091
360.838	0.48816956
361.053	0.4886897
361.269	0.49031552
361.485	0.48780832
361.701	0.48944778
361.916	0.48281924
362.132	0.48091684
362.348	0.4828481
362.563	0.48176654
362.779	0.47326007
362.995	0.47550772
363.21	0.47646908
363.426	0.47724661
363.641	0.4764493
363.857	0.47613341
364.073	0.47114272
364.288	0.46671085
364.504	0.47041896
364.719	0.46773742
364.935	0.46591999
365.15	0.46523898
365.366	0.46498664
365.581	0.46664102
365.797	0.46691699
366.012	0.45736505
366.228	0.45241456
366.443	0.45595712
366.658	0.45433895
366.874	0.44721294
367.089	0.44788982
367.305	0.44934037
367.52	0.44952777
367.735	0.44626867
367.951	0.44025507
368.166	0.43956788
368.381	0.44612113
368.597	0.44054692
368.812	0.43876203
369.027	0.43979735
369.243	0.44252005
369.458	0.44909997
369.673	0.44889076
369.888	0.44528382
370.104	0.44077442
370.319	0.43925972
370.534	0.43475991
370.749	0.43168488
370.964	0.4271064
371.179	0.4236032
371.395	0.41926828
371.61	0.42198104
371.825	0.4171138
372.04	0.41768165
372.255	0.41374735
372.47	0.40956644
372.685	0.40620913
372.9	0.40471681
373.115	0.4007919
373.33	0.3997899
373.545	0.39576665
373.76	0.39409435
373.975	0.38961337
374.19	0.3849534
374.405	0.38276801
374.62	0.38275326
374.835	0.38379079
375.05	0.3826731
375.265	0.38236237
375.48	0.3828589
375.695	0.38646121
375.91	0.38326926
376.125	0.37691568
376.339	0.37114417
376.554	0.36925705
376.769	0.36594123
376.984	0.36367095
377.199	0.36148733
377.414	0.35876569
377.628	0.36036701
377.843	0.36101783
378.058	0.35818981
378.273	0.3578474
378.487	0.35713631
378.702	0.35578164
378.917	0.35490709
379.131	0.35172207
379.346	0.34663788
379.561	0.34376247
379.775	0.34145657
379.99	0.33649117
380.205	0.33183984
380.419	0.32798377
380.634	0.32399107
380.848	0.32397729
381.063	0.3228171
381.278	0.32233095
381.492	0.31945015
381.707	0.3190786
381.921	0.31819443
382.136	0.31967124
382.35	0.31705185
382.565	0.31446272
382.779	0.31177735
382.994	0.31069883
383.208	0.30764945
383.422	0.30681745
383.637	0.30399876
383.851	0.30338627
384.066	0.30194684
384.28	0.2999876
384.494	0.2991642
384.709	0.29869384
384.923	0.29668567
385.137	0.29393695
385.352	0.2919408
385.566	0.29099223
385.78	0.28971591
385.995	0.28752221
386.209	0.28483219
386.423	0.28420021
386.637	0.28330643
386.852	0.28058218
387.066	0.27858431
387.28	0.27614367
387.494	0.27552932
387.708	0.27400434
387.923	0.27216594
388.137	0.27116959
388.351	0.27089643
388.565	0.27024943
388.779	0.26956694
388.993	0.26934802
389.207	0.26897037
389.421	0.26693887
389.635	0.26450657
389.85	0.26296141
390.064	0.26144793
390.278	0.26008367
390.492	0.2579911
390.706	0.25644923
390.92	0.25589459
391.134	0.25564599
391.348	0.25545906
391.561	0.25342403
391.775	0.25162055
391.989	0.24959467
392.203	0.24834186
392.417	0.24690476
392.631	0.24633648
392.845	0.24391496
393.059	0.24328198
393.273	0.24191508
393.486	0.24073505
393.7	0.23899798
393.914	0.2379942
394.128	0.2359789
394.342	0.23489858
394.555	0.23377819
394.769	0.23275224
394.983	0.23170042
395.197	0.23125488
395.41	0.23043622
395.624	0.22969679
395.838	0.22828639
396.051	0.22800959
396.265	0.22677995
396.479	0.22617665
396.692	0.22500848
396.906	0.22345133
397.12	0.22188597
397.333	0.22137031
397.547	0.21948026
397.76	0.21928215
397.974	0.21817185
398.187	0.21697531
398.401	0.21653456
398.614	0.21589357
398.828	0.21498699
399.041	0.21396163
399.255	0.21227085
399.468	0.21112894
399.682	0.21046889
399.895	0.20962505
400.109	0.20863895
400.322	0.20775822
400.536	0.20647627
400.749	0.20661155
400.962	0.20615345
401.176	0.20503196
401.389	0.20385616
401.602	0.20256261
401.816	0.20211926
402.029	0.20194657
402.242	0.20072708
402.456	0.19955962
402.669	0.19876574
402.882	0.19738014
403.095	0.19740131
403.309	0.19627949
403.522	0.19579684
403.735	0.1949948
403.948	0.19447914
404.161	0.19449
404.375	0.19428839
404.588	0.19323126
404.801	0.19301725
405.014	0.19203343
405.227	0.19194334
405.44	0.19194854
405.653	0.19156992
405.866	0.19062086
406.079	0.1898224
406.293	0.18851845
406.506	0.18786657
406.719	0.18656739
406.932	0.18539251
407.145	0.18408333
407.358	0.1840432
407.571	0.18348247
407.784	0.18309189
407.996	0.1825147
408.209	0.18197211
408.422	0.18102761
408.635	0.18058726
408.848	0.17978926
409.061	0.17907427
409.274	0.17841657
409.487	0.17777674
409.7	0.17726567
409.912	0.1773843
410.125	0.17676
410.338	0.17645459
410.551	0.17597589
410.764	0.17530374
410.976	0.17481904
411.189	0.17465318
411.402	0.17372305
411.615	0.17345216
411.827	0.17275459
412.04	0.17221518
412.253	0.1720466
412.465	0.17150249
412.678	0.17065434
412.891	0.17049839
413.103	0.16965868
413.316	0.1693503
413.529	0.16926417
413.741	0.16887993
413.954	0.16878035
414.166	0.16841486
414.379	0.16796882
414.591	0.16787792
414.804	0.16735119
415.016	0.16696116
415.229	0.16660798
415.441	0.16624007
415.654	0.16635314
415.866	0.16605917
416.079	0.16590062
416.291	0.16557715
416.504	0.16541899
416.716	0.16509194
416.928	0.164723
417.141	0.16388322
417.353	0.16371439
417.566	0.16301654
417.778	0.16287954
417.99	0.16235671
418.203	0.16185585
418.415	0.16151948
418.627	0.16146327
418.839	0.16104573
419.052	0.1609148
419.264	0.16050227
419.476	0.160275
419.688	0.1600295
419.901	0.15990806
420.113	0.15963793
420.325	0.15935458
420.537	0.15913994
420.749	0.15912768
420.961	0.15905827
421.174	0.15878766
421.386	0.15827852
421.598	0.15794393
421.81	0.15752654
422.022	0.15716744
422.234	0.15666656
422.446	0.15612635
422.658	0.15586952
422.87	0.15579189
423.082	0.15558197
423.294	0.15546264
423.506	0.1553899
423.718	0.15523956
423.93	0.15503061
424.142	0.15470121
424.354	0.15433975
424.566	0.15409749
424.778	0.15374549
424.99	0.15335465
425.202	0.1528689
425.414	0.15280208
425.625	0.15270786
425.837	0.15231265
426.049	0.15223931
426.261	0.15213795
426.473	0.15169517
426.684	0.15167074
426.896	0.15139616
427.108	0.15114059
427.32	0.15111873
427.531	0.15074812
427.743	0.15068714
427.955	0.15099278
428.167	0.15086366
428.378	0.15070565
428.59	0.15071086
428.802	0.15038018
429.013	0.15017213
429.225	0.14991345
429.436	0.14967104
429.648	0.14962311
429.86	0.14964772
430.071	0.14962193
430.283	0.1500797
430.494	0.15010122
430.706	0.15009052
430.917	0.14990997
431.129	0.14992798
431.34	0.14978429
431.552	0.14960645
431.763	0.14910878
431.975	0.14909154
432.186	0.1486715
432.398	0.14862839
432.609	0.14824605
432.821	0.14816736
433.032	0.14786254
433.243	0.14779985
433.455	0.1475506
433.666	0.14776665
433.877	0.14780714
434.089	0.14759539
434.3	0.14739238
434.511	0.14730591
434.723	0.1472645
434.934	0.14712699
435.145	0.14683025
435.356	0.14641467
435.568	0.14633973
435.779	0.14618264
435.99	0.14599492
436.201	0.14571698
436.412	0.14553439
436.624	0.1455061
436.835	0.14572658
437.046	0.1457754
437.257	0.14564094
437.468	0.14596872
437.679	0.14590561
437.89	0.14598526
438.101	0.14587188
438.312	0.14573411
438.523	0.14570991
438.734	0.14570044
438.945	0.14546945
439.156	0.14544067
439.367	0.14538344
439.578	0.14526681
439.789	0.14495288
440	0.14497133
440.211	0.14481603
440.422	0.14481197
440.633	0.14481997
440.844	0.14464614
441.055	0.14446565
441.266	0.14443989
441.477	0.14416012
441.687	0.1439744
441.898	0.14382719
442.109	0.14364714
442.32	0.14358676
442.531	0.1436104
442.741	0.1435225
442.952	0.14349676
443.163	0.14367705
443.374	0.14347151
443.584	0.14332025
443.795	0.14328576
444.006	0.14331576
444.216	0.1432794
444.427	0.14318493
444.638	0.14296695
444.848	0.14286541
445.059	0.14284056
445.27	0.14274464
445.48	0.14257296
445.691	0.14234867
445.901	0.14218575
446.112	0.14221499
446.323	0.1420188
446.533	0.141994
446.744	0.14186435
446.954	0.14174289
447.165	0.14181826
447.375	0.14187697
447.586	0.14177029
447.796	0.14195589
448.006	0.14197689
448.217	0.14205083
448.427	0.14195312
448.638	0.14183833
448.848	0.14162822
449.058	0.14155281
449.269	0.141564
449.479	0.14141782
449.689	0.14137801
449.9	0.14155305
450.11	0.14160626
450.32	0.14170856
450.531	0.14154427
450.741	0.14137495
450.951	0.14137953
451.161	0.14127633
451.372	0.14131136
451.582	0.14140831
451.792	0.14142148
452.002	0.14166677
452.212	0.1416403
452.422	0.14156583
452.633	0.14156755
452.843	0.1416423
453.053	0.1413623
453.263	0.14126921
453.473	0.14105307
453.683	0.14120171
453.893	0.1412635
454.103	0.14132412
454.313	0.14128576
454.523	0.14145799
454.733	0.1415969
454.943	0.14181961
455.153	0.14180311
455.363	0.1418688
455.573	0.14178125
455.783	0.14185583
455.993	0.14177665
456.203	0.1419171
456.413	0.14193418
456.623	0.14184171
456.833	0.14203323
457.042	0.14216481
457.252	0.14205693
457.462	0.14221881
457.672	0.14216589
457.882	0.14209202
458.091	0.14219086
458.301	0.14197225
458.511	0.14208175
458.721	0.14221374
458.931	0.14203039
459.14	0.14205516
459.35	0.14217073
459.56	0.14242992
459.769	0.14275631
459.979	0.14267681
460.189	0.14266766
460.398	0.14296281
460.608	0.14298572
460.817	0.14304316
461.027	0.14288291
461.237	0.142797
461.446	0.14298963
461.656	0.14315991
461.865	0.14329239
462.075	0.14341323
462.284	0.14354557
462.494	0.14355393
462.703	0.14352148
462.913	0.14351583
463.122	0.14349626
463.332	0.14356212
463.541	0.14369562
463.751	0.14369633
463.96	0.14389373
464.169	0.14410726
464.379	0.14431577
464.588	0.14449492
464.797	0.14454048
465.007	0.14464003
465.216	0.14472376
465.425	0.14481708
465.635	0.14487839
465.844	0.14490844
466.053	0.14499342
466.263	0.14510791
466.472	0.14511864
466.681	0.14523824
466.89	0.14530172
467.099	0.14545295
467.309	0.14562959
467.518	0.14581507
467.727	0.14586985
467.936	0.14595074
468.145	0.14609856
468.354	0.14623658
468.563	0.14628022
468.772	0.14632995
468.982	0.14622289
469.191	0.14641177
469.4	0.14650445
469.609	0.14664192
469.818	0.1469522
470.027	0.14701485
470.236	0.14706905
470.445	0.14720784
470.654	0.14718706
470.863	0.1471078
471.072	0.14717752
471.28	0.14711715
471.489	0.14724074
471.698	0.14732023
471.907	0.14734558
472.116	0.1475966
472.325	0.14784598
472.534	0.14804892
472.743	0.1481458
472.951	0.14841615
473.16	0.14862242
473.369	0.1488389
473.578	0.14886318
473.786	0.14913435
473.995	0.14908375
474.204	0.14927058
474.413	0.14934622
474.621	0.14950728
474.83	0.14973222
475.039	0.14992009
475.247	0.15006601
475.456	0.15033113
475.665	0.15046966
475.873	0.15064042
476.082	0.15075541
476.291	0.15090407
476.499	0.15115854
476.708	0.1512139
476.916	0.15140308
477.125	0.15166485
477.333	0.15185389
477.542	0.15201254
477.75	0.15217256
477.959	0.15236067
478.167	0.1526198
478.376	0.15278743
478.584	0.15289309
478.793	0.15305716
479.001	0.15326034
479.209	0.15341918
479.418	0.15354398
479.626	0.153739
479.834	0.15386618
480.043	0.15410823
480.251	0.15428385
480.459	0.15452012
480.668	0.15475645
480.876	0.15498451
481.084	0.15516447
481.293	0.15538901
481.501	0.15550805
481.709	0.1558305
481.917	0.15601653
482.125	0.15628253
482.334	0.15650896
482.542	0.15671701
482.75	0.15695111
482.958	0.1572669
483.166	0.15740819
483.374	0.15759357
483.583	0.15779755
483.791	0.15798902
483.999	0.15818707
484.207	0.15845313
484.415	0.15862352
484.623	0.15879289
484.831	0.15902771
485.039	0.1592632
485.247	0.15949867
485.455	0.15979517
485.663	0.1600056
485.871	0.16018491
486.079	0.16042382
486.287	0.16069519
486.495	0.1608025
486.702	0.16103051
486.91	0.1612383
487.118	0.16150627
487.326	0.16181369
487.534	0.16207213
487.742	0.16237596
487.95	0.16271584
488.157	0.16301619
488.365	0.16331329
488.573	0.1635301
488.781	0.16379407
488.988	0.16407578
489.196	0.16431934
489.404	0.16454438
489.612	0.1647289
489.819	0.16501437
490.027	0.16535619
490.235	0.16560825
490.442	0.16592211
490.65	0.16615331
490.857	0.16652661
491.065	0.1668223
491.273	0.1671021
491.48	0.16738907
491.688	0.16771093
491.895	0.16798975
492.103	0.16827346
492.31	0.16850146
492.518	0.16877108
492.725	0.16904424
492.933	0.16929683
493.14	0.16949208
493.348	0.16973995
493.555	0.16999937
493.763	0.17031633
493.97	0.17062929
494.177	0.17090349
494.385	0.17114679
494.592	0.17147919
494.8	0.17176567
495.007	0.17208449
495.214	0.17229914
495.422	0.17259486
495.629	0.17287721
495.836	0.17323456
496.043	0.17357741
496.251	0.17394308
496.458	0.17428499
496.665	0.1746334
496.872	0.17500576
497.08	0.17531901
497.287	0.1755746
497.494	0.17590914
497.701	0.17624981
497.908	0.17655936
498.115	0.1769408
498.322	0.17719529
498.53	0.17755297
498.737	0.17791828
498.944	0.17821196
499.151	0.178509
499.358	0.17884951
499.565	0.1791291
499.772	0.17950801
499.979	0.17981626
500.186	0.18022352
500.393	0.18058269
500.6	0.18087393
500.807	0.18121793
501.014	0.18157633
501.221	0.18196969
501.427	0.18230357
501.634	0.18261172
501.841	0.18295247
502.048	0.18338506
502.255	0.18367311
502.462	0.18407067
502.669	0.18438177
502.875	0.18477277
503.082	0.18508147
503.289	0.18545629
503.496	0.18581573
503.702	0.18622149
503.909	0.18658859
504.116	0.18696275
504.323	0.18736522
504.529	0.18781107
504.736	0.18820113
504.943	0.18854358
505.149	0.18900681
505.356	0.18938835
505.563	0.18976678
505.769	0.19011792
505.976	0.19050588
506.182	0.19094566
506.389	0.19131432
506.595	0.19170856
506.802	0.19207465
507.008	0.19243716
507.215	0.19286168
507.421	0.19320475
507.628	0.19348307
507.834	0.19390801
508.041	0.19422996
508.247	0.19460664
508.454	0.19500552
508.66	0.1953634
508.866	0.19577069
509.073	0.19616052
509.279	0.19655322
509.486	0.19701814
509.692	0.19741674
509.898	0.1978635
510.105	0.19832381
510.311	0.19868249
510.517	0.19913178
510.723	0.1994731
510.93	0.19978122
511.136	0.20019283
511.342	0.20062042
511.548	0.2009616
511.754	0.20146928
511.961	0.20182831
512.167	0.20225284
512.373	0.20269372
512.579	0.20305955
512.785	0.20344296
512.991	0.2038678
513.197	0.20416156
513.404	0.20465461
513.61	0.2051552
513.816	0.20562324
514.022	0.20609018
514.228	0.2064651
514.434	0.20687537
514.64	0.20736255
514.846	0.20782373
515.052	0.20820803
515.258	0.20857476
515.464	0.20903431
515.669	0.20951642
515.875	0.20997259
516.081	0.21038312
516.287	0.21077242
516.493	0.21124712
516.699	0.21163846
516.905	0.2119973
517.111	0.21237962
517.316	0.21282358
517.522	0.21329863
517.728	0.2137493
517.934	0.21418016
518.139	0.21460842
518.345	0.21508414
518.551	0.21559535
518.757	0.21602733
518.962	0.21647227
519.168	0.21688247
519.374	0.21732568
519.579	0.21780917
519.785	0.21823948
519.991	0.2187128
520.196	0.21917978
520.402	0.21961266
520.607	0.22012669
520.813	0.22058874
521.018	0.22104429
521.224	0.22148175
521.429	0.22194537
521.635	0.22240524
521.84	0.22288258
522.046	0.22331859
522.251	0.22377284
522.457	0.22421603
522.662	0.22471289
522.868	0.22513782
523.073	0.22554149
523.279	0.22599362
523.484	0.22648025
523.689	0.22692169
523.895	0.22745367
524.1	0.22794371
524.305	0.22840938
524.511	0.2289048
524.716	0.22940993
524.921	0.2298473
525.126	0.23033549
525.332	0.23080304
525.537	0.2312704
525.742	0.23176739
525.947	0.23226607
526.153	0.23269024
526.358	0.23320803
526.563	0.2335854
526.768	0.2340797
526.973	0.23454453
527.178	0.23503531
527.383	0.2354932
527.588	0.2359779
527.794	0.23641305
527.999	0.23695354
528.204	0.23745031
528.409	0.23794363
528.614	0.23838354
528.819	0.23888907
529.024	0.23932657
529.229	0.23983104
529.434	0.24032689
529.639	0.24077113
529.843	0.24124949
530.048	0.24173023
530.253	0.24216423
530.458	0.24269568
530.663	0.24314555
530.868	0.24369821
531.073	0.24417074
531.278	0.24464042
531.482	0.24515077
531.687	0.24565025
531.892	0.24613803
532.097	0.24658965
532.302	0.24705987
532.506	0.24758866
532.711	0.24801981
532.916	0.24845875
533.12	0.24896983
533.325	0.24944518
533.53	0.24996305
533.734	0.25042013
533.939	0.25089985
534.144	0.25142908
534.348	0.25190304
534.553	0.25237878
534.757	0.25289942
534.962	0.25336984
535.167	0.25380352
535.371	0.25427332
535.576	0.25476402
535.78	0.25531078
535.985	0.25580327
536.189	0.25622983
536.394	0.25677771
536.598	0.25730056
536.803	0.25776925
537.007	0.2582804
537.211	0.25874392
537.416	0.25922958
537.62	0.25974104
537.825	0.26024215
538.029	0.2608052
538.233	0.26125472
538.438	0.26168934
538.642	0.26215824
538.846	0.26265288
539.05	0.26313998
539.255	0.26351897
539.459	0.26397056
539.663	0.26447195
539.867	0.26498573
540.072	0.26549062
540.276	0.26597151
540.48	0.26651127
540.684	0.26707592
540.888	0.26757619
541.092	0.26805953
541.297	0.26853782
541.501	0.26895745
541.705	0.26942532
541.909	0.26980983
542.113	0.27021021
542.317	0.27066999
542.521	0.27115029
542.725	0.27161747
542.929	0.27211766
543.133	0.27257954
543.337	0.27308847
543.541	0.27356287
543.745	0.27397573
543.949	0.27442818
544.153	0.27492085
544.357	0.27540296
544.56	0.2759306
544.764	0.27638531
544.968	0.27684936
545.172	0.27727945
545.376	0.27775009
545.58	0.27817511
545.783	0.27862089
545.987	0.27902961
546.191	0.27946327
546.395	0.27997259
546.598	0.28049598
546.802	0.28097645
547.006	0.28143287
547.21	0.28180722
547.413	0.28227357
547.617	0.28277209
547.821	0.28318306
548.024	0.28366829
548.228	0.28413514
548.431	0.28462499
548.635	0.28515002
548.839	0.28558996
549.042	0.28604569
549.246	0.28646923
549.449	0.28683086
549.653	0.2872732
549.856	0.28764806
550.06	0.28807387
550.263	0.28853966
550.467	0.28895596
550.67	0.28942593
550.874	0.28981618
551.077	0.29022869
551.28	0.29073027
551.484	0.29115591
551.687	0.2915071
551.891	0.29198836
552.094	0.29234047
552.297	0.29286281
552.501	0.29332261
552.704	0.29365194
552.907	0.29402861
553.11	0.29445981
553.314	0.29481455
553.517	0.29524078
553.72	0.29560672
553.923	0.29598198
554.127	0.29639512
554.33	0.2967931
554.533	0.29716001
554.736	0.2975327
554.939	0.29799135
555.142	0.29846251
555.345	0.29882317
555.549	0.29926246
555.752	0.29966023
555.955	0.30009184
556.158	0.30056987
556.361	0.30094678
556.564	0.30126836
556.767	0.30164057
556.97	0.30208048
557.173	0.3024819
557.376	0.30291134
557.579	0.30320122
557.782	0.30360107
557.984	0.30397915
558.187	0.30442983
558.39	0.30477379
558.593	0.30522461
558.796	0.30553774
558.999	0.30589641
559.202	0.30625613
559.404	0.30654698
559.607	0.30690853
559.81	0.30720818
560.013	0.30748969
560.216	0.3078408
560.418	0.30820037
560.621	0.3085406
560.824	0.30893296
561.026	0.30930823
561.229	0.30962845
561.432	0.31002595
561.634	0.31038163
561.837	0.31076401
562.04	0.31114911
562.242	0.31154573
562.445	0.31180149
562.647	0.31222252
562.85	0.31244312
563.053	0.3127423
563.255	0.31303607
563.458	0.31336447
563.66	0.31365335
563.863	0.31401324
564.065	0.31426897
564.268	0.3146642
564.47	0.31504445
564.672	0.31533581
564.875	0.3155539
565.077	0.31580256
565.28	0.31609233
565.482	0.31642637
565.684	0.31668597
565.887	0.31687823
566.089	0.31712367
566.291	0.31743578
566.494	0.3177662
566.696	0.31802018
566.898	0.31828647
567.1	0.31854341
567.303	0.31887618
567.505	0.31918647
567.707	0.31938999
567.909	0.31962415
568.111	0.31986675
568.314	0.32013399
568.516	0.32049412
568.718	0.32078494
568.92	0.32107255
569.122	0.3213777
569.324	0.32166624
569.526	0.32186288
569.728	0.32209476
569.93	0.3222375
570.132	0.32238038
570.334	0.32264018
570.536	0.32284276
570.738	0.32298688
570.94	0.32321111
571.142	0.32348311
571.344	0.32368986
571.546	0.32392355
571.748	0.32407474
571.95	0.32424902
572.152	0.32452765
572.354	0.32481354
572.555	0.32500875
572.757	0.32529833
572.959	0.32551219
573.161	0.32573837
573.363	0.32592439
573.564	0.32623481
573.766	0.32636879
573.968	0.32661247
574.17	0.32678727
574.371	0.32698278
574.573	0.32715143
574.775	0.32739588
574.976	0.32740372
575.178	0.32764094
575.38	0.32766525
575.581	0.32775942
575.783	0.32793138
575.985	0.32815148
576.186	0.32833846
576.388	0.32856326
576.589	0.32865614
576.791	0.32890958
576.992	0.32913042
577.194	0.32923322
577.395	0.32933644
577.597	0.32948697
577.798	0.32966872
578	0.32989686
578.201	0.3301509
578.402	0.33031292
578.604	0.33048793
578.805	0.33067101
579.007	0.33084275
579.208	0.33100908
579.409	0.33113517
579.611	0.33124529
579.812	0.33135916
580.013	0.3315619
580.215	0.33158146
580.416	0.33168735
580.617	0.33178511
580.818	0.33191819
581.019	0.33193686
581.221	0.3320865
581.422	0.33219894
581.623	0.33245274
581.824	0.33247551
582.025	0.33254996
582.226	0.33260984
582.428	0.33278567
582.629	0.33283274
582.83	0.33292675
583.031	0.33297465
583.232	0.33318039
583.433	0.33331783
583.634	0.33343059
583.835	0.33351703
584.036	0.33365162
584.237	0.33373618
584.438	0.33387657
584.639	0.33397489
584.84	0.33412875
585.041	0.33422274
585.242	0.33428498
585.442	0.33437983
585.643	0.33453116
585.844	0.33461184
586.045	0.33467781
586.246	0.33464971
586.447	0.33471603
586.647	0.33475504
586.848	0.33479947
587.049	0.33480688
587.25	0.33482976
587.45	0.33486107
587.651	0.33501613
587.852	0.33516223
588.053	0.33535625
588.253	0.33541345
588.454	0.33548557
588.655	0.33553662
588.855	0.33562572
589.056	0.33566377
589.256	0.33572562
589.457	0.33569779
589.658	0.33582128
589.858	0.33584427
590.059	0.33596052
590.259	0.33607053
590.46	0.33615109
590.66	0.33618558
590.861	0.33633929
591.061	0.33640799
591.262	0.33664207
591.462	0.336786
591.662	0.33688578
591.863	0.33694912
592.063	0.33704318
592.264	0.33711502
592.464	0.33722153
592.664	0.33721926
592.865	0.33734172
593.065	0.33723848
593.265	0.33735142
593.465	0.33735812
593.666	0.33741227
593.866	0.33740119
594.066	0.33751831
594.266	0.33743753
594.467	0.33757309
594.667	0.33753167
594.867	0.33764903
595.067	0.33766922
595.267	0.33769817
595.467	0.33765273
595.668	0.33772964
595.868	0.33784969
596.068	0.33794489
596.268	0.33793878
596.468	0.33800539
596.668	0.33811793
596.868	0.33823031
597.068	0.33830561
597.268	0.3383746
597.468	0.33835813
597.668	0.33844303
597.868	0.33849705
598.068	0.33857027
598.268	0.3386103
598.467	0.3387662
598.667	0.33871506
598.867	0.33884966
599.067	0.33892464
599.267	0.33899783
599.467	0.33902688
599.667	0.33902831
599.866	0.33902215
600.066	0.33915654
600.266	0.33918397
600.466	0.3392755
600.665	0.33930213
600.865	0.33934259
601.065	0.33947192
601.264	0.33944619
601.464	0.33945557
601.664	0.33964472
601.863	0.33967312
602.063	0.33981535
602.263	0.33977088
602.462	0.33983173
602.662	0.33993253
602.861	0.34007444
603.061	0.34003206
603.26	0.34012451
603.46	0.34009742
603.659	0.34035753
603.859	0.34035024
604.058	0.34038062
604.258	0.34049952
604.457	0.34068839
604.657	0.34060696
604.856	0.34062459
605.056	0.34065911
605.255	0.3407051
605.454	0.34086025
605.654	0.34077939
605.853	0.34075794
606.052	0.34089937
606.252	0.34108906
606.451	0.34116536
606.65	0.34137645
606.849	0.34132775
607.049	0.34148608
607.248	0.34160864
607.447	0.34174414
607.646	0.34181026
607.845	0.34189699
608.045	0.34182742
608.244	0.34212423
608.443	0.34220867
608.642	0.34232139
608.841	0.34238815
609.04	0.3424233
609.239	0.34254151
609.438	0.34263634
609.637	0.34272167
609.836	0.34284899
610.035	0.34291289
610.234	0.34311826
610.433	0.34324399
610.632	0.34330634
610.831	0.34362068
611.03	0.34366286
611.229	0.3438555
611.428	0.34400794
611.627	0.34408742
611.826	0.34432587
612.025	0.34461616
612.224	0.34466704
612.422	0.34480585
612.621	0.3449467
612.82	0.34507123
613.019	0.34520961
613.218	0.34534411
613.416	0.34532999
613.615	0.34556013
613.814	0.34569603
614.012	0.34579688
614.211	0.34583778
614.41	0.34606791
614.608	0.3461832
614.807	0.34641956
615.006	0.34658239
615.204	0.34677074
615.403	0.34698707
615.602	0.34732442
615.8	0.34750456
615.999	0.3476258
616.197	0.34774398
616.396	0.34795879
616.594	0.34805762
616.793	0.3482226
616.991	0.34829025
617.19	0.34834387
617.388	0.34860471
617.586	0.34879541
617.785	0.34884006
617.983	0.34907147
618.182	0.34915761
618.38	0.34934035
618.578	0.34951613
618.777	0.34965198
618.975	0.34988648
619.173	0.35017566
619.372	0.35036775
619.57	0.35057473
619.768	0.35084349
619.966	0.35109008
620.165	0.35125431
620.363	0.35147855
620.561	0.35151972
620.759	0.35175041
620.957	0.35201008
621.155	0.35219917
621.354	0.35233583
621.552	0.35264007
621.75	0.35271751
621.948	0.35306912
622.146	0.35327986
622.344	0.35350811
622.542	0.35372712
622.74	0.35400464
622.938	0.35410877
623.136	0.35447098
623.334	0.35471436
623.532	0.35483085
623.73	0.35498391
623.928	0.35526852
624.126	0.35556327
624.324	0.35596379
624.522	0.35597609
624.719	0.35611188
624.917	0.35645238
625.115	0.35664882
625.313	0.35689072
625.511	0.35712641
625.708	0.35709034
625.906	0.35740469
626.104	0.35765058
626.302	0.35796115
626.499	0.35827859
626.697	0.35845792
626.895	0.35851254
627.093	0.35887477
627.29	0.35922231
627.488	0.35948963
627.686	0.35969241
627.883	0.35983936
628.081	0.35997566
628.278	0.36051536
628.476	0.36074578
628.673	0.36098195
628.871	0.36117641
629.068	0.36142572
629.266	0.36173564
629.463	0.36201853
629.661	0.36213329
629.858	0.36237783
630.056	0.36258383
630.253	0.36284987
630.451	0.36308549
630.648	0.36330547
630.845	0.36354612
631.043	0.36377074
631.24	0.36411744
631.438	0.36442617
631.635	0.36470802
631.832	0.36487965
632.029	0.36519673
632.227	0.36548618
632.424	0.36578226
632.621	0.36600096
632.818	0.36621794
633.016	0.3665028
633.213	0.36675563
633.41	0.36706885
633.607	0.36730563
633.804	0.36756962
634.001	0.36774338
634.199	0.36805488
634.396	0.36827516
634.593	0.36848576
634.79	0.36877884
634.987	0.36910479
635.184	0.36938507
635.381	0.3697916
635.578	0.37008092
635.775	0.37034453
635.972	0.3707033
636.169	0.37092875
636.366	0.37119185
636.563	0.3713903
636.76	0.37157033
636.957	0.37185158
637.153	0.37206023
637.35	0.37241331
637.547	0.37264874
637.744	0.37287674
637.941	0.37320394
638.138	0.37348411
638.334	0.37362815
638.531	0.37402689
638.728	0.37426784
638.925	0.37463329
639.121	0.37491395
639.318	0.37517726
639.515	0.37543358
639.711	0.37583314
639.908	0.37594411
640.105	0.37617127
640.301	0.37639382
640.498	0.37665263
640.695	0.37692526
640.891	0.37722952
641.088	0.37741476
641.284	0.37779597
641.481	0.37803564
641.677	0.37824388
641.874	0.37843726
642.07	0.37877978
642.267	0.37914555
642.463	0.37943575
642.66	0.37976452
642.856	0.38005315
643.053	0.38028685
643.249	0.38067905
643.445	0.3808897
643.642	0.38110617
643.838	0.38140175
644.034	0.38159851
644.231	0.38185414
644.427	0.382165
644.623	0.38243631
644.82	0.38271014
645.016	0.3829305
645.212	0.38309017
645.408	0.38338282
645.604	0.38380818
645.801	0.38410322
645.997	0.38437174
646.193	0.38457949
646.389	0.38494111
646.585	0.38528819
646.781	0.3856312
646.977	0.38581334
647.173	0.38606837
647.37	0.38627617
647.566	0.38657224
647.762	0.38679869
647.958	0.38714227
648.154	0.38727618
648.35	0.38755972
648.546	0.38778795
648.742	0.388228
648.937	0.38835769
649.133	0.38866051
649.329	0.38895566
649.525	0.38926729
649.721	0.3895107
649.917	0.38989821
650.113	0.38997245
650.309	0.39051616
650.504	0.39067898
650.7	0.390804
650.896	0.39112214
651.092	0.39138887
651.287	0.39155503
651.483	0.39196863
651.679	0.39205623
651.875	0.39239218
652.07	0.39263125
652.266	0.39289494
652.462	0.39313302
652.657	0.39340894
652.853	0.39354193
653.048	0.39380487
653.244	0.39392281
653.44	0.3942313
653.635	0.39437395
653.831	0.3946681
654.026	0.39495677
654.222	0.39524077
654.417	0.39558369
654.613	0.39595245
654.808	0.39619258
655.004	0.39655659
655.199	0.39670421
655.394	0.39690552
655.59	0.3971833
655.785	0.39731341
655.98	0.39757378
656.176	0.39777085
656.371	0.3980224
656.566	0.39834293
656.762	0.39845668
656.957	0.39867383
657.152	0.39887126
657.348	0.399042
657.543	0.39934889
657.738	0.39955225
657.933	0.39966418
658.128	0.39999755
658.324	0.40015139
658.519	0.40046481
658.714	0.40068653
658.909	0.40086159
659.104	0.40110706
659.299	0.40141093
659.494	0.4015639
659.689	0.40189179
659.884	0.40202564
660.079	0.40221516
660.274	0.40237985
660.469	0.40256545
660.664	0.40286102
660.859	0.40317282
661.054	0.40331721
661.249	0.40359016
661.444	0.40385501
661.639	0.40409125
661.834	0.4042553
662.029	0.40441899
662.224	0.40457391
662.418	0.40483537
662.613	0.40507337
662.808	0.40519782
663.003	0.40545323
663.198	0.405667
663.392	0.40580603
663.587	0.40616727
663.782	0.40625361
663.977	0.40643357
664.171	0.40670076
664.366	0.4069273
664.561	0.40714166
664.755	0.40743699
664.95	0.40748831
665.144	0.40781463
665.339	0.4081013
665.534	0.40839246
665.728	0.40861396
665.923	0.40890501
666.117	0.40909952
666.312	0.40935065
666.506	0.40962196
666.701	0.40972186
666.895	0.40983842
667.09	0.4099497
667.284	0.41014227
667.479	0.41028323
667.673	0.41041672
667.867	0.41061101
668.062	0.41078205
668.256	0.4110507
668.45	0.41133995
668.645	0.41147125
668.839	0.41172039
669.033	0.41199539
669.228	0.41205862
669.422	0.41230031
669.616	0.41241282
669.81	0.41261458
670.004	0.41277305
670.199	0.41293792
670.393	0.41309191
670.587	0.41333221
670.781	0.41355224
670.975	0.413767
671.169	0.41383837
671.363	0.41399397
671.558	0.41410157
671.752	0.41425883
671.946	0.41449061
672.14	0.41466641
672.334	0.41475521
672.528	0.41510305
672.722	0.41525298
672.916	0.41547938
673.11	0.41559865
673.304	0.41578967
673.497	0.41580026
673.691	0.41611235
673.885	0.41603439
674.079	0.41623411
674.273	0.4163428
674.467	0.41660132
674.661	0.41668101
674.854	0.41695659
675.048	0.41711256
675.242	0.41743796
675.436	0.41761025
675.629	0.41777587
675.823	0.4178458
676.017	0.41803397
676.211	0.41810103
676.404	0.41821434
676.598	0.41830337
676.792	0.4184752
676.985	0.41873779
677.179	0.41897825
677.372	0.41911654
677.566	0.41944417
677.76	0.41964013
677.953	0.41977166
678.147	0.4200072
678.34	0.42020388
678.534	0.42031617
678.727	0.42055571
678.921	0.4207313
679.114	0.42076581
679.307	0.42096
679.501	0.42105478
679.694	0.42107027
679.888	0.42119653
680.081	0.42130385
680.274	0.42127983
680.468	0.42151759
680.661	0.42172297
680.854	0.42198181
681.048	0.42219402
681.241	0.42233649
681.434	0.42243774
681.627	0.42271519
681.821	0.42285742
682.014	0.42307158
682.207	0.42310079
682.4	0.42323676
682.593	0.42345898
682.786	0.42355594
682.98	0.42364101
683.173	0.42380849
683.366	0.42388926
683.559	0.42403101
683.752	0.42418857
683.945	0.42426035
684.138	0.42456661
684.331	0.42471036
684.524	0.42493542
684.717	0.42499816
684.91	0.42518749
685.103	0.42535484
685.296	0.4255976
685.489	0.42568563
685.682	0.42579471
685.874	0.4259779
686.067	0.4261557
686.26	0.42626189
686.453	0.42631975
686.646	0.42634986
686.839	0.42648927
687.031	0.42663773
687.224	0.42656456
687.417	0.42673884
687.61	0.42681102
687.802	0.42693549
687.995	0.42713059
688.188	0.42723222
688.38	0.42739797
688.573	0.42755861
688.766	0.42766396
688.958	0.4278207
689.151	0.42788887
689.343	0.42805873
689.536	0.4281659
689.729	0.42824199
689.921	0.42843567
690.114	0.42843648
690.306	0.42859038
690.499	0.4288071
690.691	0.42895698
690.884	0.42907633
691.076	0.42930243
691.268	0.42934772
691.461	0.42943609
691.653	0.42960958
691.846	0.42977696
692.038	0.42980611
692.23	0.4298396
692.423	0.42989962
692.615	0.4300555
692.807	0.43027633
692.999	0.43035968
693.192	0.43033857
693.384	0.43052005
693.576	0.43062712
693.768	0.43078171
693.961	0.43080448
694.153	0.43097389
694.345	0.43099351
694.537	0.431229
694.729	0.43128869
694.921	0.43142531
695.113	0.43155241
695.305	0.43169757
695.498	0.43169895
695.69	0.43195235
695.882	0.43200964
696.074	0.43220588
696.266	0.43232361
696.458	0.43237908
696.65	0.43264231
696.842	0.43285935
697.033	0.4329263
697.225	0.43296643
697.417	0.43300899
697.609	0.43320017
697.801	0.43328003
697.993	0.43333635
698.185	0.43343897
698.376	0.43357916
698.568	0.4337768
698.76	0.43391601
698.952	0.43394435
699.144	0.43411203
699.335	0.43415033
699.527	0.43416044
699.719	0.43421444
699.91	0.43438812
700.102	0.43442644
700.294	0.43461264
700.485	0.43470423
700.677	0.43486107
700.869	0.4350802
701.06	0.4352693
701.252	0.43533838
701.443	0.43551769
701.635	0.43564059
701.826	0.43577987
702.018	0.43584537
702.209	0.43592059
702.401	0.43601483
702.592	0.43621456
702.784	0.43633114
702.975	0.43640841
703.166	0.43655169
703.358	0.43670241
703.549	0.43689729
703.741	0.43698683
703.932	0.43697565
704.123	0.43706001
704.315	0.43720732
704.506	0.43736692
704.697	0.43747864
704.888	0.43763614
705.08	0.43775986
705.271	0.43796814
705.462	0.43804891
705.653	0.43819385
705.844	0.43823277
706.035	0.43829455
706.227	0.4383499
706.418	0.43837414
706.609	0.43844216
706.8	0.43864589
706.991	0.43870899
707.182	0.43882861
707.373	0.43896341
707.564	0.4390981
707.755	0.43922478
707.946	0.43930135
708.137	0.43935751
708.328	0.43942873
708.519	0.43953188
708.71	0.4396854
708.901	0.43975751
709.092	0.43997795
709.283	0.44017775
709.473	0.44032988
709.664	0.44051813
709.855	0.44062919
710.046	0.44078493
710.237	0.44085365
710.427	0.44085599
710.618	0.44098766
710.809	0.44106616
711	0.44124719
711.19	0.44131266
711.381	0.44150301
711.572	0.44163114
711.762	0.44188037
711.953	0.44187637
712.144	0.44205783
712.334	0.44207669
712.525	0.44232217
712.715	0.44237783
712.906	0.44252656
713.097	0.44251196
713.287	0.44270682
713.478	0.44280362
713.668	0.44295825
713.859	0.44301588
714.049	0.44311329
714.239	0.44331991
714.43	0.44353906
714.62	0.44368698
714.811	0.44381775
715.001	0.44396811
715.191	0.4440513
715.382	0.44412524
715.572	0.44425853
715.762	0.44435718
715.953	0.4445274
716.143	0.44472954
716.333	0.44480061
716.523	0.4449985
716.714	0.4452794
716.904	0.44535999
717.094	0.44556934
717.284	0.44559926
717.474	0.44565785
717.664	0.44588677
717.855	0.44602229
718.045	0.44602806
718.235	0.44617352
718.425	0.44629139
718.615	0.44649288
718.805	0.44668938
718.995	0.4468573
719.185	0.44704906
719.375	0.44727417
719.565	0.44747762
719.755	0.44765905
719.945	0.44777218
720.135	0.44792833
720.325	0.44808996
720.515	0.44823392
720.704	0.44840775
720.894	0.44860711
721.084	0.44874376
721.274	0.44898635
721.464	0.44916626
721.654	0.44929103
721.843	0.44942154
722.033	0.44957375
722.223	0.44965576
722.413	0.44990054
722.602	0.45007106
722.792	0.45020535
722.982	0.45037838
723.171	0.45055469
723.361	0.45073316
723.55	0.45094047
723.74	0.45100189
723.93	0.4511644
724.119	0.45132998
724.309	0.45152838
724.498	0.45170844
724.688	0.45186436
724.877	0.45201489
725.067	0.45217766
725.256	0.45230999
725.446	0.45242856
725.635	0.45245196
725.825	0.45254651
726.014	0.45262854
726.203	0.45268699
726.393	0.45273561
726.582	0.45278262
726.771	0.45293301
726.961	0.45309674
727.15	0.45321117
727.339	0.4533068
727.529	0.45349285
727.718	0.45365461
727.907	0.45376101
728.096	0.45380289
728.286	0.45385248
728.475	0.45395765
728.664	0.45403556
728.853	0.4540967
729.042	0.45416719
729.231	0.45430331
729.42	0.45441694
729.609	0.45455159
729.799	0.4545819
729.988	0.45474668
730.177	0.45476462
730.366	0.45489666
730.555	0.45492563
730.744	0.45503812
730.933	0.45518621
731.122	0.45533205
731.31	0.45543175
731.499	0.45558999
731.688	0.45573761
731.877	0.45593072
732.066	0.45604919
732.255	0.45607256
732.444	0.45620219
732.632	0.45628603
732.821	0.45643344
733.01	0.45650522
733.199	0.45647206
733.388	0.45653252
733.576	0.45662305
733.765	0.45662405
733.954	0.45662693
734.142	0.45667068
734.331	0.45673533
734.52	0.45692219
734.708	0.45703586
734.897	0.45719707
735.086	0.45736755
735.274	0.45756703
735.463	0.45768583
735.651	0.45779275
735.84	0.45787214
736.028	0.45803429
736.217	0.45819876
736.405	0.45832328
736.594	0.45839098
736.782	0.45854168
736.971	0.45864699
737.159	0.4587787
737.347	0.45884919
737.536	0.45890002
737.724	0.45902182
737.912	0.45912233
738.101	0.45912902
738.289	0.45930797
738.477	0.45941452
738.666	0.45946991
738.854	0.45954154
739.042	0.45965755
739.23	0.45974308
739.418	0.45994479
739.607	0.45990468
739.795	0.4599783
739.983	0.46017318
740.171	0.46033179
740.359	0.46038899
740.547	0.4604998
740.735	0.460581
740.923	0.46080135
741.112	0.46099317
741.3	0.46104415
741.488	0.46106933
741.676	0.4612976
741.864	0.46136664
742.052	0.46149508
742.239	0.46150966
742.427	0.46155056
742.615	0.46158568
742.803	0.46176886
742.991	0.46172334
743.179	0.46190799
743.367	0.4619859
743.555	0.4621522
743.742	0.46220922
743.93	0.462415
744.118	0.46246487
744.306	0.46261604
744.494	0.46266454
744.681	0.46274026
744.869	0.46284119
745.057	0.46298091
745.244	0.46307258
745.432	0.46330043
745.62	0.46343947
745.807	0.46365284
745.995	0.46378775
746.182	0.46382587
746.37	0.46395436
746.558	0.46401908
746.745	0.46390105
746.933	0.4639829
747.12	0.46397724
747.308	0.46412192
747.495	0.46427348
747.683	0.46437164
747.87	0.46449513
748.057	0.46477516
748.245	0.46491647
748.432	0.46515585
748.62	0.46516362
748.807	0.46523256
748.994	0.46526355
749.182	0.46532341
749.369	0.46523988
749.556	0.46528961
749.743	0.46526988
749.931	0.46535153
750.118	0.46551014
750.305	0.46563534
750.492	0.46567679
750.68	0.46593821
750.867	0.4660516
751.054	0.46624765
751.241	0.46631495
751.428	0.46639341
751.615	0.46645544
751.802	0.46658673
751.989	0.4665624
752.176	0.46669218
752.363	0.46671848
752.55	0.46678039
752.737	0.46682746
752.924	0.46701561
753.111	0.46717371
753.298	0.4673354
753.485	0.46735633
753.672	0.46741734
753.859	0.46761645
754.046	0.46776474
754.233	0.46774152
754.42	0.46781035
754.606	0.46780779
754.793	0.46790312
754.98	0.46798893
755.167	0.46793637
755.353	0.4679526
755.54	0.46811793
755.727	0.46822103
755.914	0.46834943
756.1	0.46844867
756.287	0.46848479
756.474	0.46861992
756.66	0.46875488
756.847	0.46885901
757.033	0.46879136
757.22	0.46876904
757.407	0.46889014
757.593	0.46898829
757.78	0.46903799
757.966	0.46913783
758.153	0.46917157
758.339	0.46934411
758.526	0.46955509
758.712	0.46952447
758.898	0.46962339
759.085	0.46971031
759.271	0.46968015
759.458	0.46969245
759.644	0.46978827
759.83	0.46979325
760.017	0.46991357
760.203	0.46993283
760.389	0.47002459
760.576	0.47017553
760.762	0.47020802
760.948	0.4701597
761.134	0.47018649
761.32	0.47016887
761.507	0.47018552
761.693	0.47032882
761.879	0.47028829
762.065	0.47034954
762.251	0.47045245
762.437	0.47058571
762.623	0.47068229
762.809	0.47071286
762.995	0.47068438
763.181	0.47074644
763.367	0.47085871
763.553	0.47095512
763.739	0.47104192
763.925	0.47107988
764.111	0.471208
764.297	0.47133027
764.483	0.47134548
764.669	0.471329
764.855	0.47128288
765.041	0.47123034
765.227	0.47121279
765.412	0.47128438
765.598	0.47119333
765.784	0.47124167
765.97	0.47133978
766.156	0.47152323
766.341	0.47163132
766.527	0.47170445
766.713	0.4717167
766.898	0.47180269
767.084	0.47184583
767.27	0.47188555
767.455	0.47172421
767.641	0.47171803
767.827	0.47173641
768.012	0.47173734
768.198	0.47178248
768.383	0.47180402
768.569	0.47178294
768.754	0.47192518
768.94	0.47185088
769.125	0.47179361
769.311	0.47174533
769.496	0.47167665
769.682	0.47169311
769.867	0.47172513
770.052	0.4717449
770.238	0.47187571
770.423	0.4720122
770.608	0.47212482
770.794	0.47218384
770.979	0.47209747
771.164	0.47202797
771.35	0.47200447
771.535	0.47194243
771.72	0.47181229
771.905	0.47183195
772.09	0.47185198
772.276	0.4719751
772.461	0.47200508
772.646	0.47202038
772.831	0.47201206
773.016	0.47216394
773.201	0.4720614
773.386	0.47210658
773.571	0.47207673
773.756	0.47204686
773.941	0.4718902
774.126	0.47200143
774.311	0.47184516
774.496	0.47186739
774.681	0.47186818
774.866	0.47189881
775.051	0.47190397
775.236	0.47203424
775.421	0.47196954
775.606	0.47205304
775.791	0.4720109
775.976	0.47194727
776.16	0.47187885
776.345	0.47191115
776.53	0.47187893
776.715	0.47180443
776.899	0.47171889
777.084	0.47174962
777.269	0.47174206
777.454	0.47173131
777.638	0.47169923
777.823	0.47166026
778.008	0.47157633
778.192	0.47160941
778.377	0.47154787
778.561	0.47147366
778.746	0.47146745
778.931	0.47141555
779.115	0.47141612
779.3	0.47151301
779.484	0.47146837
779.669	0.4713985
779.853	0.4713185
780.037	0.47125383
780.222	0.47119853
780.406	0.47109932
780.591	0.47097504
780.775	0.47087725
780.959	0.47089199
781.144	0.47086326
781.328	0.47072359
781.512	0.47058727
781.697	0.47052739
781.881	0.47040946
782.065	0.47031397
782.249	0.47015215
782.434	0.47014266
782.618	0.47008784
782.802	0.47009824
782.986	0.47003752
783.17	0.47002833
783.354	0.47002667
783.539	0.46991668
783.723	0.46971887
783.907	0.46970526
784.091	0.46964914
784.275	0.46960958
784.459	0.46950937
784.643	0.46945167
784.827	0.46946211
785.011	0.46944689
785.195	0.46947809
785.379	0.46937756
785.563	0.46925086
785.747	0.46915737
785.93	0.46924122
786.114	0.46904516
786.298	0.46889943
786.482	0.46861268
786.666	0.46852889
786.85	0.46840328
787.033	0.46828762
787.217	0.46804009
787.401	0.46812151
787.585	0.46805211
787.768	0.46809794
787.952	0.46788361
788.136	0.46777256
788.319	0.46769375
788.503	0.4674346
788.687	0.46721978
788.87	0.46706669
789.054	0.46680113
789.237	0.46676125
789.421	0.4667173
789.605	0.46656696
789.788	0.46655062
789.972	0.46637887
790.155	0.46622665
790.338	0.46614123
790.522	0.46607226
790.705	0.46591675
790.889	0.46572767
791.072	0.46565971
791.256	0.46563264
791.439	0.46552415
791.622	0.4655084
791.806	0.46542856
791.989	0.46524552
792.172	0.46523054
792.355	0.46513466
792.539	0.46508198
792.722	0.46496309
792.905	0.4647198
793.088	0.46451219
793.271	0.46449559
793.455	0.46437981
793.638	0.4642028
793.821	0.46398118
794.004	0.46389637
794.187	0.46385892
794.37	0.46383537
794.553	0.46370766
794.736	0.46354157
794.919	0.46331536
795.102	0.46321793
795.285	0.46309562
795.468	0.46283483
795.651	0.46263786
795.834	0.46247817
796.017	0.46237215
796.2	0.46222067
796.383	0.46198167
796.566	0.46193266
796.749	0.46189081
796.931	0.46170515
797.114	0.46146302
797.297	0.4611751
797.48	0.46101798
797.663	0.46093263
797.845	0.46067454
798.028	0.46050848
798.211	0.46037995
798.393	0.46018172
798.576	0.46014497
798.759	0.45996773
798.941	0.45972551
799.124	0.45949144
799.307	0.45934107
799.489	0.45917285
799.672	0.45907857
799.854	0.45877753
800.037	0.45858685
800.219	0.45846342
800.402	0.45840027
800.584	0.45807023
800.767	0.45783548
800.949	0.45763665
801.132	0.45762108
801.314	0.45742971
801.496	0.45722997
801.679	0.45696279
801.861	0.45687266
802.043	0.45659761
802.226	0.45639448
802.408	0.45617284
802.59	0.4560958
802.772	0.4559382
802.955	0.45572633
803.137	0.45553524
803.319	0.45539754
803.501	0.4551399
803.684	0.45487313
803.866	0.45450179
804.048	0.45430483
804.23	0.45416602
804.412	0.45405399
804.594	0.45383381
804.776	0.45381015
804.958	0.45364584
805.14	0.45354645
805.322	0.45332233
805.504	0.45316378
805.686	0.45291869
805.868	0.45275213
806.05	0.45239696
806.232	0.45219386
806.414	0.45210505
806.596	0.45193013
806.778	0.45157875
806.96	0.45135061
807.141	0.45108012
807.323	0.45091801
807.505	0.45065273
807.687	0.45032119
807.869	0.45012439
808.05	0.45002218
808.232	0.44986687
808.414	0.44971884
808.595	0.44961714
808.777	0.44947571
808.959	0.44933587
809.14	0.44911648
809.322	0.4489052
809.504	0.44856987
809.685	0.44840869
809.867	0.44806706
810.048	0.44780474
810.23	0.4475136
810.411	0.44718629
810.593	0.44686988
810.774	0.44661444
810.956	0.44632416
811.137	0.44604089
811.319	0.44578221
811.5	0.44555983
811.681	0.44536168
811.863	0.4450791
812.044	0.44482743
812.225	0.44462531
812.407	0.44442612
812.588	0.44412186
812.769	0.4437873
812.951	0.44347186
813.132	0.44316988
813.313	0.44300835
813.494	0.44266539
813.675	0.44246567
813.857	0.442338
814.038	0.44221357
814.219	0.44204622
814.4	0.44189842
814.581	0.44173365
814.762	0.44147692
814.943	0.4412187
815.124	0.4408932
815.305	0.44057593
815.486	0.44036016
815.667	0.44014173
815.848	0.43968507
816.029	0.4393241
816.21	0.43896167
816.391	0.43881381
816.572	0.43859141
816.753	0.43828347
816.934	0.43799512
817.115	0.4378648
817.295	0.43774975
817.476	0.4374511
817.657	0.4371623
817.838	0.43698937
818.019	0.43673379
818.199	0.43642505
818.38	0.43606876
818.561	0.43570565
818.741	0.43555424
818.922	0.43512617
819.103	0.43472119
819.283	0.43442976
819.464	0.43417994
819.645	0.43394897
819.825	0.43368788
820.006	0.43337777
820.186	0.43320193
820.367	0.43300148
820.547	0.43258016
820.728	0.43227712
820.908	0.43199417
821.089	0.4318609
821.269	0.43159055
821.45	0.43129058
821.63	0.43093292
821.81	0.43077551
821.991	0.43054561
822.171	0.4302595
822.351	0.42993772
822.532	0.4295987
822.712	0.42920354
822.892	0.42894132
823.072	0.42864155
823.253	0.42832392
823.433	0.4280089
823.613	0.42774144
823.793	0.42747402
823.973	0.42728604
824.154	0.4269773
824.334	0.42675031
824.514	0.42646617
824.694	0.42622507
824.874	0.42574135
825.054	0.42538682
825.234	0.42510449
825.414	0.42463471
825.594	0.42427205
825.774	0.42388309
825.954	0.42354373
826.134	0.42330305
826.314	0.42300086
826.494	0.42278302
826.674	0.42246379
826.854	0.4220152
827.033	0.42164324
827.213	0.42135413
827.393	0.42100497
827.573	0.42073965
827.753	0.42027944
827.932	0.4201166
828.112	0.41996851
828.292	0.4197795
828.472	0.4193629
828.651	0.41924461
828.831	0.41891209
829.011	0.41864648
829.19	0.41824737
829.37	0.41780136
829.549	0.41738996
829.729	0.41702677
829.909	0.41659056
830.088	0.41624168
830.268	0.41571971
830.447	0.41552348
830.627	0.41530745
830.806	0.41510468
830.986	0.41478547
831.165	0.41452009
831.344	0.41424648
831.524	0.41405156
831.703	0.41363969
831.883	0.41321208
832.062	0.41289448
832.241	0.41248793
832.421	0.41212163
832.6	0.41174228
832.779	0.41141706
832.958	0.41109395
833.138	0.4107192
833.317	0.41046199
833.496	0.41039408
833.675	0.41004064
833.854	0.40986322
834.034	0.40956445
834.213	0.40926057
834.392	0.40918754
834.571	0.40868155
834.75	0.40832228
834.929	0.40786884
835.108	0.40741377
835.287	0.40715544
835.466	0.4067872
835.645	0.40627607
835.824	0.40585687
836.003	0.40543102
836.182	0.405266
836.361	0.40495931
836.54	0.40448084
836.719	0.4041716
836.897	0.40386744
837.076	0.40371252
837.255	0.40342943
837.434	0.40301329
837.613	0.40263248
837.791	0.40229635
837.97	0.40186484
838.149	0.40151632
838.328	0.40103575
838.506	0.4005199
838.685	0.40016446
838.864	0.39981057
839.042	0.39943437
839.221	0.39925771
839.4	0.39891351
839.578	0.39868001
839.757	0.39831445
839.935	0.39792265
840.114	0.39763092
840.292	0.39738192
840.471	0.39703525
840.649	0.39671218
840.828	0.39632787
841.006	0.39606936
841.185	0.39569072
841.363	0.39542555
841.541	0.39492349
841.72	0.39460804
841.898	0.39425587
842.076	0.39388838
842.255	0.39355667
842.433	0.39330403
842.611	0.3927632
842.789	0.39252469
842.968	0.39211779
843.146	0.39175869
843.324	0.39152953
843.502	0.3913116
843.68	0.39106816
843.859	0.39085337
844.037	0.39052589
844.215	0.39018133
844.393	0.38981798
844.571	0.38932055
844.749	0.38890648
844.927	0.38836933
845.105	0.38783781
845.283	0.38736792
845.461	0.38689568
845.639	0.38654925
845.817	0.38621731
845.995	0.38587738
846.173	0.38558677
846.351	0.38529304
846.529	0.385027
846.706	0.38463835
846.884	0.38430335
847.062	0.38386719
847.24	0.38341517
847.418	0.38302367
847.595	0.38274116
847.773	0.38241168
847.951	0.38218927
848.129	0.38176142
848.306	0.38155475
848.484	0.38127146
848.662	0.38102889
848.839	0.38075467
849.017	0.38039358
849.194	0.3799171
849.372	0.3796397
849.549	0.37910216
849.727	0.37874151
849.905	0.37823299
850.082	0.37770958
850.26	0.3773364
850.437	0.37695836
850.614	0.37661136
850.792	0.37639533
850.969	0.37622446
851.147	0.37599256
851.324	0.3757459
851.501	0.3754426
851.679	0.37517286
851.856	0.37469006
852.033	0.37427985
852.211	0.37369743
852.388	0.37321537
852.565	0.37290097
852.742	0.37259919
852.92	0.37230374
853.097	0.37205841
853.274	0.37178844
853.451	0.37142633
853.628	0.37113153
853.805	0.37073064
853.982	0.37023849
854.159	0.36977287
854.336	0.36946252
854.514	0.36906205
854.691	0.36875122
854.868	0.36850034
855.045	0.36805542
855.221	0.36789218
855.398	0.36751261
855.575	0.36710524
855.752	0.36679307
855.929	0.36649453
856.106	0.36598302
856.283	0.36560136
856.46	0.36530082
856.637	0.36508649
856.813	0.36470643
856.99	0.36437983
857.167	0.36407357
857.344	0.36376807
857.52	0.36348131
857.697	0.36277152
857.874	0.36229192
858.05	0.36182971
858.227	0.36131113
858.404	0.36084206
858.58	0.36054248
858.757	0.36021252
858.933	0.36001979
859.11	0.35974553
859.287	0.35937704
859.463	0.3590656
859.64	0.35869849
859.816	0.35822905
859.993	0.35776993
860.169	0.35742411
860.345	0.35700463
860.522	0.35675799
860.698	0.35645261
860.875	0.35619617
861.051	0.35599161
861.227	0.35560914
861.404	0.35522499
861.58	0.3549963
861.756	0.3546399
861.932	0.35434912
862.109	0.35380456
862.285	0.35335779
862.461	0.35308012
862.637	0.35277625
862.813	0.35230862
862.99	0.35185622
863.166	0.35134474
863.342	0.35117704
863.518	0.35068465
863.694	0.35039627
863.87	0.34986932
864.046	0.34944946
864.222	0.34919424
864.398	0.34890077
864.574	0.34831252
864.75	0.34810952
864.926	0.3476333
865.102	0.3474129
865.278	0.34703627
865.454	0.34658642
865.63	0.3461688
865.805	0.34582189
865.981	0.34542599
866.157	0.34512226
866.333	0.34459411
866.509	0.34436215
866.684	0.34414589
866.86	0.34393539
867.036	0.3436424
867.212	0.34330776
867.387	0.34302191
867.563	0.34282673
867.739	0.34249461
867.914	0.34201356
868.09	0.34150499
868.265	0.34104771
868.441	0.34068764
868.617	0.34029828
868.792	0.33997248
868.968	0.33953731
869.143	0.33924057
869.319	0.33903593
869.494	0.33869118
869.67	0.33836203
869.845	0.33798994
870.02	0.33759216
870.196	0.33721679
870.371	0.33684772
870.546	0.33645666
870.722	0.33622059
870.897	0.33579466
871.072	0.33544131
871.248	0.3350179
871.423	0.33473216
871.598	0.33442639
871.773	0.33392976
871.949	0.33357637
872.124	0.33342674
872.299	0.33309569
872.474	0.33277763
872.649	0.33237424
872.824	0.33199358
872.999	0.33174718
873.174	0.33140703
873.349	0.33080521
873.524	0.33047092
873.699	0.33018553
873.874	0.32983735
874.049	0.32947867
874.224	0.32909701
874.399	0.32865019
874.574	0.32854101
874.749	0.32808274
874.924	0.32755149
875.099	0.32714831
875.274	0.32683044
875.449	0.32656819
875.623	0.3262237
875.798	0.32564603
875.973	0.32533459
876.148	0.32486333
876.322	0.32461631
876.497	0.32422081
876.672	0.32389026
876.846	0.32356323
877.021	0.32318517
877.196	0.32262229
877.37	0.32248654
877.545	0.32227993
877.72	0.32186679
877.894	0.32148558
878.069	0.32124969
878.243	0.32084631
878.418	0.32068353
878.592	0.32032196
878.767	0.31966033
878.941	0.31947052
879.116	0.31902592
879.29	0.31861508
879.464	0.31822967
879.639	0.31783209
879.813	0.31766786
879.987	0.31746808
880.162	0.31693068
880.336	0.31668318
880.51	0.31640712
880.685	0.31634482
880.859	0.3160403
881.033	0.31552767
881.207	0.31504163
881.381	0.31486992
881.556	0.31450586
881.73	0.31398218
881.904	0.31364156
882.078	0.31334994
882.252	0.31307274
882.426	0.31279769
882.6	0.31241809
882.774	0.31207811
882.948	0.31194953
883.122	0.31146908
883.296	0.3111429
883.47	0.31092436
883.644	0.31079851
883.818	0.31033781
883.992	0.31009257
884.166	0.30973642
884.34	0.30946784
884.514	0.30925358
884.687	0.30884453
884.861	0.30820131
885.035	0.30807554
885.209	0.30770574
885.382	0.30742849
885.556	0.30706977
885.73	0.30671112
885.904	0.30642921
886.077	0.3061007
886.251	0.30580462
886.425	0.3053962
886.598	0.30511874
886.772	0.30476933
886.945	0.30420325
887.119	0.30368629
887.292	0.30349195
887.466	0.303191
887.64	0.3028001
887.813	0.30231474
887.986	0.30206916
888.16	0.30197199
888.333	0.30174116
888.507	0.30143614
888.68	0.30091273
888.854	0.30069325
889.027	0.30049027
889.2	0.30027941
889.374	0.29989616
889.547	0.29981027
889.72	0.29963814
889.893	0.29945391
890.067	0.29919265
890.24	0.29887197
890.413	0.29840644
890.586	0.29808168
890.759	0.2976177
890.933	0.29719462
891.106	0.29678966
891.279	0.29644301
891.452	0.29602357
891.625	0.29579621
891.798	0.29551111
891.971	0.29525196
892.144	0.29491425
892.317	0.29481194
892.49	0.29443948
892.663	0.29413502
892.836	0.29397311
893.009	0.2938248
893.182	0.2934246
893.355	0.2935126
893.527	0.29307527
893.7	0.29311972
893.873	0.29296088
894.046	0.2925366
894.219	0.29222738
894.391	0.29193075
894.564	0.29139532
894.737	0.29100681
894.91	0.29042067
895.082	0.29001299
895.255	0.28970209
895.428	0.28929962
895.6	0.28897182
895.773	0.28855884
895.945	0.28833052
896.118	0.28817071
896.291	0.28792796
896.463	0.28766163
896.636	0.28741522
896.808	0.28712375
896.981	0.2868877
897.153	0.28655197
897.326	0.28614969
897.498	0.28581114
897.67	0.28549702
897.843	0.28518629
898.015	0.28514361
898.187	0.28490041
898.36	0.28440265
898.532	0.2840813
898.704	0.2838937
898.877	0.28344973
899.049	0.28311289
899.221	0.28269468
899.393	0.28240083
899.566	0.28239885
899.738	0.28235103
899.91	0.28213079
900.082	0.28199564
900.254	0.28186106
900.426	0.28162265
900.598	0.28136858
900.77	0.28100488
900.942	0.28051831
901.114	0.28001229
901.286	0.27967211
901.458	0.27932625
901.63	0.27883997
901.802	0.27852544
901.974	0.27838851
902.146	0.27806171
902.318	0.27792081
902.49	0.27767198
902.662	0.27725767
902.834	0.27705137
903.005	0.27689685
903.177	0.27658058
903.349	0.27650923
903.521	0.27614016
903.693	0.27589481
903.864	0.27564582
904.036	0.27540347
904.208	0.27473605
904.379	0.27442003
904.551	0.27412581
904.723	0.27401026
904.894	0.27361052
905.066	0.27334691
905.237	0.27321094
905.409	0.27325682
905.58	0.27306976
905.752	0.27271795
905.923	0.27224346
906.095	0.27196391
906.266	0.27165235
906.438	0.2713165
906.609	0.27102138
906.78	0.27053557
906.952	0.27026276
907.123	0.26992258
907.295	0.26977275
907.466	0.26970675
907.637	0.26950759
907.808	0.2691643
907.98	0.26901985
908.151	0.26879
908.322	0.26880832
908.493	0.26856397
908.665	0.26827372
908.836	0.26785124
909.007	0.26763411
909.178	0.26735923
909.349	0.26704155
909.52	0.2668406
909.691	0.26641827
909.862	0.26609248
910.033	0.26591462
910.204	0.26569844
910.375	0.26544856
910.546	0.26514883
910.717	0.26467196
910.888	0.26461992
911.059	0.26434333
911.23	0.26410049
911.401	0.26367295
911.572	0.26337303
911.742	0.26302056
911.913	0.2628208
912.084	0.26237345
912.255	0.26214381
912.426	0.26178176
912.596	0.26158742
912.767	0.26149289
912.938	0.26138257
913.108	0.2611734
913.279	0.2610673
913.45	0.26085209
913.62	0.26067492
913.791	0.26055614
913.962	0.26029211
914.132	0.26020735
914.303	0.25986749
914.473	0.25963513
914.644	0.25932415
914.814	0.2590411
914.985	0.25864091
915.155	0.25832314
915.326	0.25789102
915.496	0.25757925
915.666	0.25732327
915.837	0.25714794
916.007	0.25675928
916.177	0.2564701
916.348	0.25635302
916.518	0.2560911
916.688	0.25599538
916.858	0.25574069
917.029	0.25533827
917.199	0.25524078
917.369	0.25514074
917.539	0.25482413
917.709	0.25456536
917.88	0.25410756
918.05	0.25366346
918.22	0.25338479
918.39	0.2530838
918.56	0.2528788
918.73	0.25275697
918.9	0.25248688
919.07	0.25222921
919.24	0.25213423
919.41	0.25220014
919.58	0.25190595
919.75	0.25161846
919.92	0.25110354
920.09	0.2509395
920.26	0.25085311
920.429	0.25065132
920.599	0.25026468
920.769	0.25011464
920.939	0.24974636
921.109	0.24958284
921.278	0.249329
921.448	0.24913063
921.618	0.24891626
921.787	0.24872368
921.957	0.24856477
922.127	0.24835939
922.296	0.24832765
922.466	0.24813889
922.636	0.24802885
922.805	0.24807472
922.975	0.24791149
923.144	0.24771981
923.314	0.2477344
923.483	0.24749149
923.653	0.24720723
923.822	0.24689711
923.992	0.24660807
924.161	0.24634445
924.331	0.24605772
924.5	0.24567601
924.669	0.24540473
924.839	0.24537746
925.008	0.24521041
925.177	0.24477927
925.347	0.24470851
925.516	0.24474274
925.685	0.24476561
925.854	0.24461624
926.023	0.24444323
926.193	0.24451584
926.362	0.244331
926.531	0.24408335
926.7	0.24364307
926.869	0.24347362
927.038	0.24299789
927.207	0.24248213
927.376	0.24188256
927.545	0.24151649
927.715	0.24114356
927.884	0.24096793
928.052	0.24078522
928.221	0.24063826
928.39	0.24059468
928.559	0.24044593
928.728	0.2405326
928.897	0.24090127
929.066	0.24086132
929.235	0.24047383
929.404	0.24025557
929.572	0.24008057
929.741	0.24010789
929.91	0.2397858
930.079	0.23910589
930.247	0.23879401
930.416	0.23872739
930.585	0.23871968
930.753	0.23850265
930.922	0.23816961
931.091	0.23812747
931.259	0.23804599
931.428	0.23819368
931.596	0.23789593
931.765	0.23770379
931.934	0.23790322
932.102	0.23747411
932.27	0.23720589
932.439	0.23673384
932.607	0.23634733
932.776	0.236435
932.944	0.23619789
933.113	0.23565698
933.281	0.23547672
933.449	0.2349328
933.618	0.23463148
933.786	0.23407436
933.954	0.23357959
934.123	0.23331486
934.291	0.23312229
934.459	0.23316016
934.627	0.23346859
934.795	0.23377304
934.964	0.23401198
935.132	0.23362977
935.3	0.23361951
935.468	0.23337996
935.636	0.23344515
935.804	0.23310028
935.972	0.23249344
936.14	0.23185225
936.308	0.23156022
936.476	0.23147916
936.644	0.23146547
936.812	0.23104692
936.98	0.23095521
937.148	0.23069604
937.316	0.23037217
937.484	0.23087013
937.652	0.22972992
937.82	0.22999888
937.987	0.22940394
938.155	0.22917145
938.323	0.22950012
938.491	0.22968022
938.658	0.23013248
938.826	0.23107076
938.994	0.23026292
939.162	0.23071486
939.329	0.23119552
939.497	0.23159314
939.665	0.23146283
939.832	0.23121628
940	0.23209475
940.167	0.23250816
940.335	0.23271942
940.502	0.23166185
940.67	0.23188271
940.837	0.23293089
941.005	0.23218683
941.172	0.23111194
941.34	0.23179296
941.507	0.23220592
941.674	0.23408103
941.842	0.23421599
942.009	0.23503611
942.177	0.23427416
942.344	0.23478899
942.511	0.23438688
942.678	0.23458779
942.846	0.23378449
943.013	0.23381194
943.18	0.23350107
943.347	0.23542692
943.514	0.23416966
943.682	0.23555754
943.849	0.23453282
944.016	0.23324767
944.183	0.23286425
944.35	0.23262411
944.517	0.232649
944.684	0.23439151
944.851	0.23020515
945.018	0.23055826
945.185	0.23149509
945.352	0.23069478
945.519	0.22975353
945.686	0.22850744
945.853	0.22944441
946.02	0.23089735
946.187	0.23118732
946.353	0.23134446
946.52	0.23127526
946.687	0.23084523
946.854	0.23132372
947.021	0.22861527
947.187	0.22952351
947.354	0.2269788
947.521	0.22536984
947.687	0.2240125
947.854	0.22351631
948.021	0.22238832
948.187	0.22295341
948.354	0.22109837
948.52	0.22141575
948.687	0.22310554
948.854	0.22426146
949.02	0.22362041
949.187	0.22379651
949.353	0.22373759
949.52	0.22284437
949.686	0.22364439
949.852	0.2231153
950.019	0.22373373
950.185	0.22478697
950.352	0.22405796
950.518	0.22328645
950.684	0.2243539
950.851	0.22371324
951.017	0.22238728
951.183	0.22033502
951.349	0.21941131
951.516	0.21807411
951.682	0.21774824
951.848	0.21702082
952.014	0.21673605
952.18	0.21698318
952.346	0.21672533
952.512	0.21657119
952.679	0.21744523
952.845	0.21759536
953.011	0.21779915
953.177	0.21760012
953.343	0.2162426
953.509	0.21671803
953.675	0.21614989
953.841	0.21551404
954.007	0.21575197
954.172	0.2157738
954.338	0.21520433
954.504	0.21433708
954.67	0.21289332
954.836	0.21310305
955.002	0.21352238
955.167	0.21291936
955.333	0.21122602
955.499	0.21119634
955.665	0.2114041
955.83	0.21202164
955.996	0.21165065
956.162	0.21021348
956.327	0.20978182
956.493	0.21015291
956.659	0.21028522
956.824	0.21004311
956.99	0.20922636
957.155	0.20893258
957.321	0.20953739
957.486	0.20889912
957.652	0.20876619
957.817	0.20894441
957.983	0.20886735
958.148	0.20860395
958.314	0.20801669
958.479	0.206706
958.644	0.2070178
958.81	0.20701018
958.975	0.20673626
959.14	0.20686686
959.306	0.20679512
959.471	0.20600012
959.636	0.20576437
959.801	0.2059372
959.967	0.20568681
960.132	0.20462986
960.297	0.20407137
960.462	0.20492794
960.627	0.20513707
960.792	0.20520786
960.957	0.20475232
961.123	0.20473175
961.288	0.20500402
961.453	0.2053674
961.618	0.20452327
961.783	0.2045787
961.948	0.20424269
962.113	0.20357871
962.277	0.20302015
962.442	0.2026134
962.607	0.20225856
962.772	0.20231992
962.937	0.2024147
963.102	0.20283223
963.267	0.20282231
963.431	0.20304155
963.596	0.20273865
963.761	0.20266999
963.926	0.20211658
964.09	0.2015552
964.255	0.20189255
964.42	0.20231546
964.584	0.20239005
964.749	0.20196221
964.914	0.20178733
965.078	0.20144508
965.243	0.20149603
965.407	0.20034068
965.572	0.19958732
965.736	0.19933879
965.901	0.20003835
966.065	0.20015991
966.23	0.20007809
966.394	0.20014323
966.559	0.20020952
966.723	0.19986565
966.887	0.19962613
967.052	0.19859892
967.216	0.19764277
967.38	0.19717805
967.545	0.19674138
967.709	0.19713254
967.873	0.19817864
968.037	0.19785563
968.202	0.19840488
968.366	0.19921236
968.53	0.19954282
968.694	0.19927012
968.858	0.19867835
969.022	0.1970332
969.187	0.19649007
969.351	0.19617095
969.515	0.19593717
969.679	0.19530043
969.843	0.19482573
970.007	0.19453286
970.171	0.1951491
970.335	0.19573176
970.499	0.19558235
970.662	0.19506706
970.826	0.19482494
970.99	0.19509166
971.154	0.19537733
971.318	0.19508444
971.482	0.19367765
971.645	0.19377655
971.809	0.19425747
971.973	0.19463972
972.137	0.19470698
972.3	0.19446834
972.464	0.19419862
972.628	0.19590064
972.791	0.19586829
972.955	0.19495876
973.119	0.19508316
973.282	0.19487988
973.446	0.19445912
973.609	0.19418132
973.773	0.19321229
973.936	0.19249297
974.1	0.19215381
974.263	0.19189709
974.427	0.19133613
974.59	0.19152217
974.754	0.19193531
974.917	0.19164969
975.08	0.19200455
975.244	0.19196754
975.407	0.19192123
975.57	0.19199258
975.734	0.19137113
975.897	0.19125897
976.06	0.19141287
976.223	0.19122124
976.387	0.19210699
976.55	0.19192717
976.713	0.19207666
976.876	0.19254678
977.039	0.19187935
977.202	0.19119663
977.365	0.19035641
977.528	0.18965631
977.692	0.18972674
977.855	0.18905154
978.018	0.18834522
978.181	0.1884483
978.344	0.18853887
978.506	0.18883703
978.669	0.18860203
978.832	0.18819659
978.995	0.18815018
979.158	0.18937598
979.321	0.18933235
979.484	0.18899835
979.646	0.18882313
979.809	0.18911831
979.972	0.18846705
980.135	0.18895025
980.297	0.18757262
980.46	0.18670022
980.623	0.18706059
980.786	0.18684776
980.948	0.1866396
981.111	0.18645095
981.273	0.18641031
981.436	0.18628858
981.599	0.1870795
981.761	0.18640804
981.924	0.18676234
982.086	0.18605544
982.249	0.18646461
982.411	0.18579227
982.573	0.18601699
982.736	0.18655523
982.898	0.18666383
983.061	0.18639971
983.223	0.18667477
983.385	0.18584395
983.548	0.18615255
983.71	0.18589328
983.872	0.18504332
984.034	0.18491002
984.197	0.18417827
984.359	0.18426239
984.521	0.18493352
984.683	0.18498716
984.845	0.18540327
985.008	0.18461481
985.17	0.18539939
985.332	0.18549276
985.494	0.18456205
985.656	0.18433405
985.818	0.18399524
985.98	0.18414331
986.142	0.18333783
986.304	0.18221671
986.466	0.18222165
986.628	0.18255804
986.79	0.18201722
986.952	0.18162868
987.113	0.18071152
987.275	0.18122981
987.437	0.18210389
987.599	0.18270726
987.761	0.18262039
987.922	0.18285862
988.084	0.18269918
988.246	0.182583
988.408	0.18310454
988.569	0.18220862
988.731	0.18238821
988.893	0.18224182
989.054	0.18361687
989.216	0.18404264
989.377	0.18335719
989.539	0.18318009
989.701	0.18268345
989.862	0.18217208
990.024	0.18115324
990.185	0.17935292
990.347	0.17951979
990.508	0.18043773
990.669	0.18067951
990.831	0.18117067
990.992	0.18167392
991.154	0.18162393
991.315	0.18317372
991.476	0.18344167
991.638	0.18317758
991.799	0.18242342
991.96	0.18198073
992.121	0.1816104
992.283	0.18240935
992.444	0.18173782
992.605	0.18052315
992.766	0.18103125
992.927	0.18095335
993.088	0.18123995
993.249	0.17981947
993.41	0.17935643
993.572	0.17873441
993.733	0.17845807
993.894	0.17728266
994.055	0.1752146
994.216	0.17514862
994.376	0.17429147
994.537	0.17494276
994.698	0.17481902
994.859	0.17505596
995.02	0.1751997
995.181	0.17589793
995.342	0.17529368
995.503	0.17574119
995.663	0.17504946
995.824	0.17378957
995.985	0.17445536
996.146	0.17467129
996.306	0.1748944
996.467	0.17534033
996.628	0.17754192
996.788	0.17752654
996.949	0.1792971
997.11	0.17821927
997.27	0.17692134
997.431	0.17704586
997.591	0.17548083
997.752	0.17226009
997.912	0.17266657
998.073	0.17214133
998.233	0.17324622
998.394	0.1732682
998.554	0.17530505
998.714	0.17608842
998.875	0.17664267
999.035	0.17549529
999.196	0.17474032
999.356	0.17392166
999.516	0.17501231
999.676	0.17436118
999.837	0.17532139
999.997	0.17618324
1000.157	0.17690459
1000.317	0.17624356
1000.477	0.17512631
1000.638	0.1739129
1000.798	0.1740927
1000.958	0.17367719
1001.118	0.17270166
1001.278	0.17231448
1001.438	0.17236286
1001.598	0.17325384
1001.758	0.17407776
1001.918	0.17379224
1002.078	0.17218896
1002.238	0.17260393
1002.398	0.17267491
1002.558	0.1720563
1002.718	0.1719996
1002.878	0.17217995
1003.037	0.16808533
1003.197	0.16900426
1003.357	0.1673035
1003.517	0.16832516
1003.677	0.1681339
1003.836	0.16755168
1003.996	0.16617337
1004.156	0.16915425
1004.315	0.16964944
1004.475	0.17157513
1004.635	0.1725628
1004.794	0.1744694
1004.954	0.17497048
1005.114	0.17510372
1005.273	0.17601875
1005.433	0.1740591
1005.592	0.17530035
1005.752	0.1728708
1005.911	0.17180817
1006.071	0.17250907
1006.23	0.17154797
1006.389	0.17043603
1006.549	0.17111143
1006.708	0.17033449
1006.868	0.16837787
1007.027	0.16862779
1007.186	0.16867204
1007.345	0.17158778
1007.505	0.17119059
1007.664	0.17238089
1007.823	0.17004303
1007.982	0.17163678
1008.142	0.17221946
1008.301	0.17152222
1008.46	0.16956272
1008.619	0.16773028
1008.778	0.16692614
1008.937	0.16910779
1009.096	0.17021619
1009.255	0.17071986
1009.414	0.16772798
1009.573	0.16913934
1009.732	0.17274443
1009.891	0.17200382
1010.05	0.1735291
1010.209	0.17164082
1010.368	0.17075719
1010.527	0.17326677
1010.686	0.17375371
1010.845	0.17047172
1011.003	0.17254993
1011.162	0.17130777
1011.321	0.16963545
1011.48	0.1717107
1011.638	0.1704229
1011.797	0.17034378
1011.956	0.17053196
1012.115	0.16817982
1012.273	0.16608774
1012.432	0.1662785
1012.59	0.16321172
1012.749	0.16319763
1012.908	0.15958552
1013.066	0.16095279
1013.225	0.16163488
1013.383	0.1646795
1013.542	0.16619538
1013.7	0.16677256
1013.859	0.17135549
1014.017	0.17416089
1014.175	0.17149123
1014.334	0.17387905
1014.492	0.17309844
1014.65	0.17407923
1014.809	0.17575383
1014.967	0.17204907
1015.125	0.17379927
1015.284	0.18217043
1015.442	0.17929889
1015.6	0.17911689
1015.758	0.17737649
1015.916	0.1738223
1016.075	0.17306086
1016.233	0.17017933
1016.391	0.16740926
1016.549	0.16865078
1016.707	0.16655709
1016.865	0.16809151
1017.023	0.16506309
1017.181	0.16490574
1017.339	0.16474034
1017.497	0.16235384
1017.655	0.16121484
1017.813	0.16249913
1017.971	0.16294472
1018.129	0.16709964
1018.286	0.16770821
1018.444	0.16705882
1018.602	0.16833023
1018.76	0.16925987
1018.918	0.1699165
1019.075	0.17141354
1019.233	0.16954637
1019.391	0.17061032
1019.549	0.17033971
1019.706	0.16960346
1019.864	0.17013403
1020.022	0.16853249
1020.179	0.166335
1020.337	0.16764845
1020.494	0.16494195
1020.652	0.1680912
1020.809	0.16818759
1020.967	0.16600569
1021.124	0.16666848
1021.282	0.1708863
1021.439	0.17110873
1021.597	0.17752986
1021.754	0.17641862
1021.911	0.17928425
1022.069	0.17834613
1022.226	0.17633641
1022.384	0.16983827
1022.541	0.17241841
1022.698	0.16609087
1022.855	0.16745002
1023.013	0.16606163
1023.17	0.16613968
1023.327	0.16775785
1023.484	0.16758415
1023.641	0.16728833
1023.798	0.17487328
1023.956	0.17768672
1024.113	0.17268889
1024.27	0.1742758
1024.427	0.177541
1024.584	0.17848681
1024.741	0.17556396
1024.898	0.16912909
1025.055	0.16351011
1025.212	0.15990697
1025.369	0.15539004
1025.525	0.15211808
1025.682	0.15461621
1025.839	0.15429147
1025.996	0.15918815
1026.153	0.1634817
1026.31	0.17334178
1026.466	0.18027864
1026.623	0.18929934
1026.78	0.18961601
1026.937	0.19708685
1027.093	0.19499672
1027.25	0.19645201
1027.407	0.18896702
1027.563	0.18918232
1027.72	0.18181162
1027.876	0.17616079
1028.033	0.1727723
1028.19	0.17140762
1028.346	0.16370352
1028.503	0.17034956
1028.659	0.1713326
1028.816	0.17269246
1028.972	0.18142742
1029.128	0.18441029
1029.285	0.18168354
1029.441	0.18262981
1029.598	0.17344523
1029.754	0.17709043
1029.91	0.17947456
1030.067	0.1695431
1030.223	0.17124493
1030.379	0.17488297
1030.535	0.18295151
1030.691	0.18938188
1030.848	0.1902871
1031.004	0.19000447
1031.16	0.19996717
1031.316	0.20252232
1031.472	0.2110006
1031.628	0.20962574
1031.784	0.20719366
1031.94	0.20535268
1032.096	0.20721654
1032.252	0.21124038
1032.408	0.21762399
1032.564	0.2138013
1032.72	0.22148271
1032.876	0.22076779
1033.032	0.21481675
1033.188	0.21299116
1033.344	0.21302086
1033.5	0.20630977
1033.655	0.20251277
1033.811	0.19504946
1033.967	0.20698655
