Data from 0_1_mm_pl_40pc_Absorbance__0__15-48-04-602.txt Node

Date: Fri Feb 24 15:48:04 CET 2023
User: Ange
Spectrometer: FLMT08341
Trigger mode: 0
Integration Time (sec): 1.000000E-2
Scans to average: 400
Electric dark correction enabled: true
Nonlinearity correction enabled: false
Boxcar width: 3
XAxis mode: Wavelengths
Number of Pixels in Spectrum: 3648
>>>>>Begin Spectral Data<<<<<
345.271	0.01555316
345.487	0.00705236
345.704	0.01824651
345.921	0.02147983
346.137	0.03051138
346.354	0.04648014
346.571	0.04905483
346.787	0.26905233
347.004	-0.12148769
347.22	-0.05143837
347.437	-0.00033681
347.653	0.07180046
347.87	-0.86608934
348.086	-0.42484054
348.303	-0
348.519	0.51888552
348.736	0.51685341
348.952	0.53947604
349.169	0.56789914
349.385	0.60043157
349.601	0.5932594
349.818	0.58876218
350.034	0.57824775
350.251	0.57988274
350.467	0.58675811
350.683	0.5680357
350.9	0.56523482
351.116	0.55754187
351.332	0.54893547
351.549	0.56633661
351.765	0.5773485
351.981	0.58707256
352.197	0.61126807
352.414	0.63981232
352.63	0.65876755
352.846	0.67345157
353.062	0.65447709
353.278	0.63762791
353.495	0.65145293
353.711	0.64733126
353.927	0.64718707
354.143	0.64951683
354.359	0.64094386
354.575	0.644259
354.792	0.66636773
355.008	0.65147804
355.224	0.64417111
355.44	0.63908679
355.656	0.6326156
355.872	0.64318536
356.088	0.67991475
356.304	0.67694494
356.52	0.67668706
356.736	0.68278409
356.952	0.6853885
357.168	0.68801292
357.384	0.69669681
357.6	0.67319421
357.816	0.68380128
358.032	0.69613157
358.248	0.72159829
358.464	0.7200082
358.679	0.72940885
358.895	0.72643646
359.111	0.73711826
359.327	0.72332333
359.543	0.72547292
359.759	0.72227839
359.974	0.72008034
360.19	0.7122292
360.406	0.70998288
360.622	0.70073538
360.838	0.69110501
361.053	0.69207059
361.269	0.69481714
361.485	0.69688622
361.701	0.70077527
361.916	0.69395052
362.132	0.69542182
362.348	0.70490392
362.563	0.70952407
362.779	0.69701561
362.995	0.69925096
363.21	0.70595626
363.426	0.70942843
363.641	0.70731757
363.857	0.7136247
364.073	0.70518319
364.288	0.69813313
364.504	0.71274105
364.719	0.7096456
364.935	0.70721594
365.15	0.70964459
365.366	0.70542017
365.581	0.71121918
365.797	0.71586526
366.012	0.70031357
366.228	0.69087219
366.443	0.70113512
366.658	0.69965821
366.874	0.69105741
367.089	0.69443259
367.305	0.69676055
367.52	0.69722296
367.735	0.6955592
367.951	0.68602094
368.166	0.68866016
368.381	0.70377587
368.597	0.69562398
368.812	0.69864172
369.027	0.69954919
369.243	0.70649127
369.458	0.7201334
369.673	0.72108521
369.888	0.71315989
370.104	0.70749661
370.319	0.70894365
370.534	0.70485012
370.749	0.70188025
370.964	0.69836979
371.179	0.69327847
371.395	0.68917249
371.61	0.6932986
371.825	0.68094235
372.04	0.68133107
372.255	0.67580974
372.47	0.66669045
372.685	0.66028709
372.9	0.65801479
373.115	0.6516434
373.33	0.65556395
373.545	0.651287
373.76	0.65294797
373.975	0.64751657
374.19	0.64241096
374.405	0.64039281
374.62	0.64358852
374.835	0.64625569
375.05	0.64604079
375.265	0.64314843
375.48	0.64644289
375.695	0.6563342
375.91	0.65090468
376.125	0.64228229
376.339	0.62952149
376.554	0.62739006
376.769	0.62443772
376.984	0.61913426
377.199	0.61815548
377.414	0.61457923
377.628	0.61874932
377.843	0.62216354
378.058	0.62138913
378.273	0.62300704
378.487	0.62212489
378.702	0.61634284
378.917	0.61622062
379.131	0.6078512
379.346	0.59913378
379.561	0.59168644
379.775	0.58461319
379.99	0.57643829
380.205	0.56921271
380.419	0.56260402
380.634	0.55757453
380.848	0.55992858
381.063	0.55871904
381.278	0.56146158
381.492	0.55757975
381.707	0.56038163
381.921	0.55869248
382.136	0.56112484
382.35	0.55520983
382.565	0.54996226
382.779	0.54541332
382.994	0.5454507
383.208	0.53786075
383.422	0.53954152
383.637	0.53534079
383.851	0.5371798
384.066	0.53828547
384.28	0.536965
384.494	0.53570231
384.709	0.53662143
384.923	0.53186232
385.137	0.52661656
385.352	0.52205544
385.566	0.52000291
385.78	0.51565422
385.995	0.51222585
386.209	0.50730454
386.423	0.50824747
386.637	0.50827796
386.852	0.50363038
387.066	0.49942144
387.28	0.49599921
387.494	0.4951771
387.708	0.49342293
387.923	0.48783445
388.137	0.48704488
388.351	0.4871176
388.565	0.48672985
388.779	0.48502886
388.993	0.48488748
389.207	0.48326411
389.421	0.48240484
389.635	0.47758558
389.85	0.47400835
390.064	0.47117925
390.278	0.46916797
390.492	0.46628602
390.706	0.46498133
390.92	0.46291695
391.134	0.46295353
391.348	0.46427514
391.561	0.46109692
391.775	0.45811028
391.989	0.45391536
392.203	0.45139436
392.417	0.44932252
392.631	0.44815223
392.845	0.44333357
393.059	0.44274148
393.273	0.4400886
393.486	0.43726798
393.7	0.43359533
393.914	0.43279234
394.128	0.42969711
394.342	0.42681027
394.555	0.42241322
394.769	0.4215676
394.983	0.42070091
395.197	0.42001524
395.41	0.41710261
395.624	0.4160705
395.838	0.41431308
396.051	0.41571979
396.265	0.41247799
396.479	0.41068332
396.692	0.40876374
396.906	0.40627126
397.12	0.40314294
397.333	0.40249036
397.547	0.39949795
397.76	0.39937619
397.974	0.39835281
398.187	0.39708874
398.401	0.3959756
398.614	0.39498772
398.828	0.39285163
399.041	0.39113729
399.255	0.38917792
399.468	0.38685309
399.682	0.38527348
399.895	0.38485427
400.109	0.38263532
400.322	0.38165956
400.536	0.37845327
400.749	0.37797901
400.962	0.37689479
401.176	0.37492856
401.389	0.37228779
401.602	0.36943646
401.816	0.36750971
402.029	0.36793154
402.242	0.36531274
402.456	0.36364093
402.669	0.36163978
402.882	0.35858686
403.095	0.35940039
403.309	0.35816627
403.522	0.35672136
403.735	0.35528939
403.948	0.35350359
404.161	0.35386616
404.375	0.35384051
404.588	0.35200987
404.801	0.35056898
405.014	0.34863894
405.227	0.34823765
405.44	0.34778373
405.653	0.34684229
405.866	0.34463265
406.079	0.34319744
406.293	0.34172997
406.506	0.34054723
406.719	0.33882155
406.932	0.33706204
407.145	0.33445715
407.358	0.33525091
407.571	0.33355116
407.784	0.33304277
407.996	0.33225817
408.209	0.33072417
408.422	0.32929376
408.635	0.32873821
408.848	0.32718352
409.061	0.32573619
409.274	0.32417511
409.487	0.32249983
409.7	0.32171167
409.912	0.32118461
410.125	0.32003164
410.338	0.31907423
410.551	0.31834107
410.764	0.31732741
410.976	0.31685377
411.189	0.3158706
411.402	0.31447727
411.615	0.3136328
411.827	0.31230651
412.04	0.31152054
412.253	0.31053807
412.465	0.30912484
412.678	0.30819849
412.891	0.30790196
413.103	0.3061516
413.316	0.30527998
413.529	0.30473681
413.741	0.30407603
413.954	0.30373574
414.166	0.30293699
414.379	0.30207499
414.591	0.30198029
414.804	0.30085856
415.016	0.29976802
415.229	0.29885172
415.441	0.29772924
415.654	0.29710333
415.866	0.29626774
416.079	0.29605537
416.291	0.29519071
416.504	0.29518431
416.716	0.29468199
416.928	0.29421538
417.141	0.29322243
417.353	0.29252884
417.566	0.29077691
417.778	0.29035564
417.99	0.28878972
418.203	0.28756952
418.415	0.28652803
418.627	0.28607224
418.839	0.28535336
419.052	0.28563109
419.264	0.28492163
419.476	0.28466903
419.688	0.28439523
419.901	0.28425019
420.113	0.28350224
420.325	0.28267569
420.537	0.28147132
420.749	0.28139469
420.961	0.28088698
421.174	0.27999688
421.386	0.27895943
421.598	0.27831157
421.81	0.27789271
422.022	0.27725504
422.234	0.27641193
422.446	0.27569207
422.658	0.27529125
422.87	0.27497509
423.082	0.27438683
423.294	0.27382465
423.506	0.27358061
423.718	0.27286388
423.93	0.27199282
424.142	0.27127281
424.354	0.27052774
424.566	0.27017496
424.778	0.26960833
424.99	0.26881718
425.202	0.26793438
425.414	0.26792971
425.625	0.26788854
425.837	0.26701186
426.049	0.26674706
426.261	0.26644394
426.473	0.26582403
426.684	0.26567826
426.896	0.26524861
427.108	0.2644035
427.32	0.26439819
427.531	0.26368635
427.743	0.2631573
427.955	0.26338588
428.167	0.26297911
428.378	0.26236298
428.59	0.26202377
428.802	0.26167543
429.013	0.26116055
429.225	0.26056588
429.436	0.25989396
429.648	0.25962139
429.86	0.25950748
430.071	0.25938381
430.283	0.2590586
430.494	0.25870142
430.706	0.25863881
430.917	0.25797234
431.129	0.25763804
431.34	0.25719438
431.552	0.25684334
431.763	0.25658389
431.975	0.25651958
432.186	0.25575048
432.398	0.25579862
432.609	0.25499133
432.821	0.25473621
433.032	0.25430372
433.243	0.25386676
433.455	0.25364439
433.666	0.25380456
433.877	0.25357832
434.089	0.25336124
434.3	0.25284281
434.511	0.25240058
434.723	0.25195776
434.934	0.25129845
435.145	0.25045632
435.356	0.24999231
435.568	0.24978571
435.779	0.24932385
435.99	0.24875808
436.201	0.24835571
436.412	0.24798796
436.624	0.2480354
436.835	0.24799249
437.046	0.24797366
437.257	0.24785235
437.468	0.2481355
437.679	0.24813532
437.89	0.24788058
438.101	0.2476719
438.312	0.24731207
438.523	0.24712996
438.734	0.24709889
438.945	0.24691474
439.156	0.2465925
439.367	0.24666863
439.578	0.2465691
439.789	0.24600707
440	0.24584309
440.211	0.24532115
440.422	0.24499313
440.633	0.24491845
440.844	0.24436861
441.055	0.24406636
441.266	0.24413976
441.477	0.24367902
441.687	0.24358235
441.898	0.24351466
442.109	0.2433532
442.32	0.24333105
442.531	0.24296289
442.741	0.2425258
442.952	0.2424101
443.163	0.24229489
443.374	0.24165247
443.584	0.24133066
443.795	0.24133107
444.006	0.24121845
444.216	0.24114813
444.427	0.24087058
444.638	0.24051279
444.848	0.24040271
445.059	0.24024429
445.27	0.2399657
445.48	0.23978117
445.691	0.23963481
445.901	0.23957748
446.112	0.23946511
446.323	0.23934956
446.533	0.23910108
446.744	0.23889003
446.954	0.23856502
447.165	0.2383931
447.375	0.23833045
447.586	0.23830662
447.796	0.23833831
448.006	0.2382077
448.217	0.23805472
448.427	0.23811225
448.638	0.23775168
448.848	0.23726191
449.058	0.2370183
449.269	0.23687803
449.479	0.23675152
449.689	0.23667365
449.9	0.23662391
450.11	0.23668813
450.32	0.23681479
450.531	0.2365512
450.741	0.23631185
450.951	0.23623789
451.161	0.23604168
451.372	0.23582176
451.582	0.23593042
451.792	0.2356913
452.002	0.23572255
452.212	0.23547391
452.422	0.23539129
452.633	0.2353039
452.843	0.23533501
453.053	0.23486971
453.263	0.23485107
453.473	0.23466857
453.683	0.23476474
453.893	0.23450967
454.103	0.23432954
454.313	0.23422905
454.523	0.23421232
454.733	0.23412422
454.943	0.23417727
455.153	0.2340188
455.363	0.23402574
455.573	0.23388841
455.783	0.23375437
455.993	0.2334701
456.203	0.23343213
456.413	0.23332341
456.623	0.2331584
456.833	0.23325581
457.042	0.23323928
457.252	0.23326539
457.462	0.23345671
457.672	0.23340097
457.882	0.23334808
458.091	0.23344237
458.301	0.2329999
458.511	0.23309011
458.721	0.23300158
458.931	0.23286975
459.14	0.23281006
459.35	0.23285183
459.56	0.23302586
459.769	0.23338387
459.979	0.23324445
460.189	0.23313087
460.398	0.23323243
460.608	0.23319505
460.817	0.23308575
461.027	0.23285723
461.237	0.23264306
461.446	0.23270854
461.656	0.23286368
461.865	0.23287549
462.075	0.23296096
462.284	0.23310154
462.494	0.23304327
462.703	0.23311353
462.913	0.23323884
463.122	0.23313158
463.332	0.23312705
463.541	0.23329775
463.751	0.23321124
463.96	0.23338628
464.169	0.23333665
464.379	0.23340035
464.588	0.23354009
464.797	0.23363922
465.007	0.23359488
465.216	0.23362423
465.425	0.23366597
465.635	0.23388037
465.844	0.23384924
466.053	0.23390018
466.263	0.23389434
466.472	0.23387037
466.681	0.23396166
466.89	0.23398174
467.099	0.23407454
467.309	0.23415516
467.518	0.23435899
467.727	0.23453964
467.936	0.23454217
468.145	0.2347454
468.354	0.23500994
468.563	0.23502106
468.772	0.23513651
468.982	0.23515727
469.191	0.23529444
469.4	0.23544349
469.609	0.23555652
469.818	0.23577535
470.027	0.23592845
470.236	0.23600423
470.445	0.23612211
470.654	0.23614717
470.863	0.236137
471.072	0.23617481
471.28	0.23608337
471.489	0.23629515
471.698	0.23640027
471.907	0.23647481
472.116	0.23664994
472.325	0.23692307
472.534	0.23713703
472.743	0.23725555
472.951	0.23745265
473.16	0.23770472
473.369	0.23781604
473.578	0.23792117
473.786	0.23820371
473.995	0.23834498
474.204	0.23863867
474.413	0.2386909
474.621	0.23892546
474.83	0.23919866
475.039	0.23944666
475.247	0.23959195
475.456	0.2396909
475.665	0.23982201
475.873	0.23997095
476.082	0.23999891
476.291	0.24013988
476.499	0.24039644
476.708	0.24047391
476.916	0.24073296
477.125	0.24093201
477.333	0.24108959
477.542	0.24137776
477.75	0.24161223
477.959	0.2417917
478.167	0.2421797
478.376	0.24237878
478.584	0.24258239
478.793	0.24285694
479.001	0.24301637
479.209	0.24313451
479.418	0.24328047
479.626	0.24343453
479.834	0.24367127
480.043	0.24390355
480.251	0.24413312
480.459	0.24442922
480.668	0.2447391
480.876	0.24504771
481.084	0.24521192
481.293	0.24544641
481.501	0.24563739
481.709	0.24599046
481.917	0.24617925
482.125	0.24644875
482.334	0.24676467
482.542	0.2470263
482.75	0.24727376
482.958	0.24767249
483.166	0.24795917
483.374	0.24826274
483.583	0.24852438
483.791	0.24868674
483.999	0.24893255
484.207	0.24925008
484.415	0.24940701
484.623	0.2496052
484.831	0.24985577
485.039	0.25018706
485.247	0.25049735
485.455	0.25088454
485.663	0.25121238
485.871	0.25154144
486.079	0.25176958
486.287	0.25211196
486.495	0.25231112
486.702	0.25261125
486.91	0.2529124
487.118	0.25324314
487.326	0.25354528
487.534	0.25398641
487.742	0.25438056
487.95	0.25469633
488.157	0.25508434
488.365	0.25548817
488.573	0.25579399
488.781	0.25615356
488.988	0.25651001
489.196	0.25686795
489.404	0.25727083
489.612	0.25752514
489.819	0.25777978
490.027	0.25813793
490.235	0.25840699
490.442	0.25878094
490.65	0.25908914
490.857	0.25954306
491.065	0.25994365
491.273	0.26030223
491.48	0.26061383
491.688	0.26107412
491.895	0.26143694
492.103	0.26173858
492.31	0.26201637
492.518	0.26246229
492.725	0.26288644
492.933	0.2633384
493.14	0.26368111
493.348	0.26395858
493.555	0.26436262
493.763	0.26473268
493.97	0.26505016
494.177	0.26543162
494.385	0.26581622
494.592	0.26627647
494.8	0.2666799
495.007	0.26714887
495.214	0.26761653
495.422	0.26803485
495.629	0.26848955
495.836	0.26892484
496.043	0.26939957
496.251	0.26990433
496.458	0.27032379
496.665	0.27070548
496.872	0.27114282
497.08	0.27150294
497.287	0.27187726
497.494	0.27232525
497.701	0.2727892
497.908	0.27326597
498.115	0.27379089
498.322	0.27421863
498.53	0.2747156
498.737	0.27522621
498.944	0.27558808
499.151	0.27604034
499.358	0.27647996
499.565	0.27688174
499.772	0.27742848
499.979	0.2779172
500.186	0.27846019
500.393	0.27894579
500.6	0.27943569
500.807	0.27988605
501.014	0.28040195
501.221	0.28089328
501.427	0.28136196
501.634	0.28179727
501.841	0.28227294
502.048	0.28277413
502.255	0.28320267
502.462	0.2836299
502.669	0.28408118
502.875	0.28460806
503.082	0.28506181
503.289	0.28554133
503.496	0.28601937
503.702	0.28655577
503.909	0.28709908
504.116	0.28763165
504.323	0.28814007
504.529	0.28874355
504.736	0.28928825
504.943	0.28971473
505.149	0.29029523
505.356	0.29083177
505.563	0.29133741
505.769	0.29184059
505.976	0.29229986
506.182	0.29284019
506.389	0.29347063
506.595	0.29403378
506.802	0.29458467
507.008	0.2951283
507.215	0.29567299
507.421	0.29617818
507.628	0.29671473
507.834	0.29718596
508.041	0.2976738
508.247	0.29814882
508.454	0.29864248
508.66	0.2991209
508.866	0.29971938
509.073	0.30027078
509.279	0.30083944
509.486	0.30137692
509.692	0.30193853
509.898	0.30260375
510.105	0.30325395
510.311	0.30376838
510.517	0.30438684
510.723	0.30497778
510.93	0.30554225
511.136	0.30618113
511.342	0.30670584
511.548	0.30724667
511.754	0.30788055
511.961	0.30833871
512.167	0.30888955
512.373	0.30950012
512.579	0.31010189
512.785	0.31067919
512.991	0.31129106
513.197	0.3118138
513.404	0.31250697
513.61	0.31312527
513.816	0.31372831
514.022	0.3143059
514.228	0.31482344
514.434	0.31532494
514.64	0.31596065
514.846	0.31657983
515.052	0.3171471
515.258	0.31774439
515.464	0.31830049
515.669	0.31900042
515.875	0.31968574
516.081	0.32026067
516.287	0.32088819
516.493	0.32154126
516.699	0.32208329
516.905	0.32268076
517.111	0.32319511
517.316	0.32380942
517.522	0.32439564
517.728	0.32499655
517.934	0.32560823
518.139	0.32623317
518.345	0.32681051
518.551	0.32750815
518.757	0.32811012
518.962	0.32879766
519.168	0.32937959
519.374	0.32991322
519.579	0.33059296
519.785	0.33129403
519.991	0.33194466
520.196	0.33262754
520.402	0.33320622
520.607	0.33388914
520.813	0.33466792
521.018	0.33526566
521.224	0.33580174
521.429	0.33645341
521.635	0.33707427
521.84	0.33773033
522.046	0.33836586
522.251	0.33896939
522.457	0.33961761
522.662	0.34031393
522.868	0.34092758
523.073	0.34152033
523.279	0.34216965
523.484	0.34276407
523.689	0.34335624
523.895	0.34402914
524.1	0.34471623
524.305	0.34534372
524.511	0.34607919
524.716	0.34677914
524.921	0.34739787
525.126	0.34808672
525.332	0.34867593
525.537	0.34938784
525.742	0.35012188
525.947	0.35079547
526.153	0.35139038
526.358	0.35214503
526.563	0.35279645
526.768	0.35355346
526.973	0.35412677
527.178	0.35473729
527.383	0.35529367
527.588	0.35601082
527.794	0.35660397
527.999	0.35724014
528.204	0.3578733
528.409	0.35853855
528.614	0.35924342
528.819	0.35991844
529.024	0.36048998
529.229	0.36117599
529.434	0.36191186
529.639	0.36254348
529.843	0.36320956
530.048	0.36381242
530.253	0.36441611
530.458	0.36514903
530.663	0.36572706
530.868	0.36639522
531.073	0.36703731
531.278	0.36769909
531.482	0.3683826
531.687	0.36907564
531.892	0.36968561
532.097	0.37031071
532.302	0.370948
532.506	0.37162861
532.711	0.37224144
532.916	0.37287918
533.12	0.37356385
533.325	0.37426689
533.53	0.37505915
533.734	0.37572157
533.939	0.37641798
534.144	0.3770984
534.348	0.37776563
534.553	0.37842502
534.757	0.37909653
534.962	0.37973076
535.167	0.38037365
535.371	0.38095415
535.576	0.38165656
535.78	0.38242108
535.985	0.38312721
536.189	0.38377832
536.394	0.3845056
536.598	0.38516843
536.803	0.38593447
537.007	0.38661378
537.211	0.38722693
537.416	0.3878475
537.62	0.38851403
537.825	0.3891374
538.029	0.38990756
538.233	0.39049476
538.438	0.39116852
538.642	0.39174393
538.846	0.39240803
539.05	0.39302864
539.255	0.39360741
539.459	0.3941726
539.663	0.39478503
539.867	0.39538227
540.072	0.39601513
540.276	0.39663471
540.48	0.39737271
540.684	0.39806824
540.888	0.39874832
541.092	0.39947021
541.297	0.40009879
541.501	0.40076549
541.705	0.40143392
541.909	0.4019675
542.113	0.40255554
542.317	0.40317281
542.521	0.40372028
542.725	0.40440457
542.929	0.40501411
543.133	0.40566763
543.337	0.4063278
543.541	0.40700493
543.745	0.40760076
543.949	0.40829891
544.153	0.40885786
544.357	0.40946981
544.56	0.41007907
544.764	0.41074523
544.968	0.41127958
545.172	0.4117687
545.376	0.41238275
545.58	0.41303276
545.783	0.41365393
545.987	0.41420897
546.191	0.41473156
546.395	0.4153185
546.598	0.41600636
546.802	0.4165533
547.006	0.4171782
547.21	0.41768966
547.413	0.41836397
547.617	0.41899059
547.821	0.41963133
548.024	0.42024272
548.228	0.42079121
548.431	0.42134883
548.635	0.42204279
548.839	0.42253922
549.042	0.42312145
549.246	0.42365577
549.449	0.4241772
549.653	0.42476431
549.856	0.42525854
550.06	0.4257138
550.263	0.42630957
550.467	0.42686077
550.67	0.42749
550.874	0.42798688
551.077	0.42856611
551.28	0.42920592
551.484	0.42985482
551.687	0.43036886
551.891	0.43094624
552.094	0.43136717
552.297	0.43192568
552.501	0.43246747
552.704	0.43295539
552.907	0.43335078
553.11	0.43386414
553.314	0.4343316
553.517	0.43484761
553.72	0.43540995
553.923	0.43590051
554.127	0.4363332
554.33	0.43678198
554.533	0.43725787
554.736	0.43760781
554.939	0.43812215
555.142	0.43872156
555.345	0.4392353
555.549	0.43980453
555.752	0.44034264
555.955	0.44080832
556.158	0.44146467
556.361	0.44196858
556.564	0.44232837
556.767	0.44276054
556.97	0.44325539
557.173	0.44378405
557.376	0.44426579
557.579	0.44466915
557.782	0.44513971
557.984	0.44555402
558.187	0.44599672
558.39	0.44638946
558.593	0.44683953
558.796	0.44722897
558.999	0.44758668
559.202	0.44801665
559.404	0.44840382
559.607	0.44883144
559.81	0.44918386
560.013	0.44955714
560.216	0.44997619
560.418	0.45046021
560.621	0.45084375
560.824	0.45132934
561.026	0.45178933
561.229	0.45221649
561.432	0.45262787
561.634	0.45301224
561.837	0.45334183
562.04	0.45375829
562.242	0.45417273
562.445	0.45446587
562.647	0.45484477
562.85	0.45516651
563.053	0.45548844
563.255	0.45589832
563.458	0.45628494
563.66	0.45658462
563.863	0.45705596
564.065	0.45739503
564.268	0.45773577
564.47	0.45812581
564.672	0.45838436
564.875	0.4586045
565.077	0.45892759
565.28	0.45915708
565.482	0.45948235
565.684	0.45980885
565.887	0.46010153
566.089	0.46038631
566.291	0.4607692
566.494	0.46104919
566.696	0.46133341
566.898	0.46160712
567.1	0.46185289
567.303	0.46213701
567.505	0.46240948
567.707	0.46249437
567.909	0.46267943
568.111	0.46289052
568.314	0.46315504
568.516	0.46343972
568.718	0.46366853
568.92	0.46396347
569.122	0.46431841
569.324	0.46460652
569.526	0.46482923
569.728	0.46512218
569.93	0.46533036
570.132	0.46555082
570.334	0.46573579
570.536	0.46585848
570.738	0.4660064
570.94	0.46614492
571.142	0.46629728
571.344	0.46640328
571.546	0.46656917
571.748	0.46675836
571.95	0.46690179
572.152	0.46710932
572.354	0.46734334
572.555	0.46753213
572.757	0.46786422
572.959	0.46795365
573.161	0.46801894
573.363	0.46816401
573.564	0.46838345
573.766	0.4684801
573.968	0.46857764
574.17	0.46866198
574.371	0.46882255
574.573	0.46899094
574.775	0.46912868
574.976	0.46909831
575.178	0.46923155
575.38	0.46919134
575.581	0.46917804
575.783	0.46930796
575.985	0.46942937
576.186	0.46953863
576.388	0.46966898
576.589	0.46971591
576.791	0.46990083
576.992	0.47006742
577.194	0.47017597
577.395	0.47027823
577.597	0.47038997
577.798	0.47049528
578	0.47058541
578.201	0.47071584
578.402	0.47079899
578.604	0.47078202
578.805	0.47089202
579.007	0.47097027
579.208	0.47108461
579.409	0.47117339
579.611	0.47119305
579.812	0.47118309
580.013	0.47127631
580.215	0.47109035
580.416	0.47106536
580.617	0.47098594
580.818	0.47099434
581.019	0.47096298
581.221	0.47107847
581.422	0.47106186
581.623	0.47122352
581.824	0.47112604
582.025	0.47113824
582.226	0.47108866
582.428	0.47113997
582.629	0.47105544
582.83	0.47112981
583.031	0.47101924
583.232	0.47115561
583.433	0.47121339
583.634	0.47125542
583.835	0.47120183
584.036	0.47117601
584.237	0.47107122
584.438	0.47119066
584.639	0.4711009
584.84	0.47105342
585.041	0.47095502
585.242	0.47095806
585.442	0.47089155
585.643	0.47093448
585.844	0.47077027
586.045	0.47075178
586.246	0.47058005
586.447	0.47052021
586.647	0.47040205
586.848	0.47036071
587.049	0.47026189
587.25	0.47024124
587.45	0.47015729
587.651	0.47017711
587.852	0.47012918
588.053	0.4701456
588.253	0.47004429
588.454	0.46992182
588.655	0.46980631
588.855	0.4696645
589.056	0.46961434
589.256	0.46959715
589.457	0.46943297
589.658	0.4694111
589.858	0.4692749
590.059	0.46925708
590.259	0.46930768
590.46	0.46921445
590.66	0.46905885
590.861	0.46905636
591.061	0.46892466
591.262	0.46898603
591.462	0.46896368
591.662	0.46884436
591.863	0.4687195
592.063	0.46875552
592.264	0.46868462
592.464	0.46866578
592.664	0.46855739
592.865	0.46853185
593.065	0.46832872
593.265	0.46835551
593.465	0.46816194
593.666	0.46806393
593.866	0.46792777
594.066	0.46795293
594.266	0.46773271
594.467	0.4676249
594.667	0.46739327
594.867	0.46738504
595.067	0.46723623
595.267	0.46709128
595.467	0.46687307
595.668	0.466774
595.868	0.46678081
596.068	0.46675208
596.268	0.46652257
596.468	0.4664874
596.668	0.46642034
596.868	0.46628719
597.068	0.46619881
597.268	0.46615081
597.468	0.46597844
597.668	0.46593798
597.868	0.46578661
598.068	0.46569377
598.268	0.4656375
598.467	0.46567582
598.667	0.46545155
598.867	0.46536899
599.067	0.46530369
599.267	0.46523219
599.467	0.46510659
599.667	0.46490506
599.866	0.46471994
600.066	0.4647112
600.266	0.4646658
600.466	0.46456604
600.665	0.46441521
600.865	0.46434555
601.065	0.4643437
601.264	0.46418403
601.464	0.46401267
601.664	0.46399418
601.863	0.46391333
602.063	0.46389532
602.263	0.46368012
602.462	0.46363647
602.662	0.46360093
602.861	0.46355663
603.061	0.46344071
603.26	0.46340767
603.46	0.46322657
603.659	0.46329035
603.859	0.46313321
604.058	0.46298581
604.258	0.46303972
604.457	0.46304482
604.657	0.46279229
604.856	0.46276989
605.056	0.46272017
605.255	0.46268693
605.454	0.46273341
605.654	0.46251805
605.853	0.46237088
606.052	0.46235784
606.252	0.46235715
606.451	0.46229823
606.65	0.46224885
606.849	0.46205694
607.049	0.46200929
607.248	0.46191217
607.447	0.46191126
607.646	0.46181134
607.845	0.46172103
608.045	0.46156807
608.244	0.46168615
608.443	0.46168572
608.642	0.46169607
608.841	0.46163175
609.04	0.46157245
609.239	0.46158472
609.438	0.46154528
609.637	0.46149579
609.836	0.46146026
610.035	0.46137441
610.234	0.46144196
610.433	0.46145523
610.632	0.4614128
610.831	0.46160681
611.03	0.4614963
611.229	0.46165596
611.428	0.46176926
611.627	0.46170275
611.826	0.46177925
612.025	0.46195024
612.224	0.46186517
612.422	0.46198425
612.621	0.46194813
612.82	0.46193822
613.019	0.46203314
613.218	0.46213219
613.416	0.46199496
613.615	0.46208799
613.814	0.46210285
614.012	0.46211787
614.211	0.46204352
614.41	0.46215306
614.608	0.46216896
614.807	0.4622926
615.006	0.46238071
615.204	0.4624609
615.403	0.46258414
615.602	0.4628529
615.8	0.4629911
615.999	0.46298691
616.197	0.46304342
616.396	0.4631795
616.594	0.46326172
616.793	0.46336854
616.991	0.46336575
617.19	0.46318627
617.388	0.46337401
617.586	0.46350336
617.785	0.46345454
617.983	0.46354826
618.182	0.46351588
618.38	0.46351794
618.578	0.4636923
618.777	0.46375252
618.975	0.46383506
619.173	0.46405653
619.372	0.4641505
619.57	0.46428078
619.768	0.46451944
619.966	0.46473373
620.165	0.46472035
620.363	0.46491737
620.561	0.46481533
620.759	0.46492439
620.957	0.46510062
621.155	0.46522275
621.354	0.46527374
621.552	0.46563214
621.75	0.46563444
621.948	0.46607422
622.146	0.46625416
622.344	0.46634957
622.542	0.46653842
622.74	0.46667225
622.938	0.46666129
623.136	0.46698337
623.334	0.4670918
623.532	0.46713167
623.73	0.46730007
623.928	0.46747619
624.126	0.46769087
624.324	0.46804852
624.522	0.46798928
624.719	0.46806454
624.917	0.46838225
625.115	0.46852196
625.313	0.46878321
625.511	0.469058
625.708	0.46897644
625.906	0.46922485
626.104	0.46936988
626.302	0.46964711
626.499	0.46988621
626.697	0.47001873
626.895	0.47010608
627.093	0.47043936
627.29	0.47079537
627.488	0.47106639
627.686	0.47123184
627.883	0.47137287
628.081	0.4714367
628.278	0.47185599
628.476	0.47199881
628.673	0.47214884
628.871	0.4723485
629.068	0.47252187
629.266	0.4728808
629.463	0.47310151
629.661	0.47320947
629.858	0.47346056
630.056	0.47362847
630.253	0.4738099
630.451	0.47406465
630.648	0.47427781
630.845	0.47461638
631.043	0.47481416
631.24	0.47516012
631.438	0.47549029
631.635	0.4757572
631.832	0.47584433
632.029	0.47603561
632.227	0.47620618
632.424	0.47643972
632.621	0.47661291
632.818	0.47675437
633.016	0.47702263
633.213	0.47731026
633.41	0.47762268
633.607	0.47785703
633.804	0.47807095
634.001	0.47822993
634.199	0.47851757
634.396	0.47876488
634.593	0.47898294
634.79	0.4792565
634.987	0.47962603
635.184	0.47992671
635.381	0.4803407
635.578	0.48063052
635.775	0.48088257
635.972	0.4812018
636.169	0.48139013
636.366	0.48152948
636.563	0.48177858
636.76	0.48190995
636.957	0.48219708
637.153	0.48229326
637.35	0.48258739
637.547	0.48283667
637.744	0.4830403
637.941	0.48328272
638.138	0.48355646
638.334	0.48374174
638.531	0.48419594
638.728	0.48441031
638.925	0.48478198
639.121	0.48514341
639.318	0.4853984
639.515	0.48563112
639.711	0.48599339
639.908	0.48610928
640.105	0.48638424
640.301	0.48663898
640.498	0.4868803
640.695	0.48729374
640.891	0.48758972
641.088	0.48778217
641.284	0.48816932
641.481	0.48850194
641.677	0.48867239
641.874	0.48882553
642.07	0.48909116
642.267	0.48950528
642.463	0.48975062
642.66	0.49012809
642.856	0.49029635
643.053	0.49048944
643.249	0.49092441
643.445	0.49103432
643.642	0.49122482
643.838	0.49155193
644.034	0.49175836
644.231	0.49206921
644.427	0.49242756
644.623	0.49264626
644.82	0.49299899
645.016	0.49322778
645.212	0.49343273
645.408	0.49357573
645.604	0.49398695
645.801	0.49424152
645.997	0.49452938
646.193	0.49476441
646.389	0.49516239
646.585	0.49551222
646.781	0.49595559
646.977	0.49616241
647.173	0.49640894
647.37	0.49657985
647.566	0.49682982
647.762	0.49692921
647.958	0.49720579
648.154	0.49733546
648.35	0.49755172
648.546	0.49779053
648.742	0.49824193
648.937	0.49833272
649.133	0.49871244
649.329	0.49895753
649.525	0.49925745
649.721	0.49950981
649.917	0.49992334
650.113	0.50009635
650.309	0.5006994
650.504	0.50088308
650.7	0.5011001
650.896	0.50136973
651.092	0.50163114
651.287	0.5017706
651.483	0.502053
651.679	0.50213965
651.875	0.50250451
652.07	0.50279535
652.266	0.50311314
652.462	0.50337
652.657	0.50363139
652.853	0.50381011
653.048	0.5040565
653.244	0.50411722
653.44	0.50431764
653.635	0.50434414
653.831	0.5046092
654.026	0.50502993
654.222	0.50534515
654.417	0.50573278
654.613	0.50606403
654.808	0.50623921
655.004	0.50662462
655.199	0.50680119
655.394	0.50685178
655.59	0.5070746
655.785	0.50713995
655.98	0.50740967
656.176	0.5076672
656.371	0.50800447
656.566	0.50828453
656.762	0.50849534
656.957	0.50869382
657.152	0.50890193
657.348	0.50905453
657.543	0.50928004
657.738	0.50947021
657.933	0.50961198
658.128	0.50979757
658.324	0.50999587
658.519	0.51029309
658.714	0.51050566
658.909	0.51070523
659.104	0.51090056
659.299	0.51112929
659.494	0.51129524
659.689	0.5114889
659.884	0.51156038
660.079	0.511721
660.274	0.51194643
660.469	0.51212248
660.664	0.51248202
660.859	0.51275978
661.054	0.51298116
661.249	0.51328629
661.444	0.51350782
661.639	0.51362384
661.834	0.5136984
662.029	0.5138137
662.224	0.51399901
662.418	0.51423808
662.613	0.51447934
662.808	0.51467326
663.003	0.51493259
663.198	0.51519022
663.392	0.51521179
663.587	0.51551803
663.782	0.51558021
663.977	0.51569498
664.171	0.5158959
664.366	0.51610929
664.561	0.51633619
664.755	0.516683
664.95	0.51670416
665.144	0.51698102
665.339	0.51717258
665.534	0.51735081
665.728	0.51754388
665.923	0.51769885
666.117	0.51779157
666.312	0.51795971
666.506	0.51813458
666.701	0.51814742
666.895	0.51827392
667.09	0.5183553
667.284	0.51849005
667.479	0.51859467
667.673	0.51873002
667.867	0.51886817
668.062	0.5190791
668.256	0.51929129
668.45	0.51953991
668.645	0.51972815
668.839	0.51999499
669.033	0.52019342
669.228	0.52031944
669.422	0.52060416
669.616	0.52071407
669.81	0.52087727
670.004	0.52092556
670.199	0.52110131
670.393	0.52123992
670.587	0.52135197
670.781	0.52152443
670.975	0.52169881
671.169	0.52173073
671.363	0.52187666
671.558	0.52188614
671.752	0.52203022
671.946	0.52219334
672.14	0.52216624
672.334	0.52219381
672.528	0.52245117
672.722	0.5224906
672.916	0.52264647
673.11	0.52267081
673.304	0.52284269
673.497	0.52285235
673.691	0.5230869
673.885	0.52295087
674.079	0.52311012
674.273	0.52313162
674.467	0.52329971
674.661	0.52332738
674.854	0.52352131
675.048	0.52356651
675.242	0.52384208
675.436	0.52398123
675.629	0.52408621
675.823	0.52415552
676.017	0.52432213
676.211	0.52429449
676.404	0.52429001
676.598	0.52426818
676.792	0.52432633
676.985	0.52451485
677.179	0.52460353
677.372	0.52463589
677.566	0.52497009
677.76	0.52522659
677.953	0.52531262
678.147	0.52548225
678.34	0.52554363
678.534	0.52560317
678.727	0.52570258
678.921	0.52572942
679.114	0.52562889
679.307	0.52579352
679.501	0.52583707
679.694	0.52590583
679.888	0.52599131
680.081	0.52611488
680.274	0.52607495
680.468	0.52627064
680.661	0.52633355
680.854	0.52647089
681.048	0.52659068
681.241	0.52664035
681.434	0.52664593
681.627	0.52683245
681.821	0.52688627
682.014	0.52702986
682.207	0.52703566
682.4	0.52704557
682.593	0.52720574
682.786	0.52722729
682.98	0.52723638
683.173	0.52732543
683.366	0.52728552
683.559	0.52726925
683.752	0.52742283
683.945	0.52742693
684.138	0.52765232
684.331	0.5277064
684.524	0.52785467
684.717	0.52792855
684.91	0.52811637
685.103	0.52804399
685.296	0.5280851
685.489	0.52803499
685.682	0.52804864
685.874	0.52816687
686.067	0.52822748
686.26	0.52822802
686.453	0.52829758
686.646	0.52828629
686.839	0.52832645
687.031	0.5283559
687.224	0.52810336
687.417	0.52816866
687.61	0.52806101
687.802	0.52802031
687.995	0.52810903
688.188	0.52814063
688.38	0.52820823
688.573	0.52837753
688.766	0.52844835
688.958	0.52857912
689.151	0.5286336
689.343	0.52874776
689.536	0.52876531
689.729	0.52870589
689.921	0.52865904
690.114	0.52848205
690.306	0.52849218
690.499	0.52855901
690.691	0.5286112
690.884	0.52863506
691.076	0.52887156
691.268	0.52888726
691.461	0.52887458
691.653	0.52895274
691.846	0.52899227
692.038	0.52890983
692.23	0.52874346
692.423	0.52858657
692.615	0.52861991
692.807	0.52866739
692.999	0.52863473
693.192	0.5285488
693.384	0.52866189
693.576	0.52873625
693.768	0.52878047
693.961	0.5286819
694.153	0.52875569
694.345	0.52867706
694.537	0.52870328
694.729	0.52858426
694.921	0.52857819
695.113	0.52867669
695.305	0.52874549
695.498	0.52869645
695.69	0.52892035
695.882	0.52899081
696.074	0.52912723
696.266	0.52911655
696.458	0.52899738
696.65	0.52901915
696.842	0.52904474
697.033	0.52892703
697.225	0.52878111
697.417	0.52872745
697.609	0.52877393
697.801	0.5287334
697.993	0.52875691
698.185	0.52875389
698.376	0.52871935
698.568	0.52873148
698.76	0.52863125
698.952	0.52852626
699.144	0.5285143
699.335	0.52845694
699.527	0.52843776
699.719	0.52843048
699.91	0.52855711
700.102	0.52860028
700.294	0.52876705
700.485	0.52880058
700.677	0.52876758
700.869	0.52879831
701.06	0.52884105
701.252	0.5287327
701.443	0.52867962
701.635	0.52861278
701.826	0.52865534
702.018	0.52870872
702.209	0.52864473
702.401	0.52862717
702.592	0.52879823
702.784	0.52887258
702.975	0.52890502
703.166	0.52888202
703.358	0.52881214
703.549	0.52889005
703.741	0.52880554
703.932	0.52860865
704.123	0.5285158
704.315	0.52847524
704.506	0.52857267
704.697	0.52867679
704.888	0.52873297
705.08	0.52885406
705.271	0.52900063
705.462	0.52901414
705.653	0.52906694
705.844	0.52892917
706.035	0.52879497
706.227	0.52869714
706.418	0.52854651
706.609	0.52851574
706.8	0.52860395
706.991	0.52858702
707.182	0.52859371
707.373	0.52859366
707.564	0.52864375
707.755	0.52862479
707.946	0.5285725
708.137	0.52843981
708.328	0.52836254
708.519	0.52838385
708.71	0.52839727
708.901	0.52831622
709.092	0.52841318
709.283	0.52838508
709.473	0.52837365
709.664	0.52847372
709.855	0.52849047
710.046	0.52862352
710.237	0.52858656
710.427	0.52852659
710.618	0.52859194
710.809	0.52857642
711	0.52857806
711.19	0.52848627
711.381	0.52850014
711.572	0.52851655
711.762	0.52859884
711.953	0.52846376
712.144	0.52856279
712.334	0.52846008
712.525	0.52863133
712.715	0.52862196
712.906	0.52862807
713.097	0.52853203
713.287	0.52860429
713.478	0.5285171
713.668	0.52856008
713.859	0.52843537
714.049	0.52838651
714.239	0.52855646
714.43	0.52864136
714.62	0.52870088
714.811	0.52879403
715.001	0.52888166
715.191	0.52893196
715.382	0.52888614
715.572	0.52887159
715.762	0.52885441
715.953	0.52899671
716.143	0.52914114
716.333	0.52912437
716.523	0.52913955
716.714	0.52933339
716.904	0.52930832
717.094	0.52944104
717.284	0.52923174
717.474	0.52912067
717.664	0.52916191
717.855	0.52911252
718.045	0.52887661
718.235	0.52884168
718.425	0.52881738
718.615	0.52901678
718.805	0.52911749
718.995	0.52919921
719.185	0.52945624
719.375	0.52966269
719.565	0.52989995
719.755	0.52988679
719.945	0.52978637
720.135	0.52980668
720.325	0.52984774
720.515	0.52986749
720.704	0.52995837
720.894	0.52991068
721.084	0.52998896
721.274	0.53007255
721.464	0.53007755
721.654	0.53007831
721.843	0.53003317
722.033	0.53007018
722.223	0.53004199
722.413	0.53021453
722.602	0.5303255
722.792	0.5304247
722.982	0.53047484
723.171	0.53052027
723.361	0.53054734
723.55	0.53077101
723.74	0.53076644
723.93	0.53085173
724.119	0.5309433
724.309	0.53109978
724.498	0.53118875
724.688	0.53124883
724.877	0.53124468
725.067	0.53125521
725.256	0.53133043
725.446	0.53128036
725.635	0.53116097
725.825	0.53119319
726.014	0.5312768
726.203	0.5312385
726.393	0.53119921
726.582	0.53120981
726.771	0.53136431
726.961	0.53149614
727.15	0.53141974
727.339	0.53137582
727.529	0.53149271
727.718	0.53148251
727.907	0.53131969
728.096	0.53121044
728.286	0.53108795
728.475	0.53121042
728.664	0.53119768
728.853	0.53117307
729.042	0.53119196
729.231	0.53137993
729.42	0.5314332
729.609	0.53152675
729.799	0.5314295
729.988	0.5315339
730.177	0.53140111
730.366	0.53147596
730.555	0.53133963
730.744	0.53133247
730.933	0.53139966
731.122	0.53155198
731.31	0.53157233
731.499	0.5316917
731.688	0.53183525
731.877	0.53204768
732.066	0.5321885
732.255	0.53220249
732.444	0.53224074
732.632	0.53227444
732.821	0.53236629
733.01	0.53239639
733.199	0.53222533
733.388	0.53211166
733.576	0.53207884
733.765	0.5319777
733.954	0.53193982
734.142	0.53188634
734.331	0.53189672
734.52	0.53209198
734.708	0.53226431
734.897	0.53241947
735.086	0.53248331
735.274	0.53251635
735.463	0.53256639
735.651	0.53247929
735.84	0.53249438
736.028	0.53251987
736.217	0.53253749
736.405	0.53263689
736.594	0.53270068
736.782	0.53281439
736.971	0.53305425
737.159	0.5332148
737.347	0.53337569
737.536	0.53348177
737.724	0.53358564
737.912	0.53359414
738.101	0.53357938
738.289	0.53360577
738.477	0.53349841
738.666	0.53339129
738.854	0.53339338
739.042	0.53348978
739.23	0.53357062
739.418	0.53369514
739.607	0.53364176
739.795	0.53370941
739.983	0.53392492
740.171	0.53399961
740.359	0.53399639
740.547	0.5340539
740.735	0.53411416
740.923	0.53420967
741.112	0.53441114
741.3	0.53437458
741.488	0.53434604
741.676	0.53449726
741.864	0.53461083
742.052	0.53475316
742.239	0.53480314
742.427	0.53477054
742.615	0.53473191
742.803	0.53484284
742.991	0.53481977
743.179	0.53485418
743.367	0.534793
743.555	0.53490568
743.742	0.53492795
743.93	0.53511152
744.118	0.53519765
744.306	0.5352717
744.494	0.53530202
744.681	0.53534507
744.869	0.53540618
745.057	0.53553421
745.244	0.53556943
745.432	0.53557642
745.62	0.53558656
745.807	0.53568439
745.995	0.53569013
746.182	0.53563763
746.37	0.53565099
746.558	0.53565935
746.745	0.53567747
746.933	0.53578051
747.12	0.53586462
747.308	0.53615063
747.495	0.53626121
747.683	0.53640774
747.87	0.5364341
748.057	0.5365885
748.245	0.53670951
748.432	0.53680985
748.62	0.53671048
748.807	0.53675007
748.994	0.53672805
749.182	0.53687511
749.369	0.53686117
749.556	0.53691347
749.743	0.53696155
749.931	0.5371013
750.118	0.53733152
750.305	0.53745657
750.492	0.53751901
750.68	0.5378137
750.867	0.53788868
751.054	0.53802141
751.241	0.53805378
751.428	0.53811595
751.615	0.53821601
751.802	0.53831172
751.989	0.53819945
752.176	0.53837354
752.363	0.53845208
752.55	0.53856919
752.737	0.53859968
752.924	0.53866338
753.111	0.53877396
753.298	0.53897778
753.485	0.53892958
753.672	0.53892026
753.859	0.53904753
754.046	0.53908234
754.233	0.53910806
754.42	0.5392541
754.606	0.53921306
754.793	0.53925231
754.98	0.53945047
755.167	0.53949563
755.353	0.53964757
755.54	0.53981429
755.727	0.53992613
755.914	0.54004299
756.1	0.54018272
756.287	0.54008946
756.474	0.54010099
756.66	0.54016565
756.847	0.54025858
757.033	0.54003746
757.22	0.54008194
757.407	0.5402446
757.593	0.54049612
757.78	0.54061519
757.966	0.54082166
758.153	0.5408509
758.339	0.54113552
758.526	0.54122711
758.712	0.54117286
758.898	0.54124336
759.085	0.54122029
759.271	0.54112101
759.458	0.54117468
759.644	0.54123066
759.83	0.54128077
760.017	0.54140361
760.203	0.5413743
760.389	0.54158381
760.576	0.54177166
760.762	0.54189601
760.948	0.54189693
761.134	0.54205485
761.32	0.54208356
761.507	0.54212224
761.693	0.54223151
761.879	0.54210274
762.065	0.54212425
762.251	0.54215632
762.437	0.54219857
762.623	0.54232247
762.809	0.54235096
762.995	0.54243717
763.181	0.54260563
763.367	0.5427456
763.553	0.54296862
763.739	0.54319091
763.925	0.54328069
764.111	0.54354639
764.297	0.54364189
764.483	0.54371322
764.669	0.54371989
764.855	0.5436874
765.041	0.54365933
765.227	0.54356674
765.412	0.54357191
765.598	0.54348839
765.784	0.54358031
765.97	0.54374243
766.156	0.54396335
766.341	0.54409044
766.527	0.54426141
766.713	0.54436427
766.898	0.54449382
767.084	0.54452715
767.27	0.5444293
767.455	0.54427142
767.641	0.5441777
767.827	0.54415531
768.012	0.5440565
768.198	0.54405765
768.383	0.54405394
768.569	0.54414017
768.754	0.54435804
768.94	0.54443337
769.125	0.54450286
769.311	0.54461728
769.496	0.54472192
769.682	0.54487913
769.867	0.5450617
770.052	0.54510837
770.238	0.54515868
770.423	0.54528689
770.608	0.54537175
770.794	0.54540489
770.979	0.5453062
771.164	0.54524953
771.35	0.54531109
771.535	0.54542212
771.72	0.54552008
771.905	0.54573566
772.09	0.54580319
772.276	0.54606389
772.461	0.54612863
772.646	0.546029
772.831	0.54604878
773.016	0.54608658
773.201	0.54594094
773.386	0.54602436
773.571	0.545871
773.756	0.54577211
773.941	0.54574071
774.126	0.54586281
774.311	0.54575401
774.496	0.54584028
774.681	0.54594197
774.866	0.54610822
775.051	0.54617933
775.236	0.54640723
775.421	0.54640418
775.606	0.54643858
775.791	0.546435
775.976	0.54634964
776.16	0.54631778
776.345	0.54641863
776.53	0.54646885
776.715	0.54641473
776.899	0.54653447
777.084	0.54654827
777.269	0.5466704
777.454	0.54678074
777.638	0.54683898
777.823	0.54683718
778.008	0.5468517
778.192	0.54696706
778.377	0.54691401
778.561	0.54685141
778.746	0.54683225
778.931	0.54682139
779.115	0.54686251
779.3	0.54699502
779.484	0.54684604
779.669	0.54687603
779.853	0.54683918
780.037	0.54694017
780.222	0.54697812
780.406	0.54690245
780.591	0.54688038
780.775	0.54697984
780.959	0.54712344
781.144	0.54711146
781.328	0.54695838
781.512	0.5468482
781.697	0.54687264
781.881	0.54674375
782.065	0.54679843
782.249	0.54662769
782.434	0.54676837
782.618	0.54674108
782.802	0.54684047
782.986	0.54690067
783.17	0.54700836
783.354	0.54696875
783.539	0.54700373
783.723	0.54686456
783.907	0.54697465
784.091	0.54697657
784.275	0.54692595
784.459	0.5468051
784.643	0.54673933
784.827	0.54664379
785.011	0.54660284
785.195	0.54651517
785.379	0.54654919
785.563	0.54652276
785.747	0.54651052
785.93	0.54668364
786.114	0.54670035
786.298	0.54675714
786.482	0.54671739
786.666	0.54671133
786.85	0.54669368
787.033	0.546713
787.217	0.5465319
787.401	0.5466374
787.585	0.54653272
787.768	0.54653979
787.952	0.54633465
788.136	0.54629896
788.319	0.54631857
788.503	0.5461685
788.687	0.54610975
788.87	0.54613642
789.054	0.54609957
789.237	0.54621152
789.421	0.54626743
789.605	0.54625525
789.788	0.54633934
789.972	0.5462653
790.155	0.54610687
790.338	0.5460087
790.522	0.54586864
790.705	0.54559111
790.889	0.54541918
791.072	0.54541713
791.256	0.54542174
791.439	0.54545137
791.622	0.54546828
791.806	0.54560491
791.989	0.54561391
792.172	0.54561371
792.355	0.54559824
792.539	0.54562578
792.722	0.54554543
792.905	0.54538662
793.088	0.54514008
793.271	0.54512557
793.455	0.54503542
793.638	0.54480656
793.821	0.54457706
794.004	0.5445417
794.187	0.54466831
794.37	0.54472656
794.553	0.5447485
794.736	0.54472165
794.919	0.5446997
795.102	0.54474167
795.285	0.54471405
795.468	0.54453656
795.651	0.54450548
795.834	0.5445147
796.017	0.54455107
796.2	0.54447161
796.383	0.544342
796.566	0.54434484
796.749	0.54435756
796.931	0.54420223
797.114	0.54393172
797.297	0.54378281
797.48	0.54369832
797.663	0.54368983
797.845	0.54362891
798.028	0.54365486
798.211	0.5436045
798.393	0.54358314
798.576	0.54353915
798.759	0.54335083
798.941	0.54318246
799.124	0.54303828
799.307	0.5428352
799.489	0.54277428
799.672	0.54265428
799.854	0.54241773
800.037	0.54235193
800.219	0.5423365
800.402	0.54231363
800.584	0.54222044
800.767	0.54208412
800.949	0.54209186
801.132	0.54227611
801.314	0.54228341
801.496	0.54220938
801.679	0.54208438
801.861	0.5420576
802.043	0.54188975
802.226	0.5417668
802.408	0.54156699
802.59	0.54152034
802.772	0.54143282
802.955	0.54131666
803.137	0.54115869
803.319	0.54109662
803.501	0.54092601
803.684	0.54084034
803.866	0.54067608
804.048	0.54066073
804.23	0.54062783
804.412	0.54071445
804.594	0.54066602
804.776	0.54078773
804.958	0.54060726
805.14	0.54058136
805.322	0.54036815
805.504	0.54019893
805.686	0.53985711
805.868	0.53974133
806.05	0.53944613
806.232	0.53928044
806.414	0.53930821
806.596	0.5392007
806.778	0.53906382
806.96	0.53907016
807.141	0.53884073
807.323	0.53878065
807.505	0.5386299
807.687	0.53836578
807.869	0.53823124
808.05	0.53805487
808.232	0.53786476
808.414	0.53787955
808.595	0.53772898
808.777	0.53762617
808.959	0.53747868
809.14	0.53736554
809.322	0.53727853
809.504	0.53702212
809.685	0.5368944
809.867	0.53665268
810.048	0.53648609
810.23	0.53638754
810.411	0.53618647
810.593	0.53598779
810.774	0.53582931
810.956	0.5355625
811.137	0.53546164
811.319	0.53534365
811.5	0.53504842
811.681	0.53491691
811.863	0.5347776
812.044	0.53460238
812.225	0.53456229
812.407	0.53438199
812.588	0.53425114
812.769	0.53406422
812.951	0.53382449
813.132	0.53367205
813.313	0.53373048
813.494	0.53355438
813.675	0.53350654
813.857	0.53348181
814.038	0.53354332
814.219	0.5335213
814.4	0.53337368
814.581	0.53324627
814.762	0.53290408
814.943	0.53275996
815.124	0.53237632
815.305	0.53200813
815.486	0.53179736
815.667	0.53166143
815.848	0.53131265
816.029	0.5311898
816.21	0.53097864
816.391	0.53101977
816.572	0.53093013
816.753	0.53082462
816.934	0.53071084
817.115	0.53069948
817.295	0.53078029
817.476	0.5304804
817.657	0.53031258
817.838	0.53025552
818.019	0.5299676
818.199	0.52965089
818.38	0.52940282
818.561	0.52912498
818.741	0.52913249
818.922	0.52878962
819.103	0.52863164
819.283	0.52857866
819.464	0.52853386
819.645	0.5283212
819.825	0.52811657
820.006	0.52788438
820.186	0.52788346
820.367	0.52771739
820.547	0.52742691
820.728	0.52706627
820.908	0.52686206
821.089	0.52680225
821.269	0.52660531
821.45	0.52641521
821.63	0.52604807
821.81	0.52590637
821.991	0.5258809
822.171	0.52571623
822.351	0.52546215
822.532	0.52523506
822.712	0.52498984
822.892	0.52498321
823.072	0.52493964
823.253	0.52471096
823.433	0.52453905
823.613	0.52434705
823.793	0.52418042
823.973	0.52406108
824.154	0.52365001
824.334	0.52331793
824.514	0.52298993
824.694	0.52278362
824.874	0.52229791
825.054	0.52202423
825.234	0.52157142
825.414	0.52122437
825.594	0.52095264
825.774	0.52082706
825.954	0.52063516
826.134	0.52058083
826.314	0.52032042
826.494	0.52033423
826.674	0.52010335
826.854	0.51986353
827.033	0.51944349
827.213	0.51926617
827.393	0.51894763
827.573	0.51881632
827.753	0.51838463
827.932	0.51838827
828.112	0.51813551
828.292	0.51814731
828.472	0.5177483
828.651	0.51779299
828.831	0.51735071
829.011	0.5172113
829.19	0.51686533
829.37	0.51668286
829.549	0.51637098
829.729	0.516113
829.909	0.51565149
830.088	0.51554127
830.268	0.51507449
830.447	0.51488572
830.627	0.51468066
830.806	0.51452772
830.986	0.51425313
831.165	0.51410967
831.344	0.51389723
831.524	0.51381118
831.703	0.51354537
831.883	0.51314538
832.062	0.51282138
832.241	0.51259456
832.421	0.51238616
832.6	0.51221484
832.779	0.51199468
832.958	0.51180107
833.138	0.51151352
833.317	0.51150425
833.496	0.51138141
833.675	0.51109123
833.854	0.51090895
834.034	0.51057306
834.213	0.51026301
834.392	0.51025245
834.571	0.50970217
834.75	0.50951793
834.929	0.50916861
835.108	0.50874658
835.287	0.50868297
835.466	0.50836479
835.645	0.50801952
835.824	0.50776193
836.003	0.50743962
836.182	0.50734983
836.361	0.50723315
836.54	0.50683547
836.719	0.50674704
836.897	0.50644158
837.076	0.50625997
837.255	0.50597415
837.434	0.50569445
837.613	0.50526778
837.791	0.50498768
837.97	0.50463357
838.149	0.50425405
838.328	0.50387692
838.506	0.50348208
838.685	0.50306297
838.864	0.50293555
839.042	0.50268441
839.221	0.50259784
839.4	0.50250002
839.578	0.50240714
839.757	0.50218941
839.935	0.50196605
840.114	0.50175853
840.292	0.50158064
840.471	0.50132156
840.649	0.50098123
840.828	0.50057364
841.006	0.50033972
841.185	0.49983478
841.363	0.4995822
841.541	0.49918517
841.72	0.49895452
841.898	0.49878707
842.076	0.49846272
842.255	0.49820012
842.433	0.49824641
842.611	0.49783601
842.789	0.49763373
842.968	0.49739817
843.146	0.49709181
843.324	0.49696315
843.502	0.49682512
843.68	0.4965933
843.859	0.49630759
844.037	0.49593499
844.215	0.49542396
844.393	0.49500049
844.571	0.49461918
844.749	0.49424669
844.927	0.49376444
845.105	0.49326434
845.283	0.49298611
845.461	0.49273488
845.639	0.49257959
845.817	0.49237245
845.995	0.4922631
846.173	0.49228962
846.351	0.4922527
846.529	0.49210389
846.706	0.49169722
846.884	0.49151174
847.062	0.49099971
847.24	0.49034874
847.418	0.48970474
847.595	0.48932353
847.773	0.48897142
847.951	0.48868143
848.129	0.48820789
848.306	0.48812564
848.484	0.4879759
848.662	0.4879069
848.839	0.48783543
849.017	0.48758639
849.194	0.48739448
849.372	0.48723583
849.549	0.48683528
849.727	0.48656594
849.905	0.48596345
850.082	0.485467
850.26	0.48509951
850.437	0.48465421
850.614	0.48426381
850.792	0.48403233
850.969	0.48386065
851.147	0.48383496
851.324	0.48350983
851.501	0.48319899
851.679	0.48292906
851.856	0.48264992
852.033	0.48244672
852.211	0.48212683
852.388	0.48162953
852.565	0.4816395
852.742	0.48151834
852.92	0.48143071
853.097	0.48133606
853.274	0.48117492
853.451	0.4806422
853.628	0.48027423
853.805	0.47974605
853.982	0.47920451
854.159	0.47858678
854.336	0.47798399
854.514	0.47725382
854.691	0.47691236
854.868	0.4767794
855.045	0.47639509
855.221	0.476182
855.398	0.47604841
855.575	0.47586527
855.752	0.47590716
855.929	0.47586931
856.106	0.47556167
856.283	0.47536226
856.46	0.475221
856.637	0.47524282
856.813	0.47502532
856.99	0.47470385
857.167	0.47437447
857.344	0.47410321
857.52	0.47366847
857.697	0.47305484
857.874	0.47230572
858.05	0.47172839
858.227	0.4711379
858.404	0.47079105
858.58	0.47058445
858.757	0.47040371
858.933	0.47037462
859.11	0.47028356
859.287	0.47000444
859.463	0.46978045
859.64	0.46948381
859.816	0.46906995
859.993	0.46881182
860.169	0.46863042
860.345	0.46832794
860.522	0.4681707
860.698	0.46797337
860.875	0.46780886
861.051	0.46763105
861.227	0.46709724
861.404	0.46653167
861.58	0.46617242
861.756	0.46578853
861.932	0.46557958
862.109	0.46484926
862.285	0.46447908
862.461	0.46427718
862.637	0.46391351
862.813	0.46357603
862.99	0.46324079
863.166	0.46265909
863.342	0.46284762
863.518	0.46238405
863.694	0.46212738
863.87	0.46180192
864.046	0.46139441
864.222	0.46113071
864.398	0.46089913
864.574	0.46010114
864.75	0.45977677
864.926	0.45946875
865.102	0.45927408
865.278	0.45899567
865.454	0.45871519
865.63	0.45822887
865.805	0.45797946
865.981	0.45777727
866.157	0.45748458
866.333	0.45685169
866.509	0.45664165
866.684	0.45625334
866.86	0.45641017
867.036	0.45611503
867.212	0.45572405
867.387	0.45541187
867.563	0.45554681
867.739	0.45528674
867.914	0.45507225
868.09	0.4544016
868.265	0.45406108
868.441	0.45368094
868.617	0.45318642
868.792	0.45266698
868.968	0.45209144
869.143	0.4517224
869.319	0.45156771
869.494	0.4511574
869.67	0.4508503
869.845	0.4505947
870.02	0.4503181
870.196	0.45020992
870.371	0.45000352
870.546	0.4497304
870.722	0.44978195
870.897	0.44964222
871.072	0.44944621
871.248	0.44907243
871.423	0.44858927
871.598	0.44826561
871.773	0.44756642
871.949	0.44701705
872.124	0.44663351
872.299	0.44616818
872.474	0.4458154
872.649	0.44558923
872.824	0.44523669
872.999	0.44518651
873.174	0.44496006
873.349	0.4446896
873.524	0.44446893
873.699	0.44430736
873.874	0.44399682
874.049	0.44366999
874.224	0.44340151
874.399	0.44313736
874.574	0.44298143
874.749	0.44277112
874.924	0.44232734
875.099	0.44196576
875.274	0.44153564
875.449	0.44123244
875.623	0.44076386
875.798	0.44018394
875.973	0.43966624
876.148	0.43924498
876.322	0.43907158
876.497	0.4387049
876.672	0.43837331
876.846	0.43815139
877.021	0.43776928
877.196	0.43719833
877.37	0.43701598
877.545	0.43684464
877.72	0.43663466
877.894	0.43648876
878.069	0.436101
878.243	0.43562706
878.418	0.43577633
878.592	0.43547469
878.767	0.43483234
878.941	0.4346755
879.116	0.43398951
879.29	0.43358289
879.464	0.43325876
879.639	0.43260424
879.813	0.43225208
879.987	0.43188962
880.162	0.43124882
880.336	0.43104588
880.51	0.4308723
880.685	0.43083655
880.859	0.43071778
881.033	0.43036777
881.207	0.42996187
881.381	0.42980664
881.556	0.42947644
881.73	0.42899667
881.904	0.42890918
882.078	0.42853619
882.252	0.42837307
882.426	0.42817252
882.6	0.42792997
882.774	0.42768511
882.948	0.42742507
883.122	0.42670323
883.296	0.42625933
883.47	0.42595739
883.644	0.42592659
883.818	0.42523897
883.992	0.42506577
884.166	0.42499469
884.34	0.42510638
884.514	0.4251974
884.687	0.42497203
884.861	0.42456197
885.035	0.42475221
885.209	0.42449194
885.382	0.42429258
885.556	0.42392075
885.73	0.42363188
885.904	0.42330076
886.077	0.42274393
886.251	0.42216329
886.425	0.42166385
886.598	0.42113474
886.772	0.42035034
886.945	0.41952053
887.119	0.41875463
887.292	0.4184703
887.466	0.41853707
887.64	0.4180554
887.813	0.41780178
887.986	0.41778345
888.16	0.41802258
888.333	0.41801686
888.507	0.41788449
888.68	0.41739519
888.854	0.41732834
889.027	0.41702304
889.2	0.41693621
889.374	0.41627951
889.547	0.41615148
889.72	0.41603481
889.893	0.41582359
890.067	0.41552692
890.24	0.41512351
890.413	0.41441662
890.586	0.41397804
890.759	0.41365928
890.933	0.41330829
891.106	0.41285131
891.279	0.41262905
891.452	0.41241629
891.625	0.41218637
891.798	0.41216667
891.971	0.4119425
892.144	0.41140369
892.317	0.41121983
892.49	0.41065839
892.663	0.41050246
892.836	0.41074074
893.009	0.41054529
893.182	0.40994492
893.355	0.41000284
893.527	0.40962609
893.7	0.40978819
893.873	0.40940945
894.046	0.40858839
894.219	0.40835237
894.391	0.40807459
894.564	0.40765303
894.737	0.40736404
894.91	0.40684739
895.082	0.40652802
895.255	0.40644104
895.428	0.40583834
895.6	0.405538
895.773	0.40503958
895.945	0.40467324
896.118	0.40445906
896.291	0.40432309
896.463	0.40405064
896.636	0.40400728
896.808	0.403919
896.981	0.40387743
897.153	0.40370954
897.326	0.40335556
897.498	0.40284418
897.67	0.40251864
897.843	0.40214277
898.015	0.40201568
898.187	0.40162876
898.36	0.40103204
898.532	0.40056743
898.704	0.40041749
898.877	0.39986957
899.049	0.39969139
899.221	0.3993719
899.393	0.39911212
899.566	0.39928578
899.738	0.3994388
899.91	0.39929124
900.082	0.39921374
900.254	0.39913849
900.426	0.39889675
900.598	0.39866663
900.77	0.39811541
900.942	0.39764356
901.114	0.39716828
901.286	0.39684701
901.458	0.39622106
901.63	0.39581949
901.802	0.39554322
901.974	0.39537556
902.146	0.39504602
902.318	0.39473532
902.49	0.39463363
902.662	0.39433234
902.834	0.3939199
903.005	0.3938011
903.177	0.39347946
903.349	0.3932112
903.521	0.39287787
903.693	0.39248488
903.864	0.39224822
904.036	0.39213717
904.208	0.39140234
904.379	0.39101967
904.551	0.39102504
904.723	0.39089322
904.894	0.39053421
905.066	0.39024588
905.237	0.39010896
905.409	0.3901134
905.58	0.39008313
905.752	0.38952651
905.923	0.38911821
906.095	0.38889716
906.266	0.38859574
906.438	0.38847702
906.609	0.38822679
906.78	0.38780744
906.952	0.38762435
907.123	0.38727414
907.295	0.38717547
907.466	0.38717002
907.637	0.38672934
907.808	0.38646505
907.98	0.38614568
908.151	0.3858397
908.322	0.38582823
908.493	0.38540447
908.665	0.38510665
908.836	0.3846919
909.007	0.38443652
909.178	0.38418572
909.349	0.38388506
909.52	0.38380431
909.691	0.38347552
909.862	0.38309652
910.033	0.38281262
910.204	0.38247616
910.375	0.38243375
910.546	0.38234633
910.717	0.38194026
910.888	0.38202815
911.059	0.38195393
911.23	0.38169632
911.401	0.3814885
911.572	0.38109828
911.742	0.38073246
911.913	0.3806421
912.084	0.38019744
912.255	0.37990697
912.426	0.37959053
912.596	0.37924814
912.767	0.37918961
912.938	0.37910338
913.108	0.37866179
913.279	0.37839791
913.45	0.37803393
913.62	0.37784936
913.791	0.37793578
913.962	0.37756959
914.132	0.37717631
914.303	0.37681209
914.473	0.37659074
914.644	0.37636154
914.814	0.37618271
914.985	0.37573431
915.155	0.3754523
915.326	0.3750859
915.496	0.37484688
915.666	0.37454503
915.837	0.37453181
916.007	0.37407548
916.177	0.37359891
916.348	0.37342504
916.518	0.37335961
916.688	0.37307703
916.858	0.37288079
917.029	0.37220231
917.199	0.37200396
917.369	0.37193338
917.539	0.37171196
917.709	0.37123865
917.88	0.37087948
918.05	0.3701335
918.22	0.36982927
918.39	0.36931306
918.56	0.36902202
918.73	0.36880564
918.9	0.36864688
919.07	0.36852611
919.24	0.36870481
919.41	0.36878726
919.58	0.36860007
919.75	0.36840783
919.92	0.36766926
920.09	0.3675053
920.26	0.3672547
920.429	0.36705905
920.599	0.36675908
920.769	0.36668023
920.939	0.3661286
921.109	0.3660644
921.278	0.36572117
921.448	0.36540136
921.618	0.36519785
921.787	0.36484563
921.957	0.36464075
922.127	0.36425047
922.296	0.36432002
922.466	0.36389598
922.636	0.36382571
922.805	0.36376333
922.975	0.36338109
923.144	0.36311539
923.314	0.36310845
923.483	0.36265049
923.653	0.36241045
923.822	0.3620376
923.992	0.3615385
924.161	0.36140083
924.331	0.36109723
924.5	0.36089866
924.669	0.36041814
924.839	0.36047276
925.008	0.3602277
925.177	0.35975207
925.347	0.359533
925.516	0.35960067
925.685	0.35958267
925.854	0.35963885
926.023	0.3593403
926.193	0.35939777
926.362	0.35916038
926.531	0.35911988
926.7	0.35855411
926.869	0.35851852
927.038	0.35805366
927.207	0.35762856
927.376	0.35709142
927.545	0.35681018
927.715	0.35642481
927.884	0.35628808
928.052	0.35598784
928.221	0.35561249
928.39	0.35519462
928.559	0.35499633
928.728	0.35510883
928.897	0.3552434
929.066	0.35532923
929.235	0.35475993
929.404	0.354687
929.572	0.35460747
929.741	0.35454463
929.91	0.35437111
930.079	0.35377145
930.247	0.35341068
930.416	0.35350233
930.585	0.35344784
930.753	0.35359083
930.922	0.35321254
931.091	0.35309455
931.259	0.35288984
931.428	0.35278649
931.596	0.35230755
931.765	0.35248644
931.934	0.35242785
932.102	0.35172783
932.27	0.35148009
932.439	0.3509162
932.607	0.35057579
932.776	0.35083034
932.944	0.35030543
933.113	0.34992455
933.281	0.3501417
933.449	0.34920225
933.618	0.34898821
933.786	0.34881101
933.954	0.34822882
934.123	0.34765938
934.291	0.34736147
934.459	0.3470585
934.627	0.34760868
934.795	0.34830607
934.964	0.34818127
935.132	0.34752764
935.3	0.34761423
935.468	0.34732711
935.636	0.34756808
935.804	0.34726335
935.972	0.34635964
936.14	0.3458485
936.308	0.34562515
936.476	0.34533221
936.644	0.34528071
936.812	0.34505878
936.98	0.34428311
937.148	0.34416591
937.316	0.34316492
937.484	0.34403182
937.652	0.34315501
937.82	0.34352854
937.987	0.34254527
938.155	0.342456
938.323	0.34281493
938.491	0.34229652
938.658	0.34238924
938.826	0.34244181
938.994	0.34121347
939.162	0.34157178
939.329	0.34215569
939.497	0.3426294
939.665	0.34374281
939.832	0.34482281
940	0.34648259
940.167	0.34612052
940.335	0.34604751
940.502	0.34511474
940.67	0.34434127
940.837	0.34572982
941.005	0.3446319
941.172	0.34338993
941.34	0.3440568
941.507	0.34576706
941.674	0.34867273
941.842	0.34853657
942.009	0.34916488
942.177	0.34581771
942.344	0.34723814
942.511	0.34808648
942.678	0.34943398
942.846	0.34780514
943.013	0.34781932
943.18	0.34745898
943.347	0.35047223
943.514	0.34915608
943.682	0.35117836
943.849	0.34650094
944.016	0.34481317
944.183	0.34511377
944.35	0.34408857
944.517	0.34567043
944.684	0.3490586
944.851	0.34185667
945.018	0.34316363
945.185	0.34359814
945.352	0.34265753
945.519	0.34137106
945.686	0.3381269
945.853	0.33968112
946.02	0.34164655
946.187	0.34172233
946.353	0.34328404
946.52	0.34389765
946.687	0.34341866
946.854	0.34511224
947.021	0.34183758
947.187	0.34192499
947.354	0.33944543
947.521	0.3371043
947.687	0.33436142
947.854	0.33512282
948.021	0.33248805
948.187	0.3312455
948.354	0.33085803
948.52	0.3311579
948.687	0.33339039
948.854	0.33495434
949.02	0.33290211
949.187	0.33400911
949.353	0.33460011
949.52	0.33316751
949.686	0.33468407
949.852	0.33422433
950.019	0.33523325
950.185	0.33605253
950.352	0.33401746
950.518	0.33239627
950.684	0.33370182
950.851	0.33259392
951.017	0.33110038
951.183	0.32920052
951.349	0.32830102
951.516	0.32702981
951.682	0.32672451
951.848	0.32500667
952.014	0.32373291
952.18	0.3238094
952.346	0.32408781
952.512	0.32480426
952.679	0.32704417
952.845	0.32723993
953.011	0.32822604
953.177	0.32912313
953.343	0.327129
953.509	0.32769491
953.675	0.32650726
953.841	0.32494928
954.007	0.32592578
954.172	0.32691352
954.338	0.3254789
954.504	0.32477866
954.67	0.32184837
954.836	0.32287242
955.002	0.32338198
955.167	0.32164734
955.333	0.31874079
955.499	0.31919686
955.665	0.31941961
955.83	0.32080021
955.996	0.32028803
956.162	0.3194878
956.327	0.31900971
956.493	0.31915928
956.659	0.31984192
956.824	0.31943542
956.99	0.31850093
957.155	0.318181
957.321	0.31848553
957.486	0.3185823
957.652	0.31847536
957.817	0.31851109
957.983	0.31833314
958.148	0.31808559
958.314	0.31718914
958.479	0.31527312
958.644	0.31578948
958.81	0.31605765
958.975	0.31556293
959.14	0.31539339
959.306	0.31533416
959.471	0.31518191
959.636	0.31507191
959.801	0.31574789
959.967	0.31505345
960.132	0.31423815
960.297	0.31391634
960.462	0.3145311
960.627	0.31432877
960.792	0.31405683
960.957	0.31299934
961.123	0.31409592
961.288	0.31386982
961.453	0.31431265
961.618	0.31364489
961.783	0.31391339
961.948	0.31382749
962.113	0.31274737
962.277	0.31143313
962.442	0.31132095
962.607	0.31094702
962.772	0.31064827
962.937	0.30940497
963.102	0.30976987
963.267	0.31008758
963.431	0.30974645
963.596	0.30913938
963.761	0.3084431
963.926	0.30818051
964.09	0.30870287
964.255	0.30904426
964.42	0.30876691
964.584	0.30962
964.749	0.30874767
964.914	0.30874573
965.078	0.30789211
965.243	0.30702435
965.407	0.30584095
965.572	0.304705
965.736	0.30422326
965.901	0.30524505
966.065	0.30624978
966.23	0.30585012
966.394	0.306361
966.559	0.30679711
966.723	0.30691218
966.887	0.3063951
967.052	0.30581074
967.216	0.30419474
967.38	0.30356539
967.545	0.30335013
967.709	0.30364979
967.873	0.30458841
968.037	0.30401756
968.202	0.30413433
968.366	0.30493676
968.53	0.30585384
968.694	0.3050997
968.858	0.30409082
969.022	0.302594
969.187	0.3021654
969.351	0.30163366
969.515	0.30087685
969.679	0.30010635
969.843	0.29949239
970.007	0.29862556
970.171	0.29949715
970.335	0.30069962
970.499	0.30049397
970.662	0.30059859
970.826	0.30049993
970.99	0.30126811
971.154	0.30214214
971.318	0.30129964
971.482	0.29946573
971.645	0.29986931
971.809	0.30060076
971.973	0.30080626
972.137	0.30070891
972.3	0.30017217
972.464	0.30070211
972.628	0.30235913
972.791	0.30280224
972.955	0.30183363
973.119	0.30163503
973.282	0.30151194
973.446	0.30173291
973.609	0.30112894
973.773	0.29981941
973.936	0.29802751
974.1	0.29735199
974.263	0.29706531
974.427	0.29662243
974.59	0.29625708
974.754	0.29591539
974.917	0.29560396
975.08	0.29643428
975.244	0.29592941
975.407	0.29574747
975.57	0.29548899
975.734	0.29453579
975.897	0.29469625
976.06	0.29535425
976.223	0.29511846
976.387	0.29620257
976.55	0.2960962
976.713	0.29587552
976.876	0.29655169
977.039	0.29561921
977.202	0.29473812
977.365	0.29396315
977.528	0.293415
977.692	0.29354012
977.855	0.29260031
978.018	0.29217924
978.181	0.29219619
978.344	0.29215825
978.506	0.29150615
978.669	0.29106078
978.832	0.28952592
978.995	0.289458
979.158	0.29003235
979.321	0.28998498
979.484	0.28939835
979.646	0.28984218
979.809	0.29015089
979.972	0.29040365
980.135	0.29171597
980.297	0.29051125
980.46	0.28954626
980.623	0.29045079
980.786	0.2899914
980.948	0.28949232
981.111	0.28937277
981.273	0.28842438
981.436	0.28855813
981.599	0.28923805
981.761	0.28732095
981.924	0.28794143
982.086	0.28706064
982.249	0.28773485
982.411	0.28732719
982.573	0.28735211
982.736	0.28806712
982.898	0.28909278
983.061	0.28898084
983.223	0.28897342
983.385	0.28790089
983.548	0.28861091
983.71	0.28811971
983.872	0.2871646
984.034	0.28715415
984.197	0.28571868
984.359	0.28577636
984.521	0.2873142
984.683	0.28753855
984.845	0.28795568
985.008	0.28704181
985.17	0.2878781
985.332	0.28892609
985.494	0.2882547
985.656	0.28730856
985.818	0.28623111
985.98	0.2865641
986.142	0.28549459
986.304	0.28354269
986.466	0.28214259
986.628	0.28264922
986.79	0.2822938
986.952	0.28183477
987.113	0.28107865
987.275	0.28141318
987.437	0.28199211
987.599	0.28276075
987.761	0.28307199
987.922	0.28267391
988.084	0.28322382
988.246	0.28271925
988.408	0.28413908
988.569	0.28383995
988.731	0.28434979
988.893	0.28404075
989.054	0.28548904
989.216	0.28485527
989.377	0.28378702
989.539	0.28243335
989.701	0.28140563
989.862	0.27980206
990.024	0.27792302
990.185	0.27609376
990.347	0.27660809
990.508	0.27726295
990.669	0.27846583
990.831	0.2791365
990.992	0.28102898
991.154	0.28155319
991.315	0.28344684
991.476	0.28307458
991.638	0.28294045
991.799	0.28189065
991.96	0.2818791
992.121	0.2814636
992.283	0.28181153
992.444	0.28136789
992.605	0.28013364
992.766	0.28011765
992.927	0.2793906
993.088	0.27941539
993.249	0.27792376
993.41	0.27716712
993.572	0.27585897
993.733	0.27664404
993.894	0.27568676
994.055	0.27388419
994.216	0.27356567
994.376	0.27141819
994.537	0.27293042
994.698	0.27283156
994.859	0.27188362
995.02	0.27171308
995.181	0.27142951
995.342	0.27150885
995.503	0.2727634
995.663	0.27166992
995.824	0.27007012
995.985	0.27240363
996.146	0.27344504
996.306	0.27514333
996.467	0.27538076
996.628	0.27793272
996.788	0.27770688
996.949	0.28055107
997.11	0.27791039
997.27	0.2764287
997.431	0.27583034
997.591	0.2731226
997.752	0.26849375
997.912	0.26966131
998.073	0.26766988
998.233	0.26999595
998.394	0.27072363
998.554	0.2723673
998.714	0.27370259
998.875	0.27517929
999.035	0.2727462
999.196	0.27261724
999.356	0.27052917
999.516	0.27148117
999.676	0.27210337
999.837	0.27328242
999.997	0.2724294
1000.157	0.27285426
1000.317	0.26988666
1000.477	0.26856354
1000.638	0.26518658
1000.798	0.26580774
1000.958	0.26556755
1001.118	0.26648633
1001.278	0.26725614
1001.438	0.26947318
1001.598	0.27015521
1001.758	0.27257232
1001.918	0.27081706
1002.078	0.26747344
1002.238	0.26718245
1002.398	0.26675902
1002.558	0.26565206
1002.718	0.2657136
1002.878	0.26543231
1003.037	0.260186
1003.197	0.26237539
1003.357	0.26077275
1003.517	0.26339754
1003.677	0.26193519
1003.836	0.26095043
1003.996	0.25982164
1004.156	0.26173142
1004.315	0.2621903
1004.475	0.26476222
1004.635	0.26428746
1004.794	0.26774096
1004.954	0.26843178
1005.114	0.26894828
1005.273	0.27272078
1005.433	0.27000605
1005.592	0.27021062
1005.752	0.26791697
1005.911	0.26632006
1006.071	0.26745372
1006.23	0.26624487
1006.389	0.26460512
1006.549	0.26644494
1006.708	0.26489216
1006.868	0.26180244
1007.027	0.26286556
1007.186	0.26373533
1007.345	0.26812725
1007.505	0.26879763
1007.664	0.27096464
1007.823	0.27077826
1007.982	0.27332011
1008.142	0.27386885
1008.301	0.27165617
1008.46	0.26894614
1008.619	0.26499418
1008.778	0.26193641
1008.937	0.26197404
1009.096	0.2613858
1009.255	0.26109734
1009.414	0.25615688
1009.573	0.25612263
1009.732	0.26192672
1009.891	0.26053584
1010.05	0.26332205
1010.209	0.26230454
1010.368	0.26066781
1010.527	0.26320606
1010.686	0.26373212
1010.845	0.25791717
1011.003	0.26056938
1011.162	0.25846372
1011.321	0.2544046
1011.48	0.25855743
1011.638	0.2598808
1011.797	0.26120116
1011.956	0.26173841
1012.115	0.26109893
1012.273	0.25918449
1012.432	0.26226795
1012.59	0.25646748
1012.749	0.25815475
1012.908	0.25283076
1013.066	0.25642581
1013.225	0.25430147
1013.383	0.25771656
1013.542	0.25799852
1013.7	0.2585344
1013.859	0.26177966
1014.017	0.26443661
1014.175	0.25922695
1014.334	0.26369661
1014.492	0.2635395
1014.65	0.26646961
1014.809	0.27088715
1014.967	0.26524564
1015.125	0.26762128
1015.284	0.27821837
1015.442	0.27393149
1015.6	0.27016695
1015.758	0.26713046
1015.916	0.26124949
1016.075	0.25967275
1016.233	0.25599262
1016.391	0.25336891
1016.549	0.25625693
1016.707	0.25792494
1016.865	0.26214687
1017.023	0.25937445
1017.181	0.26014619
1017.339	0.26177905
1017.497	0.25827841
1017.655	0.25478618
1017.813	0.25592449
1017.971	0.25353545
1018.129	0.25939211
1018.286	0.26128831
1018.444	0.25434839
1018.602	0.25527261
1018.76	0.25641592
1018.918	0.25487594
1019.075	0.25647425
1019.233	0.25466575
1019.391	0.2567099
1019.549	0.2621752
1019.706	0.25862245
1019.864	0.25851584
1020.022	0.25780113
1020.179	0.25732939
1020.337	0.25263128
1020.494	0.24743708
1020.652	0.2461934
1020.809	0.2458438
1020.967	0.24216759
1021.124	0.24089429
1021.282	0.24770162
1021.439	0.2522926
1021.597	0.25600044
1021.754	0.25565132
1021.911	0.26388079
1022.069	0.26432356
1022.226	0.26212694
1022.384	0.24913421
1022.541	0.24915382
1022.698	0.24521736
1022.855	0.24890511
1023.013	0.24580495
1023.17	0.24856232
1023.327	0.25597213
1023.484	0.2627656
1023.641	0.26516702
1023.798	0.27985775
1023.956	0.28555602
1024.113	0.2786856
1024.27	0.27546387
1024.427	0.27510686
1024.584	0.27507985
1024.741	0.27096038
1024.898	0.25756939
1025.055	0.24691711
1025.212	0.24432122
1025.369	0.23646322
1025.525	0.23314564
1025.682	0.23139911
1025.839	0.23347668
1025.996	0.2428305
1026.153	0.25145271
1026.31	0.26400651
1026.466	0.28375475
1026.623	0.29634968
1026.78	0.29803448
1026.937	0.296735
1027.093	0.28610669
1027.25	0.29527073
1027.407	0.28573113
1027.563	0.28060513
1027.72	0.2644291
1027.876	0.25810747
1028.033	0.2601178
1028.19	0.2671803
1028.346	0.25110713
1028.503	0.25347633
1028.659	0.2562587
1028.816	0.26793732
1028.972	0.28435921
1029.128	0.29523443
1029.285	0.28954837
1029.441	0.29090089
1029.598	0.27638028
1029.754	0.27959389
1029.91	0.27369788
1030.067	0.25946306
1030.223	0.25698106
1030.379	0.25808371
1030.535	0.26705146
1030.691	0.27839536
1030.848	0.27742254
1031.004	0.2755925
1031.16	0.29396547
1031.316	0.30003971
1031.472	0.30738048
1031.628	0.30542486
1031.784	0.30483521
1031.94	0.3029165
1032.096	0.31195337
1032.252	0.30454456
1032.408	0.30839675
1032.564	0.30274676
1032.72	0.30569075
1032.876	0.30385932
1033.032	0.30044494
1033.188	0.30080492
1033.344	0.3039419
1033.5	0.30006967
1033.655	0.30205053
1033.811	0.30201303
1033.967	0.32718439
