Data from 0_1_mm_pl_80pc_Absorbance__0__15-55-04-317.txt Node

Date: Fri Feb 24 15:55:04 CET 2023
User: Ange
Spectrometer: FLMT08341
Trigger mode: 0
Integration Time (sec): 1.000000E-2
Scans to average: 400
Electric dark correction enabled: true
Nonlinearity correction enabled: false
Boxcar width: 3
XAxis mode: Wavelengths
Number of Pixels in Spectrum: 3648
>>>>>Begin Spectral Data<<<<<
345.271	0.0068761
345.487	0.01306112
345.704	-0.00094551
345.921	0.00366518
346.137	-0.01716823
346.354	-0.02072922
346.571	-0.01390559
346.787	-0.0986098
347.004	0.01631154
347.22	-0.04416783
347.437	-0.01686486
347.653	-0.38327989
347.87	-0
348.086	-0
348.303	-0
348.519	0.55847967
348.736	0.52879653
348.952	0.52129695
349.169	0.53200542
349.385	0.55671575
349.601	0.55480628
349.818	0.54860416
350.034	0.54071366
350.251	0.53650005
350.467	0.54575599
350.683	0.5308908
350.9	0.53017776
351.116	0.52302916
351.332	0.51764402
351.549	0.53286685
351.765	0.55081066
351.981	0.55307292
352.197	0.57401957
352.414	0.59853875
352.63	0.62219638
352.846	0.64042031
353.062	0.62999194
353.278	0.61447965
353.495	0.63491337
353.711	0.63715474
353.927	0.63535415
354.143	0.62728114
354.359	0.61902441
354.575	0.61847541
354.792	0.63954625
355.008	0.62664553
355.224	0.61911915
355.44	0.61514413
355.656	0.61315927
355.872	0.62724606
356.088	0.66660611
356.304	0.66881149
356.52	0.66878908
356.736	0.68049883
356.952	0.68432155
357.168	0.6904828
357.384	0.69783539
357.6	0.66651584
357.816	0.67928087
358.032	0.69836828
358.248	0.71911207
358.464	0.72117688
358.679	0.73677588
358.895	0.73344498
359.111	0.75699332
359.327	0.73730429
359.543	0.74060019
359.759	0.74683789
359.974	0.74891446
360.19	0.73940525
360.406	0.74274864
360.622	0.73526588
360.838	0.73382592
361.053	0.7398806
361.269	0.74038933
361.485	0.74561963
361.701	0.75575172
361.916	0.74281295
362.132	0.74516767
362.348	0.75390833
362.563	0.75435045
362.779	0.74773511
362.995	0.7527781
363.21	0.76248716
363.426	0.77680683
363.641	0.77990037
363.857	0.78864361
364.073	0.78281825
364.288	0.77502947
364.504	0.78903081
364.719	0.79076614
364.935	0.78883666
365.15	0.79497373
365.366	0.79741758
365.581	0.81454972
365.797	0.821574
366.012	0.8091098
366.228	0.79573589
366.443	0.81314652
366.658	0.81604362
366.874	0.80747436
367.089	0.81429946
367.305	0.82531584
367.52	0.82925876
367.735	0.83311902
367.951	0.81930025
368.166	0.82262314
368.381	0.8424376
368.597	0.8278691
368.812	0.83342117
369.027	0.84429201
369.243	0.85355915
369.458	0.88469586
369.673	0.88917313
369.888	0.88648272
370.104	0.8856739
370.319	0.88989799
370.534	0.88346003
370.749	0.8858962
370.964	0.88280318
371.179	0.88078861
371.395	0.87359291
371.61	0.88866795
371.825	0.87767853
372.04	0.8842834
372.255	0.87783602
372.47	0.86728092
372.685	0.86114715
372.9	0.8624899
373.115	0.85499263
373.33	0.8630127
373.545	0.86427251
373.76	0.87189736
373.975	0.86752231
374.19	0.86276983
374.405	0.86823215
374.62	0.88334453
374.835	0.89653376
375.05	0.89729278
375.265	0.89934985
375.48	0.90762998
375.695	0.93727942
375.91	0.93240021
376.125	0.91243648
376.339	0.89681387
376.554	0.89585236
376.769	0.89911668
376.984	0.89670731
377.199	0.89594138
377.414	0.89711789
377.628	0.91482543
377.843	0.92327734
378.058	0.93161758
378.273	0.93910794
378.487	0.94483684
378.702	0.94589821
378.917	0.94769384
379.131	0.93691036
379.346	0.92556323
379.561	0.91647988
379.775	0.90999047
379.99	0.90030055
380.205	0.88662772
380.419	0.87538257
380.634	0.86385488
380.848	0.87074609
381.063	0.87205384
381.278	0.87842867
381.492	0.87652354
381.707	0.88739134
381.921	0.89067687
382.136	0.9090378
382.35	0.90352608
382.565	0.89776931
382.779	0.89732795
382.994	0.89918723
383.208	0.88747308
383.422	0.89908013
383.637	0.89405359
383.851	0.90384453
384.066	0.91084453
384.28	0.91151277
384.494	0.91336782
384.709	0.92149238
384.923	0.91841095
385.137	0.90904836
385.352	0.90372696
385.566	0.90515523
385.78	0.90047192
385.995	0.8964987
386.209	0.89153999
386.423	0.89522743
386.637	0.90336274
386.852	0.89506458
387.066	0.89130537
387.28	0.88167433
387.494	0.88773717
387.708	0.8883284
387.923	0.8822317
388.137	0.88440701
388.351	0.88918839
388.565	0.89232734
388.779	0.89915806
388.993	0.90538132
389.207	0.90476245
389.421	0.90438722
389.635	0.89331662
389.85	0.88939956
390.064	0.88658281
390.278	0.88463216
390.492	0.88054633
390.706	0.88158039
390.92	0.88117148
391.134	0.88972344
391.348	0.8988754
391.561	0.89307751
391.775	0.88811713
391.989	0.87852219
392.203	0.87678605
392.417	0.87700282
392.631	0.87963657
392.845	0.86970018
393.059	0.87529623
393.273	0.87367426
393.486	0.86828706
393.7	0.85877253
393.914	0.8588069
394.128	0.84991138
394.342	0.84635414
394.555	0.8330538
394.769	0.83139219
394.983	0.8345866
395.197	0.83784949
395.41	0.83391363
395.624	0.83318112
395.838	0.83042264
396.051	0.84022484
396.265	0.83464716
396.479	0.83225347
396.692	0.828324
396.906	0.82227032
397.12	0.81688824
397.333	0.81896036
397.547	0.81217278
397.76	0.81518786
397.974	0.81320394
398.187	0.81302174
398.401	0.8147629
398.614	0.81432173
398.828	0.81067985
399.041	0.80929364
399.255	0.80407745
399.468	0.80112468
399.682	0.79737647
399.895	0.79520587
400.109	0.79096053
400.322	0.78653336
400.536	0.77827438
400.749	0.77975702
400.962	0.77836519
401.176	0.77441584
401.389	0.76982908
401.602	0.76311781
401.816	0.76267756
402.029	0.76571647
402.242	0.75973912
402.456	0.7557015
402.669	0.75006387
402.882	0.74254791
403.095	0.74603825
403.309	0.7417588
403.522	0.73852692
403.735	0.73554727
403.948	0.73283411
404.161	0.7379004
404.375	0.7378248
404.588	0.73458786
404.801	0.73294826
405.014	0.72681399
405.227	0.72819674
405.44	0.72759709
405.653	0.72465552
405.866	0.71972397
406.079	0.71548
406.293	0.71173533
406.506	0.71064196
406.719	0.70520187
406.932	0.70075554
407.145	0.69468498
407.358	0.69692239
407.571	0.69308517
407.784	0.69132361
407.996	0.68964442
408.209	0.68561243
408.422	0.68179906
408.635	0.68109556
408.848	0.6781976
409.061	0.67358858
409.274	0.67007551
409.487	0.6658799
409.7	0.66432313
409.912	0.66385759
410.125	0.66039407
410.338	0.65717147
410.551	0.65533126
410.764	0.65262435
410.976	0.65067607
411.189	0.64797362
411.402	0.64402083
411.615	0.64240691
411.827	0.64065472
412.04	0.63936819
412.253	0.6369114
412.465	0.63393921
412.678	0.63074447
412.891	0.63004472
413.103	0.62437942
413.316	0.62063999
413.529	0.6197337
413.741	0.61850099
413.954	0.61701868
414.166	0.61506315
414.379	0.61130445
414.591	0.61109182
414.804	0.60790421
415.016	0.60454202
415.229	0.60132661
415.441	0.59811372
415.654	0.59683652
415.866	0.59443302
416.079	0.59252357
416.291	0.59050865
416.504	0.59005416
416.716	0.5881985
416.928	0.58625719
417.141	0.58284599
417.353	0.58181062
417.566	0.57833313
417.778	0.57666754
417.99	0.57141861
418.203	0.56804292
418.415	0.56578113
418.627	0.56445792
418.839	0.56156213
419.052	0.56164017
419.264	0.5595423
419.476	0.5589779
419.688	0.55786613
419.901	0.55580284
420.113	0.55290515
420.325	0.55075683
420.537	0.54704873
420.749	0.54542718
420.961	0.54381941
421.174	0.54163589
421.386	0.53914181
421.598	0.53708156
421.81	0.535092
422.022	0.53288644
422.234	0.53092121
422.446	0.52817128
422.658	0.52622162
422.87	0.52498323
423.082	0.52390401
423.294	0.52171827
423.506	0.52019179
423.718	0.51793583
423.93	0.51559876
424.142	0.51305982
424.354	0.50998175
424.566	0.50711633
424.778	0.50564094
424.99	0.50345176
425.202	0.50101751
425.414	0.49970827
425.625	0.4986149
425.837	0.49658289
426.049	0.49587316
426.261	0.49394645
426.473	0.49163269
426.684	0.48969338
426.896	0.48818811
427.108	0.4858296
427.32	0.4854906
427.531	0.48292494
427.743	0.48099361
427.955	0.48043979
428.167	0.47875452
428.378	0.47676093
428.59	0.47526917
428.802	0.47315483
429.013	0.47137537
429.225	0.46951187
429.436	0.46712313
429.648	0.46618023
429.86	0.46494069
430.071	0.46360149
430.283	0.46204329
430.494	0.46062697
430.706	0.45917465
430.917	0.45765949
431.129	0.45603322
431.34	0.45409213
431.552	0.45287035
431.763	0.45103246
431.975	0.45005175
432.186	0.44817834
432.398	0.4469835
432.609	0.44463297
432.821	0.44317104
433.032	0.44145953
433.243	0.43976797
433.455	0.4381736
433.666	0.43724202
433.877	0.43634275
434.089	0.43486291
434.3	0.43310636
434.511	0.43108343
434.723	0.43001567
434.934	0.42795386
435.145	0.42567957
435.356	0.42349937
435.568	0.42246386
435.779	0.4211602
435.99	0.41953733
436.201	0.41780527
436.412	0.41638002
436.624	0.41551687
436.835	0.41421801
437.046	0.41322305
437.257	0.41183333
437.468	0.41118123
437.679	0.41035689
437.89	0.40899616
438.101	0.40810193
438.312	0.40685944
438.523	0.40529026
438.734	0.40410278
438.945	0.40260552
439.156	0.40078305
439.367	0.39978359
439.578	0.39863696
439.789	0.39695065
440	0.39568851
440.211	0.39436284
440.422	0.39330274
440.633	0.39236278
440.844	0.39084235
441.055	0.38930791
441.266	0.38855553
441.477	0.38717176
441.687	0.38607576
441.898	0.38507393
442.109	0.38368869
442.32	0.38265983
442.531	0.38094987
442.741	0.37914055
442.952	0.37815373
443.163	0.37675018
443.374	0.37504675
443.584	0.37366374
443.795	0.37281702
444.006	0.37203372
444.216	0.37106124
444.427	0.36940081
444.638	0.36818123
444.848	0.36705832
445.059	0.3661176
445.27	0.36444466
445.48	0.36304956
445.691	0.3620515
445.901	0.36129389
446.112	0.36021207
446.323	0.35870094
446.533	0.35744481
446.744	0.35621123
446.954	0.3550185
447.165	0.3540393
447.375	0.3532354
447.586	0.35255847
447.796	0.35198609
448.006	0.35097361
448.217	0.35037429
448.427	0.34944182
448.638	0.34811946
448.848	0.34649707
449.058	0.34501765
449.269	0.34391985
449.479	0.34281212
449.689	0.3415832
449.9	0.34056602
450.11	0.33957187
450.32	0.3388765
450.531	0.33789811
450.741	0.33678549
450.951	0.33597816
451.161	0.33478507
451.372	0.33387235
451.582	0.33345721
451.792	0.33244554
452.002	0.33147971
452.212	0.33044971
452.422	0.32943608
452.633	0.32846365
452.843	0.32773244
453.053	0.32602956
453.263	0.32513262
453.473	0.32412805
453.683	0.32354697
453.893	0.32236656
454.103	0.32188812
454.313	0.32080294
454.523	0.32006281
454.733	0.3191179
454.943	0.3183634
455.153	0.31733666
455.363	0.31649673
455.573	0.31547275
455.783	0.31474614
455.993	0.31394719
456.203	0.31331004
456.413	0.31249293
456.623	0.31139141
456.833	0.31102292
457.042	0.31002601
457.252	0.30904817
457.462	0.30806021
457.672	0.30719526
457.882	0.30637893
458.091	0.30557904
458.301	0.30426353
458.511	0.3034309
458.721	0.30267023
458.931	0.30188109
459.14	0.30091026
459.35	0.30015844
459.56	0.29940575
459.769	0.29892687
459.979	0.29794118
460.189	0.29698962
460.398	0.29628124
460.608	0.29558664
460.817	0.2947473
461.027	0.2941049
461.237	0.2930862
461.446	0.29254192
461.656	0.29194417
461.865	0.29121487
462.075	0.29051429
462.284	0.28989215
462.494	0.28915579
462.703	0.28844473
462.913	0.28758543
463.122	0.28680949
463.332	0.28596609
463.541	0.28524508
463.751	0.28439811
463.96	0.28365052
464.169	0.28280482
464.379	0.2825152
464.588	0.28182341
464.797	0.28121404
465.007	0.2805183
465.216	0.27985559
465.425	0.27935573
465.635	0.27903176
465.844	0.27813764
466.053	0.2775116
466.263	0.27695951
466.472	0.27633689
466.681	0.27586048
466.89	0.27501687
467.099	0.27439103
467.309	0.27391751
467.518	0.27361097
467.727	0.27316842
467.936	0.27248906
468.145	0.27192856
468.354	0.27147723
468.563	0.27084416
468.772	0.27018681
468.982	0.2694469
469.191	0.26899693
469.4	0.26854468
469.609	0.26797622
469.818	0.2676661
470.027	0.26728125
470.236	0.26669017
470.445	0.26617394
470.654	0.26536557
470.863	0.26474641
471.072	0.26427738
471.28	0.26351296
471.489	0.26298445
471.698	0.2625011
471.907	0.26207008
472.116	0.26176668
472.325	0.26137039
472.534	0.26096737
472.743	0.26047059
472.951	0.26016507
473.16	0.25985119
473.369	0.25934097
473.578	0.25886483
473.786	0.25853578
473.995	0.25799785
474.204	0.25765959
474.413	0.25703457
474.621	0.25659836
474.83	0.25638887
475.039	0.25590584
475.247	0.25561232
475.456	0.25531615
475.665	0.25511415
475.873	0.25483011
476.082	0.25442939
476.291	0.25392053
476.499	0.25372358
476.708	0.25314371
476.916	0.25267082
477.125	0.25220455
477.333	0.25184803
477.542	0.25150336
477.75	0.25106341
477.959	0.25066478
478.167	0.25035379
478.376	0.25006231
478.584	0.24970804
478.793	0.24924114
479.001	0.24898039
479.209	0.24866704
479.418	0.24829272
479.626	0.24792204
479.834	0.24758508
480.043	0.24731563
480.251	0.24706639
480.459	0.24664304
480.668	0.24639893
480.876	0.24617229
481.084	0.24597636
481.293	0.24568942
481.501	0.24533024
481.709	0.24509411
481.917	0.24486532
482.125	0.24460213
482.334	0.24431344
482.542	0.24407076
482.75	0.24383547
482.958	0.24374422
483.166	0.24353129
483.374	0.24335833
483.583	0.24322114
483.791	0.24305559
483.999	0.24273114
484.207	0.24259456
484.415	0.24231184
484.623	0.2420971
484.831	0.24184361
485.039	0.2416896
485.247	0.24157293
485.455	0.24145379
485.663	0.24128436
485.871	0.24113263
486.079	0.24092613
486.287	0.24081662
486.495	0.24055685
486.702	0.24028019
486.91	0.24018731
487.118	0.23992349
487.326	0.23974076
487.534	0.23957014
487.742	0.23937344
487.95	0.23918107
488.157	0.2390818
488.365	0.23896009
488.573	0.23885554
488.781	0.23873905
488.988	0.23873185
489.196	0.23866045
489.404	0.23859781
489.612	0.23841015
489.819	0.23830778
490.027	0.23827027
490.235	0.23811597
490.442	0.23797188
490.65	0.23787164
490.857	0.23786167
491.065	0.23782205
491.273	0.23778679
491.48	0.2377056
491.688	0.2376587
491.895	0.23761306
492.103	0.23755902
492.31	0.23748672
492.518	0.23744528
492.725	0.23735844
492.933	0.23730647
493.14	0.23726999
493.348	0.23719719
493.555	0.2371807
493.763	0.23708196
493.97	0.2370336
494.177	0.23697782
494.385	0.23703386
494.592	0.23707666
494.8	0.2369925
495.007	0.23701906
495.214	0.23710413
495.422	0.23715569
495.629	0.23726624
495.836	0.23718325
496.043	0.23723461
496.251	0.23738284
496.458	0.23739154
496.665	0.23740301
496.872	0.23735756
497.08	0.23737438
497.287	0.23745098
497.494	0.23743134
497.701	0.23749454
497.908	0.23751577
498.115	0.23755591
498.322	0.23760563
498.53	0.23758293
498.737	0.2376059
498.944	0.23766279
499.151	0.23768007
499.358	0.23779698
499.565	0.23788067
499.772	0.23805997
499.979	0.2382104
500.186	0.23835505
500.393	0.23844093
500.6	0.23849624
500.807	0.23853725
501.014	0.23863202
501.221	0.23871407
501.427	0.23875012
501.634	0.23892202
501.841	0.23897893
502.048	0.23908383
502.255	0.23915652
502.462	0.2392815
502.669	0.23939719
502.875	0.23954982
503.082	0.23950164
503.289	0.23966545
503.496	0.23981888
503.702	0.23997909
503.909	0.24011408
504.116	0.2402048
504.323	0.24035013
504.529	0.24058937
504.736	0.24077615
504.943	0.24092409
505.149	0.24105539
505.356	0.24122947
505.563	0.24140222
505.769	0.24153288
505.976	0.24164916
506.182	0.2418628
506.389	0.24202445
506.595	0.2422895
506.802	0.24246042
507.008	0.24263495
507.215	0.24282081
507.421	0.24301258
507.628	0.2431509
507.834	0.24336404
508.041	0.24353528
508.247	0.243687
508.454	0.24393213
508.66	0.2441132
508.866	0.24427468
509.073	0.2444734
509.279	0.24470159
509.486	0.24496931
509.692	0.24518418
509.898	0.24536314
510.105	0.24562249
510.311	0.2459027
510.517	0.24612997
510.723	0.24636098
510.93	0.24657341
511.136	0.24688641
511.342	0.24716221
511.548	0.24745865
511.754	0.24773627
511.961	0.24796712
512.167	0.24813797
512.373	0.24832233
512.579	0.24852037
512.785	0.24874377
512.991	0.24894739
513.197	0.24917266
513.404	0.24947361
513.61	0.24985358
513.816	0.25014563
514.022	0.25048293
514.228	0.25082147
514.434	0.25111237
514.64	0.25147498
514.846	0.25179781
515.052	0.25207471
515.258	0.25238239
515.464	0.25261569
515.669	0.25283675
515.875	0.25310887
516.081	0.25338481
516.287	0.25365788
516.493	0.25392985
516.699	0.25417143
516.905	0.25447206
517.111	0.25483513
517.316	0.25522018
517.522	0.25555375
517.728	0.25590947
517.934	0.25622674
518.139	0.25661701
518.345	0.2569298
518.551	0.25723389
518.757	0.25753141
518.962	0.25781692
519.168	0.25812514
519.374	0.25844821
519.579	0.25880814
519.785	0.25921009
519.991	0.25955166
520.196	0.25983174
520.402	0.26012261
520.607	0.26043275
520.813	0.26079632
521.018	0.26109322
521.224	0.26133174
521.429	0.26171809
521.635	0.26208924
521.84	0.26242613
522.046	0.26282441
522.251	0.2631071
522.457	0.26338556
522.662	0.26382548
522.868	0.26417902
523.073	0.26451734
523.279	0.2648954
523.484	0.26513675
523.689	0.26554517
523.895	0.26594386
524.1	0.26625865
524.305	0.26656443
524.511	0.26691938
524.716	0.26729325
524.921	0.2677037
525.126	0.26803624
525.332	0.26838042
525.537	0.26871041
525.742	0.26910408
525.947	0.26958586
526.153	0.2699465
526.358	0.27038755
526.563	0.27073515
526.768	0.27118315
526.973	0.27157485
527.178	0.27198007
527.383	0.27220416
527.588	0.27263171
527.794	0.27297464
527.999	0.27346035
528.204	0.27383218
528.409	0.27419462
528.614	0.27457707
528.819	0.27498433
529.024	0.27529017
529.229	0.27562521
529.434	0.27593573
529.639	0.27627622
529.843	0.27671128
530.048	0.27703517
530.253	0.27741304
530.458	0.27790457
530.663	0.27828958
530.868	0.27878148
531.073	0.27915008
531.278	0.27951989
531.482	0.27994942
531.687	0.28037176
531.892	0.28067013
532.097	0.28110175
532.302	0.28141366
532.506	0.28183889
532.711	0.28225513
532.916	0.28257417
533.12	0.28291492
533.325	0.28334092
533.53	0.28374799
533.734	0.28421464
533.939	0.2845859
534.144	0.28495821
534.348	0.28539659
534.553	0.28587201
534.757	0.28624814
534.962	0.28665783
535.167	0.28705031
535.371	0.28742261
535.576	0.28785223
535.78	0.28830814
535.985	0.28872125
536.189	0.28917105
536.394	0.28963546
536.598	0.28999242
536.803	0.2904727
537.007	0.29082192
537.211	0.29120371
537.416	0.2916332
537.62	0.29200195
537.825	0.29237346
538.029	0.29287092
538.233	0.2932803
538.438	0.29378748
538.642	0.29415936
538.846	0.29454823
539.05	0.29495802
539.255	0.29530461
539.459	0.29559341
539.663	0.29600061
539.867	0.29636029
540.072	0.29675787
540.276	0.29717314
540.48	0.29762592
540.684	0.29805827
540.888	0.29853494
541.092	0.29893082
541.297	0.29928292
541.501	0.29969624
541.705	0.30004715
541.909	0.30041122
542.113	0.30070642
542.317	0.30109616
542.521	0.30149791
542.725	0.30202157
542.929	0.30246178
543.133	0.30289618
543.337	0.30335844
543.541	0.30383801
543.745	0.30416059
543.949	0.30453208
544.153	0.30478336
544.357	0.30512223
544.56	0.3054932
544.764	0.30583142
544.968	0.30616302
545.172	0.3065184
545.376	0.30693007
545.58	0.30739538
545.783	0.30782715
545.987	0.30814163
546.191	0.30841802
546.395	0.30884109
546.598	0.30927429
546.802	0.30966966
547.006	0.31001462
547.21	0.31029746
547.413	0.31076713
547.617	0.31123275
547.821	0.31158701
548.024	0.31202946
548.228	0.31231706
548.431	0.31270195
548.635	0.31313201
548.839	0.31342921
549.042	0.31388065
549.246	0.31427027
549.449	0.31457769
549.653	0.31499569
549.856	0.31534251
550.06	0.31567789
550.263	0.31609533
550.467	0.31634739
550.67	0.31668331
550.874	0.31699521
551.077	0.31731721
551.28	0.31769822
551.484	0.31805923
551.687	0.31832342
551.891	0.31863935
552.094	0.31891358
552.297	0.31925304
552.501	0.31968741
552.704	0.31992665
552.907	0.32024887
553.11	0.32062231
553.314	0.32100831
553.517	0.32133002
553.72	0.32171039
553.923	0.32201342
554.127	0.32240236
554.33	0.32263129
554.533	0.32293082
554.736	0.32316013
554.939	0.32347301
555.142	0.32380229
555.345	0.32398374
555.549	0.32426975
555.752	0.3246076
555.955	0.32490439
556.158	0.3252547
556.361	0.32556607
556.564	0.3257885
556.767	0.3261056
556.97	0.32640417
557.173	0.32671545
557.376	0.32703107
557.579	0.32728918
557.782	0.32758269
557.984	0.32782657
558.187	0.32814226
558.39	0.32833193
558.593	0.32869321
558.796	0.32893011
558.999	0.32920642
559.202	0.32949701
559.404	0.3297729
559.607	0.32996892
559.81	0.3302646
560.013	0.33042105
560.216	0.33067192
560.418	0.3308968
560.621	0.33115623
560.824	0.33139968
561.026	0.3317155
561.229	0.33187428
561.432	0.33211467
561.634	0.33233215
561.837	0.33256619
562.04	0.33278143
562.242	0.33302155
562.445	0.33314333
562.647	0.33340329
562.85	0.33355576
563.053	0.33378566
563.255	0.33400057
563.458	0.33421075
563.66	0.33441393
563.863	0.33469956
564.065	0.33488866
564.268	0.33508586
564.47	0.33531277
564.672	0.33548721
564.875	0.33566109
565.077	0.33576736
565.28	0.33586899
565.482	0.3360614
565.684	0.33621121
565.887	0.3363073
566.089	0.33643053
566.291	0.33658179
566.494	0.33679441
566.696	0.33699747
566.898	0.33717357
567.1	0.33737337
567.303	0.33748202
567.505	0.33765313
567.707	0.33777228
567.909	0.33788381
568.111	0.33799311
568.314	0.33807418
568.516	0.33817777
568.718	0.33829764
568.92	0.33846098
569.122	0.33850926
569.324	0.3386881
569.526	0.33881983
569.728	0.33903378
569.93	0.3391701
570.132	0.33927132
570.334	0.33936461
570.536	0.33953773
570.738	0.33956721
570.94	0.33955515
571.142	0.33961286
571.344	0.3396537
571.546	0.3397433
571.748	0.33982448
571.95	0.33980895
572.152	0.33982778
572.354	0.33999392
572.555	0.3400346
572.757	0.34018851
572.959	0.34028012
573.161	0.34028903
573.363	0.3404038
573.564	0.34063435
573.766	0.34068798
573.968	0.34080887
574.17	0.34079898
574.371	0.34083523
574.573	0.34085887
574.775	0.3408201
574.976	0.34070122
575.178	0.34070576
575.38	0.34063601
575.581	0.34064318
575.783	0.34069936
575.985	0.3407489
576.186	0.34084581
576.388	0.34090748
576.589	0.34087145
576.791	0.3409422
576.992	0.34092666
577.194	0.34086768
577.395	0.34082076
577.597	0.34081671
577.798	0.34083226
578	0.34089988
578.201	0.34091081
578.402	0.34093698
578.604	0.34086878
578.805	0.34096534
579.007	0.34094583
579.208	0.34090413
579.409	0.34081827
579.611	0.34071903
579.812	0.34071392
580.013	0.34077188
580.215	0.34053732
580.416	0.34045507
580.617	0.340325
580.818	0.34026217
581.019	0.34016032
581.221	0.34005907
581.422	0.33999677
581.623	0.34011191
581.824	0.34002396
582.025	0.34005137
582.226	0.3400309
582.428	0.34013291
582.629	0.34003556
582.83	0.33995346
583.031	0.33978104
583.232	0.33980064
583.433	0.33974598
583.634	0.33965716
583.835	0.33945088
584.036	0.3393882
584.237	0.33924896
584.438	0.33919996
584.639	0.33899425
584.84	0.33894244
585.041	0.33882173
585.242	0.33872099
585.442	0.33861501
585.643	0.33861503
585.844	0.33851405
586.045	0.33848747
586.246	0.33820454
586.447	0.33802014
586.647	0.33788418
586.848	0.33777468
587.049	0.33761306
587.25	0.33747418
587.45	0.33733721
587.651	0.33736313
587.852	0.33737452
588.053	0.33737812
588.253	0.33725483
588.454	0.33712249
588.655	0.33700669
588.855	0.33690851
589.056	0.33674201
589.256	0.33659753
589.457	0.3364431
589.658	0.33637068
589.858	0.33622652
590.059	0.33611511
590.259	0.33601867
590.46	0.33591143
590.66	0.33577054
590.861	0.33560135
591.061	0.33540039
591.262	0.33533788
591.462	0.33522669
591.662	0.33507796
591.863	0.3349544
592.063	0.3348746
592.264	0.3348173
592.464	0.33467952
592.664	0.33455925
592.865	0.33453465
593.065	0.33435439
593.265	0.33426049
593.465	0.33404917
593.666	0.33388299
593.866	0.33376916
594.066	0.33363426
594.266	0.33333051
594.467	0.33316496
594.667	0.3329447
594.867	0.33285937
595.067	0.33261686
595.267	0.33243422
595.467	0.33230658
595.668	0.33222496
595.868	0.33212536
596.068	0.33205829
596.268	0.33184984
596.468	0.33177453
596.668	0.33162748
596.868	0.33142777
597.068	0.33121031
597.268	0.33105758
597.468	0.33079394
597.668	0.33063428
597.868	0.33053159
598.068	0.33047319
598.268	0.33033575
598.467	0.3303156
598.667	0.33013056
598.867	0.32993771
599.067	0.32976845
599.267	0.32954424
599.467	0.32930877
599.667	0.32907788
599.866	0.32886847
600.066	0.32873178
600.266	0.32861371
600.466	0.32853704
600.665	0.3283475
600.865	0.32821852
601.065	0.32810563
601.264	0.32790685
601.464	0.3277265
601.664	0.32771598
601.863	0.32749434
602.063	0.32746377
602.263	0.32721934
602.462	0.32714272
602.662	0.32701521
602.861	0.32694191
603.061	0.32673316
603.26	0.32663943
603.46	0.32643209
603.659	0.32639204
603.859	0.32612691
604.058	0.32595954
604.258	0.32586435
604.457	0.32576295
604.657	0.32547312
604.856	0.32523899
605.056	0.32515387
605.255	0.32506133
605.454	0.32496602
605.654	0.32473604
605.853	0.32455186
606.052	0.32451163
606.252	0.32449114
606.451	0.32433486
606.65	0.32422244
606.849	0.32400737
607.049	0.32385619
607.248	0.32369506
607.447	0.32353333
607.646	0.32338756
607.845	0.32325728
608.045	0.32301335
608.244	0.32304063
608.443	0.32294663
608.642	0.322934
608.841	0.32286373
609.04	0.32267655
609.239	0.32256351
609.438	0.32249548
609.637	0.32242117
609.836	0.32236647
610.035	0.32221947
610.234	0.32221709
610.433	0.32219409
610.632	0.32211416
610.831	0.32218994
611.03	0.32201724
611.229	0.32199319
611.428	0.32196569
611.627	0.321843
611.826	0.32184067
612.025	0.32189116
612.224	0.32175686
612.422	0.32174496
612.621	0.32164788
612.82	0.32165036
613.019	0.32158332
613.218	0.32152651
613.416	0.32129184
613.615	0.32127144
613.814	0.321229
614.012	0.32120179
614.211	0.32096551
614.41	0.3209619
614.608	0.32088205
614.807	0.32091066
615.006	0.32091892
615.204	0.32082364
615.403	0.32074017
615.602	0.32081725
615.8	0.32086605
615.999	0.32083121
616.197	0.32080286
616.396	0.32086909
616.594	0.32081246
616.793	0.32087735
616.991	0.32081792
617.19	0.32061165
617.388	0.32069308
617.586	0.32070582
617.785	0.3205676
617.983	0.32055708
618.182	0.32043561
618.38	0.32032489
618.578	0.32036412
618.777	0.32031318
618.975	0.32038034
619.173	0.32039659
619.372	0.32045875
619.57	0.32044921
619.768	0.32056899
619.966	0.32066047
620.165	0.32060183
620.363	0.3206235
620.561	0.32051656
620.759	0.32062042
620.957	0.32074695
621.155	0.3208028
621.354	0.32073411
621.552	0.32089994
621.75	0.32073949
621.948	0.32087195
622.146	0.32081294
622.344	0.320776
622.542	0.32077743
622.74	0.3208464
622.938	0.32072082
623.136	0.32091297
623.334	0.32103839
623.532	0.32096533
623.73	0.32099331
623.928	0.32105701
624.126	0.3211389
624.324	0.32135562
624.522	0.3212517
624.719	0.32119313
624.917	0.32137771
625.115	0.32132425
625.313	0.3214126
625.511	0.32154374
625.708	0.32139404
625.906	0.32148052
626.104	0.32148792
626.302	0.32162294
626.499	0.32182132
626.697	0.32194282
626.895	0.32189025
627.093	0.3220613
627.29	0.32226225
627.488	0.32246406
627.686	0.32253461
627.883	0.3225838
628.081	0.32240765
628.278	0.32269066
628.476	0.32274533
628.673	0.32281091
628.871	0.32285025
629.068	0.32286325
629.266	0.32300096
629.463	0.32311529
629.661	0.32307502
629.858	0.32316765
630.056	0.32318234
630.253	0.32322687
630.451	0.32336947
630.648	0.32346805
630.845	0.32367136
631.043	0.32376661
631.24	0.32392899
631.438	0.3241092
631.635	0.32422488
631.832	0.32418161
632.029	0.32430312
632.227	0.32446957
632.424	0.32460054
632.621	0.32467343
632.818	0.32468707
633.016	0.32491374
633.213	0.32506854
633.41	0.32522928
633.607	0.32526512
633.804	0.32537386
634.001	0.32543498
634.199	0.32568518
634.396	0.32574283
634.593	0.32583547
634.79	0.3258902
634.987	0.32609527
635.184	0.32623159
635.381	0.32649536
635.578	0.32660986
635.775	0.32670008
635.972	0.32691223
636.169	0.32705272
636.366	0.3271355
636.563	0.32718812
636.76	0.32709482
636.957	0.32719131
637.153	0.32716431
637.35	0.3273225
637.547	0.3274156
637.744	0.32750303
637.941	0.32769068
638.138	0.32801732
638.334	0.32804815
638.531	0.32832972
638.728	0.32841847
638.925	0.32868331
639.121	0.32885411
639.318	0.32896674
639.515	0.32896038
639.711	0.32927315
639.908	0.32932734
640.105	0.3294826
640.301	0.32955053
640.498	0.32966778
640.695	0.32982736
640.891	0.33000659
641.088	0.33006914
641.284	0.33030535
641.481	0.33046499
641.677	0.33060665
641.874	0.33070766
642.07	0.33088757
642.267	0.33117677
642.463	0.33129404
642.66	0.33147681
642.856	0.33149814
643.053	0.33152998
643.249	0.33177664
643.445	0.3319095
643.642	0.3319949
643.838	0.33218757
644.034	0.3323026
644.231	0.33252753
644.427	0.33275045
644.623	0.33284803
644.82	0.33302061
645.016	0.33314679
645.212	0.33323004
645.408	0.33337922
645.604	0.33369372
645.801	0.33391211
645.997	0.33404506
646.193	0.33410145
646.389	0.33437058
646.585	0.33458462
646.781	0.33478481
646.977	0.33483057
647.173	0.33492244
647.37	0.3350045
647.566	0.33519606
647.762	0.33522382
647.958	0.33545134
648.154	0.33552151
648.35	0.33568819
648.546	0.33587116
648.742	0.33624608
648.937	0.33627564
649.133	0.33650622
649.329	0.33665808
649.525	0.33682363
649.721	0.33696256
649.917	0.33716308
650.113	0.3371176
650.309	0.33752768
650.504	0.33756743
650.7	0.33758561
650.896	0.33774904
651.092	0.33779825
651.287	0.33780239
651.483	0.33807247
651.679	0.33803583
651.875	0.33826864
652.07	0.33837391
652.266	0.33850012
652.462	0.33870918
652.657	0.33890582
652.853	0.33896654
653.048	0.33911678
653.244	0.33911214
653.44	0.33929132
653.635	0.33937854
653.831	0.33954327
654.026	0.33974543
654.222	0.33991818
654.417	0.34015934
654.613	0.34033316
654.808	0.34045442
655.004	0.34064898
655.199	0.34071486
655.394	0.34076088
655.59	0.34087718
655.785	0.34083434
655.98	0.34104638
656.176	0.34113609
656.371	0.34133322
656.566	0.34154031
656.762	0.34159359
656.957	0.34176086
657.152	0.34192897
657.348	0.34195594
657.543	0.34209982
657.738	0.34221419
657.933	0.34221803
658.128	0.34239922
658.324	0.34250406
658.519	0.34274075
658.714	0.34292038
658.909	0.34308264
659.104	0.34321141
659.299	0.343358
659.494	0.34345759
659.689	0.34363964
659.884	0.34366268
660.079	0.34373774
660.274	0.34385048
660.469	0.34395898
660.664	0.34412901
660.859	0.34430628
661.054	0.34435536
661.249	0.3445089
661.444	0.34461166
661.639	0.3446373
661.834	0.34459464
662.029	0.34473284
662.224	0.34484254
662.418	0.34493692
662.613	0.34503875
662.808	0.3450831
663.003	0.34522616
663.198	0.34534291
663.392	0.34529426
663.587	0.34548627
663.782	0.34549821
663.977	0.34554932
664.171	0.34575205
664.366	0.34591642
664.561	0.34605637
664.755	0.34624877
664.95	0.34615569
665.144	0.34629033
665.339	0.34642264
665.534	0.3464561
665.728	0.34647145
665.923	0.34654349
666.117	0.34662822
666.312	0.34674057
666.506	0.34690099
666.701	0.34693882
666.895	0.34707733
667.09	0.34715226
667.284	0.34731529
667.479	0.34737856
667.673	0.34742592
667.867	0.34746689
668.062	0.34750819
668.256	0.34755469
668.45	0.34773964
668.645	0.34772882
668.839	0.34782369
669.033	0.34790575
669.228	0.34790266
669.422	0.347975
669.616	0.34797444
669.81	0.34800528
670.004	0.34797475
670.199	0.34800312
670.393	0.34805448
670.587	0.34811929
670.781	0.34823064
670.975	0.34842825
671.169	0.3484072
671.363	0.34857161
671.558	0.34863285
671.752	0.34871155
671.946	0.34885429
672.14	0.34891521
672.334	0.34886464
672.528	0.34909098
672.722	0.34907084
672.916	0.34911942
673.11	0.34909203
673.304	0.34914572
673.497	0.34904937
673.691	0.34911875
673.885	0.3488944
674.079	0.34902079
674.273	0.34899894
674.467	0.34918488
674.661	0.34915703
674.854	0.34929971
675.048	0.34935169
675.242	0.34953136
675.436	0.34952609
675.629	0.34955142
675.823	0.34943908
676.017	0.34953544
676.211	0.34949129
676.404	0.34949699
676.598	0.34949962
676.792	0.34954992
676.985	0.34971479
677.179	0.34978727
677.372	0.34975326
677.566	0.34995478
677.76	0.34999886
677.953	0.34998793
678.147	0.35005378
678.34	0.35002966
678.534	0.35003171
678.727	0.35005718
678.921	0.35003482
679.114	0.34993697
679.307	0.35002495
679.501	0.35001441
679.694	0.34994365
679.888	0.34992372
680.081	0.34997953
680.274	0.34989889
680.468	0.35002555
680.661	0.34999628
680.854	0.35007603
681.048	0.35015623
681.241	0.35018317
681.434	0.35014057
681.627	0.35022462
681.821	0.35025642
682.014	0.3503588
682.207	0.3502461
682.4	0.35021072
682.593	0.3503267
682.786	0.35028324
682.98	0.35018926
683.173	0.35016078
683.366	0.350085
683.559	0.3500741
683.752	0.35018318
683.945	0.3501156
684.138	0.35021988
684.331	0.3501862
684.524	0.35021472
684.717	0.35015784
684.91	0.3502321
685.103	0.35017238
685.296	0.35020692
685.489	0.35023717
685.682	0.35034019
685.874	0.35042961
686.067	0.35049316
686.26	0.35056679
686.453	0.35056318
686.646	0.35051283
686.839	0.35043237
687.031	0.35034645
687.224	0.35012787
687.417	0.35013118
687.61	0.34998343
687.802	0.34990055
687.995	0.34993058
688.188	0.34992649
688.38	0.34995499
688.573	0.35002756
688.766	0.34994049
688.958	0.34983304
689.151	0.34977108
689.343	0.34974499
689.536	0.34966146
689.729	0.34957004
689.921	0.34954689
690.114	0.34945788
690.306	0.34953685
690.499	0.34957047
690.691	0.34953993
690.884	0.34952671
691.076	0.34960882
691.268	0.34953684
691.461	0.3494185
691.653	0.34940237
691.846	0.34938004
692.038	0.3493394
692.23	0.34923285
692.423	0.34915309
692.615	0.34912037
692.807	0.34922069
692.999	0.34916836
693.192	0.34903842
693.384	0.34899299
693.576	0.34897296
693.768	0.34894124
693.961	0.34881368
694.153	0.34876725
694.345	0.34864457
694.537	0.34865528
694.729	0.34853477
694.921	0.34846356
695.113	0.34842849
695.305	0.34847342
695.498	0.34833247
695.69	0.34834128
695.882	0.34818336
696.074	0.34817522
696.266	0.34812253
696.458	0.34798416
696.65	0.34794509
696.842	0.34798823
697.033	0.34794778
697.225	0.34797098
697.417	0.34802343
697.609	0.3480259
697.801	0.34798722
697.993	0.34795372
698.185	0.34783674
698.376	0.34776107
698.568	0.34767978
698.76	0.34755832
698.952	0.34750592
699.144	0.34752404
699.335	0.3474813
699.527	0.34744079
699.719	0.347378
699.91	0.34740026
700.102	0.34725576
700.294	0.34720502
700.485	0.34704415
700.677	0.34685189
700.869	0.34683857
701.06	0.34682971
701.252	0.34674883
701.443	0.34679307
701.635	0.34672073
701.826	0.34674298
702.018	0.34680714
702.209	0.34677452
702.401	0.3467127
702.592	0.34668771
702.784	0.34659636
702.975	0.34656351
703.166	0.34646232
703.358	0.34633456
703.549	0.34631847
703.741	0.34625304
703.932	0.34618296
704.123	0.34610879
704.315	0.34605239
704.506	0.34608212
704.697	0.34608031
704.888	0.346044
705.08	0.34603998
705.271	0.34602772
705.462	0.34594581
705.653	0.34586884
705.844	0.34576286
706.035	0.34571099
706.227	0.34554512
706.418	0.34542716
706.609	0.34529823
706.8	0.3452552
706.991	0.34514118
707.182	0.34509642
707.373	0.34496828
707.564	0.34492795
707.755	0.34480074
707.946	0.34475825
708.137	0.34463109
708.328	0.34460589
708.519	0.3445584
708.71	0.3444924
708.901	0.3444475
709.092	0.34449445
709.283	0.34446506
709.473	0.34450788
709.664	0.34447532
709.855	0.34438871
710.046	0.34436959
710.237	0.34428398
710.427	0.34416695
710.618	0.34411471
710.809	0.34401242
711	0.34400461
711.19	0.34385978
711.381	0.34392292
711.572	0.34391832
711.762	0.34396298
711.953	0.34390357
712.144	0.34391644
712.334	0.34379507
712.525	0.34385109
712.715	0.34372934
712.906	0.34366666
713.097	0.34345183
713.287	0.34339893
713.478	0.34331648
713.668	0.34335257
713.859	0.3433002
714.049	0.34326986
714.239	0.34327445
714.43	0.34337399
714.62	0.34334999
714.811	0.34329555
715.001	0.34322769
715.191	0.34319517
715.382	0.34309465
715.572	0.34312789
715.762	0.34303636
715.953	0.34304525
716.143	0.34308936
716.333	0.34308987
716.523	0.34308043
716.714	0.34313806
716.904	0.34301244
717.094	0.34305405
717.284	0.34294957
717.474	0.3428412
717.664	0.34284136
717.855	0.34279497
718.045	0.34273241
718.235	0.34271988
718.425	0.34271068
718.615	0.34276516
718.805	0.34283081
718.995	0.34281666
719.185	0.34287054
719.375	0.34290004
719.565	0.34294561
719.755	0.34288987
719.945	0.34284015
720.135	0.34284287
720.325	0.34284011
720.515	0.3427734
720.704	0.34275062
720.894	0.34274674
721.084	0.34274578
721.274	0.34279332
721.464	0.34281729
721.654	0.34285323
721.843	0.34292268
722.033	0.34299961
722.223	0.34300868
722.413	0.34310532
722.602	0.34313656
722.792	0.34310648
722.982	0.34301747
723.171	0.34299422
723.361	0.34294793
723.55	0.34298926
723.74	0.34296884
723.93	0.34293572
724.119	0.3429774
724.309	0.34301569
724.498	0.34302482
724.688	0.34298525
724.877	0.34285095
725.067	0.3427658
725.256	0.34273344
725.446	0.34271596
725.635	0.34263398
725.825	0.34261329
726.014	0.342569
726.203	0.34259406
726.393	0.34252047
726.582	0.34243372
726.771	0.34231487
726.961	0.34226282
727.15	0.34217995
727.339	0.34211501
727.529	0.34207588
727.718	0.34209057
727.907	0.34205068
728.096	0.34199427
728.286	0.3420153
728.475	0.34200382
728.664	0.34201593
728.853	0.34193428
729.042	0.34179284
729.231	0.34176971
729.42	0.34176789
729.609	0.34171356
729.799	0.3415719
729.988	0.34151023
730.177	0.34142748
730.366	0.34145985
730.555	0.34142404
730.744	0.34138718
730.933	0.3414023
731.122	0.34144445
731.31	0.34140691
731.499	0.34143883
731.688	0.34140328
731.877	0.34137645
732.066	0.34136256
732.255	0.34130725
732.444	0.34129254
732.632	0.34124011
732.821	0.3411912
733.01	0.34120563
733.199	0.3410922
733.388	0.34103594
733.576	0.34096664
733.765	0.34091968
733.954	0.34098674
734.142	0.34103728
734.331	0.34105197
734.52	0.34110218
734.708	0.34109046
734.897	0.34112823
735.086	0.341127
735.274	0.34099052
735.463	0.34088524
735.651	0.34075325
735.84	0.34080769
736.028	0.34081284
736.217	0.34079909
736.405	0.34074897
736.594	0.340822
736.782	0.3409053
736.971	0.34102223
737.159	0.34098436
737.347	0.34097067
737.536	0.34092
737.724	0.34099334
737.912	0.3409475
738.101	0.34082849
738.289	0.34074774
738.477	0.34075755
738.666	0.34077789
738.854	0.34082891
739.042	0.34077627
739.23	0.34078816
739.418	0.34088949
739.607	0.34093271
739.795	0.34089044
739.983	0.34088996
740.171	0.34082202
740.359	0.34075714
740.547	0.34068085
740.735	0.34061569
740.923	0.34066612
741.112	0.34071966
741.3	0.34073677
741.488	0.34074954
741.676	0.34096864
741.864	0.34105433
742.052	0.34109736
742.239	0.34096684
742.427	0.34098235
742.615	0.34095602
742.803	0.34100107
742.991	0.34082014
743.179	0.34080988
743.367	0.34085008
743.555	0.3409626
743.742	0.3410076
743.93	0.34112274
744.118	0.34115036
744.306	0.34123431
744.494	0.34122383
744.681	0.34123136
744.869	0.34117001
745.057	0.34111119
745.244	0.341037
745.432	0.34108114
745.62	0.34110686
745.807	0.34119467
745.995	0.3411733
746.182	0.34120351
746.37	0.34129526
746.558	0.34130527
746.745	0.34126194
746.933	0.34125848
747.12	0.34134343
747.308	0.34147172
747.495	0.34157255
747.683	0.34157543
747.87	0.34170297
748.057	0.34182939
748.245	0.34194109
748.432	0.34189023
748.62	0.34184269
748.807	0.34183945
748.994	0.34181901
749.182	0.34178514
749.369	0.34179256
749.556	0.34178382
749.743	0.34185547
749.931	0.34193957
750.118	0.34198435
750.305	0.34205605
750.492	0.34203978
750.68	0.34210187
750.867	0.34208456
751.054	0.3421485
751.241	0.34210382
751.428	0.34214887
751.615	0.34221382
751.802	0.3423229
751.989	0.34232848
752.176	0.34251482
752.363	0.34260919
752.55	0.34270915
752.737	0.34279237
752.924	0.34279766
753.111	0.34279055
753.298	0.34283563
753.485	0.34279856
753.672	0.34275889
753.859	0.34285304
754.046	0.34289633
754.233	0.34294166
754.42	0.34311154
754.606	0.34312887
754.793	0.34316247
754.98	0.34329665
755.167	0.34328533
755.353	0.34331655
755.54	0.34336896
755.727	0.34329858
755.914	0.34338514
756.1	0.34342757
756.287	0.34336997
756.474	0.34340101
756.66	0.3434553
756.847	0.34352193
757.033	0.34352546
757.22	0.34347671
757.407	0.34356713
757.593	0.34358858
757.78	0.34356336
757.966	0.34361225
758.153	0.34364207
758.339	0.34371699
758.526	0.34377687
758.712	0.34378218
758.898	0.34394503
759.085	0.34402626
759.271	0.34401639
759.458	0.344017
759.644	0.34417186
759.83	0.3442661
760.017	0.34436447
760.203	0.34435829
760.389	0.34446329
760.576	0.34461288
760.762	0.3447217
760.948	0.34471889
761.134	0.34479688
761.32	0.34481794
761.507	0.344891
761.693	0.34506269
761.879	0.3450597
762.065	0.34521978
762.251	0.3452876
762.437	0.34535675
762.623	0.34539907
762.809	0.34544465
762.995	0.34538382
763.181	0.34540672
763.367	0.34534393
763.553	0.34542068
763.739	0.34549295
763.925	0.34554522
764.111	0.34562858
764.297	0.34576812
764.483	0.34586882
764.669	0.3458935
764.855	0.34592725
765.041	0.34596087
765.227	0.34601032
765.412	0.34607535
765.598	0.34607886
765.784	0.34611207
765.97	0.34629153
766.156	0.34637891
766.341	0.34649037
766.527	0.34659379
766.713	0.34658597
766.898	0.34664254
767.084	0.3467125
767.27	0.34660187
767.455	0.34648064
767.641	0.34646292
767.827	0.34647379
768.012	0.34657092
768.198	0.34664395
768.383	0.34670244
768.569	0.34692239
768.754	0.34718024
768.94	0.34725056
769.125	0.34724415
769.311	0.3472147
769.496	0.34718172
769.682	0.34724323
769.867	0.34725257
770.052	0.34724845
770.238	0.34719139
770.423	0.34730003
770.608	0.34742123
770.794	0.34757407
770.979	0.34759634
771.164	0.3476251
771.35	0.34768701
771.535	0.34786405
771.72	0.34791908
771.905	0.34799883
772.09	0.34801061
772.276	0.34813416
772.461	0.34816363
772.646	0.3481248
772.831	0.34813049
773.016	0.34822922
773.201	0.34833855
773.386	0.34844558
773.571	0.34846709
773.756	0.34857834
773.941	0.34869189
774.126	0.34893606
774.311	0.34900401
774.496	0.34907333
774.681	0.34910421
774.866	0.3492286
775.051	0.34929556
775.236	0.34943656
775.421	0.34926064
775.606	0.34920475
775.791	0.34908402
775.976	0.34909436
776.16	0.34905835
776.345	0.34912338
776.53	0.34921972
776.715	0.34946816
776.899	0.34960178
777.084	0.34984152
777.269	0.34994957
777.454	0.35005297
777.638	0.35008235
777.823	0.34998003
778.008	0.34985833
778.192	0.3498945
778.377	0.34979794
778.561	0.34981895
778.746	0.3497947
778.931	0.34985855
779.115	0.35000442
779.3	0.35016685
779.484	0.35025362
779.669	0.35033832
779.853	0.3504232
780.037	0.35050324
780.222	0.3505738
780.406	0.35063277
780.591	0.35072841
780.775	0.35079931
780.959	0.35082653
781.144	0.3508375
781.328	0.35096304
781.512	0.35096575
781.697	0.35096012
781.881	0.35093913
782.065	0.35103444
782.249	0.35108059
782.434	0.3511201
782.618	0.35105709
782.802	0.35110704
782.986	0.35121629
783.17	0.35130555
783.354	0.35133225
783.539	0.35141514
783.723	0.35144568
783.907	0.3514904
784.091	0.35144985
784.275	0.35139909
784.459	0.3512933
784.643	0.35122279
784.827	0.35120215
785.011	0.35118581
785.195	0.35126348
785.379	0.35134463
785.563	0.35141583
785.747	0.35156725
785.93	0.35179621
786.114	0.35190813
786.298	0.35196289
786.482	0.3520023
786.666	0.35207636
786.85	0.35208693
787.033	0.35204734
787.217	0.35195184
787.401	0.35194522
787.585	0.35206901
787.768	0.35217868
787.952	0.35212675
788.136	0.35217493
788.319	0.35232287
788.503	0.35227837
788.687	0.35226141
788.87	0.35227867
789.054	0.35221328
789.237	0.35232015
789.421	0.35237626
789.605	0.35227714
789.788	0.35235607
789.972	0.35236764
790.155	0.35232419
790.338	0.35236109
790.522	0.35235898
790.705	0.35229765
790.889	0.35229289
791.072	0.35229169
791.256	0.35237838
791.439	0.35241188
791.622	0.35245104
791.806	0.35262462
791.989	0.35271536
792.172	0.35283841
792.355	0.35293122
792.539	0.35295575
792.722	0.35296162
792.905	0.35295993
793.088	0.35284695
793.271	0.35287273
793.455	0.35286368
793.638	0.35284989
793.821	0.35279169
794.004	0.3528496
794.187	0.35295794
794.37	0.35303158
794.553	0.3530784
794.736	0.3530706
794.919	0.35307604
795.102	0.35312217
795.285	0.35311854
795.468	0.35302901
795.651	0.35296827
795.834	0.35296497
796.017	0.35306237
796.2	0.35306066
796.383	0.35305084
796.566	0.35308344
796.749	0.35308732
796.931	0.35311932
797.114	0.3530811
797.297	0.35305215
797.48	0.35309049
797.663	0.35319282
797.845	0.35325606
798.028	0.35342905
798.211	0.35358995
798.393	0.35368507
798.576	0.35366706
798.759	0.35355924
798.941	0.3534969
799.124	0.35350146
799.307	0.35342105
799.489	0.35333091
799.672	0.35325439
799.854	0.3532236
800.037	0.35332552
800.219	0.35349357
800.402	0.35346834
800.584	0.35341466
800.767	0.35335112
800.949	0.3534515
801.132	0.35372418
801.314	0.35378141
801.496	0.35367733
801.679	0.35370328
801.861	0.35382274
802.043	0.35379103
802.226	0.35363327
802.408	0.35340108
802.59	0.35336126
802.772	0.35341369
802.955	0.35344905
803.137	0.35338415
803.319	0.35353322
803.501	0.35371972
803.684	0.35382024
803.866	0.35381653
804.048	0.35381828
804.23	0.3538468
804.412	0.35388893
804.594	0.35381072
804.776	0.35381989
804.958	0.35379287
805.14	0.35384789
805.322	0.35384256
805.504	0.35387131
805.686	0.35384834
805.868	0.35387325
806.05	0.35378172
806.232	0.35369048
806.414	0.35375064
806.596	0.35373536
806.778	0.35362839
806.96	0.35367064
807.141	0.35364584
807.323	0.3536902
807.505	0.35380173
807.687	0.35379823
807.869	0.35380667
808.05	0.35377126
808.232	0.35367894
808.414	0.35369505
808.595	0.3536728
808.777	0.35360118
808.959	0.35356909
809.14	0.3535708
809.322	0.35367307
809.504	0.35366584
809.685	0.35371695
809.867	0.35366547
810.048	0.35364132
810.23	0.35359605
810.411	0.35354231
810.593	0.35341566
810.774	0.3533926
810.956	0.35326597
811.137	0.35321084
811.319	0.35320866
811.5	0.35316174
811.681	0.35310658
811.863	0.35307412
812.044	0.3530479
812.225	0.35311861
812.407	0.35320518
812.588	0.35326955
812.769	0.35337549
812.951	0.35344555
813.132	0.35345432
813.313	0.35359395
813.494	0.3534417
813.675	0.35338455
813.857	0.35335798
814.038	0.35333742
814.219	0.35335616
814.4	0.35332354
814.581	0.35327236
814.762	0.35330214
814.943	0.35333635
815.124	0.35327354
815.305	0.35310843
815.486	0.35304403
815.667	0.3530824
815.848	0.35296083
816.029	0.35288378
816.21	0.35279635
816.391	0.35274973
816.572	0.35280306
816.753	0.35281219
816.934	0.35281041
817.115	0.35287165
817.295	0.35298899
817.476	0.35289705
817.657	0.35289018
817.838	0.35286294
818.019	0.35272404
818.199	0.352584
818.38	0.35233792
818.561	0.35222483
818.741	0.35228484
818.922	0.35220981
819.103	0.35218066
819.283	0.35223555
819.464	0.35226154
819.645	0.35236253
819.825	0.35235175
820.006	0.35221113
820.186	0.35213828
820.367	0.35201374
820.547	0.35189804
820.728	0.35176057
820.908	0.35161605
821.089	0.35161324
821.269	0.35170132
821.45	0.35173086
821.63	0.35159315
821.81	0.35166142
821.991	0.35185592
822.171	0.3520197
822.351	0.35197949
822.532	0.3519366
822.712	0.35183006
822.892	0.35187964
823.072	0.35172316
823.253	0.35150616
823.433	0.35126157
823.613	0.35115293
823.793	0.35098709
823.973	0.35091592
824.154	0.35074767
824.334	0.35064081
824.514	0.35050506
824.694	0.35044702
824.874	0.3502971
825.054	0.35025263
825.234	0.35026184
825.414	0.35021414
825.594	0.35016094
825.774	0.3502197
825.954	0.35020577
826.134	0.35028479
826.314	0.35018214
826.494	0.35005364
826.674	0.34990872
826.854	0.34978661
827.033	0.34955393
827.213	0.34959383
827.393	0.34930306
827.573	0.34924343
827.753	0.34910492
827.932	0.34925008
828.112	0.34934079
828.292	0.34946475
828.472	0.34932183
828.651	0.3494959
828.831	0.34947264
829.011	0.34952932
829.19	0.34939076
829.37	0.34923174
829.549	0.34911328
829.729	0.34896232
829.909	0.34875848
830.088	0.34863198
830.268	0.34846812
830.447	0.34847404
830.627	0.34847905
830.806	0.34840357
830.986	0.34838843
831.165	0.34834609
831.344	0.34831369
831.524	0.34813936
831.703	0.34797116
831.883	0.34783898
832.062	0.34779798
832.241	0.34768885
832.421	0.34772304
832.6	0.34764279
832.779	0.34774889
832.958	0.34769933
833.138	0.34757646
833.317	0.34755009
833.496	0.34756476
833.675	0.34743842
833.854	0.34750171
834.034	0.34739531
834.213	0.34733345
834.392	0.34737344
834.571	0.34709916
834.75	0.34685157
834.929	0.3466188
835.108	0.3463682
835.287	0.34628605
835.466	0.34593786
835.645	0.3457325
835.824	0.34571356
836.003	0.34579329
836.182	0.34577914
836.361	0.34568241
836.54	0.3454408
836.719	0.34543215
836.897	0.34527855
837.076	0.34519838
837.255	0.34493254
837.434	0.34483151
837.613	0.34476044
837.791	0.34479537
837.97	0.34484666
838.149	0.34473367
838.328	0.34458107
838.506	0.34453228
838.685	0.34443369
838.864	0.34431838
839.042	0.34415181
839.221	0.34411522
839.4	0.3441775
839.578	0.34411003
839.757	0.34392459
839.935	0.34381853
840.114	0.34383443
840.292	0.34381576
840.471	0.34371168
840.649	0.34357112
840.828	0.343446
841.006	0.34351332
841.185	0.34336667
841.363	0.34325049
841.541	0.34309552
841.72	0.3430126
841.898	0.34292656
842.076	0.34283526
842.255	0.34269266
842.433	0.34265469
842.611	0.34246318
842.789	0.34236974
842.968	0.34226453
843.146	0.34210322
843.324	0.34204628
843.502	0.34186906
843.68	0.3417947
843.859	0.34174047
844.037	0.34157424
844.215	0.34129154
844.393	0.3411854
844.571	0.34097335
844.749	0.34096911
844.927	0.34070666
845.105	0.34048154
845.283	0.34047307
845.461	0.3404095
845.639	0.34032913
845.817	0.34026126
845.995	0.34026426
846.173	0.340373
846.351	0.34032135
846.529	0.34009605
846.706	0.3399288
846.884	0.3398351
847.062	0.3396827
847.24	0.33932746
847.418	0.33904697
847.595	0.33891526
847.773	0.33879745
847.951	0.33874196
848.129	0.33855413
848.306	0.33843804
848.484	0.33845216
848.662	0.33842391
848.839	0.33836463
849.017	0.33833737
849.194	0.3382591
849.372	0.33813836
849.549	0.33800889
849.727	0.3378306
849.905	0.33761699
850.082	0.33743304
850.26	0.33739383
850.437	0.33719645
850.614	0.33713009
850.792	0.33699152
850.969	0.33697246
851.147	0.33694577
851.324	0.33688925
851.501	0.3366789
851.679	0.33661974
851.856	0.33644641
852.033	0.33640135
852.211	0.33622318
852.388	0.33598389
852.565	0.33586603
852.742	0.33579155
852.92	0.33567064
853.097	0.33561269
853.274	0.33563611
853.451	0.33541168
853.628	0.33529675
853.805	0.33503766
853.982	0.33484659
854.159	0.33469865
854.336	0.33459688
854.514	0.33430905
854.691	0.33417548
854.868	0.33427664
855.045	0.33422708
855.221	0.33415415
855.398	0.33399058
855.575	0.3337298
855.752	0.3336425
855.929	0.33372262
856.106	0.33346183
856.283	0.33337575
856.46	0.33330357
856.637	0.33332992
856.813	0.33330144
856.99	0.33324451
857.167	0.33304141
857.344	0.33283402
857.52	0.33264189
857.697	0.33221933
857.874	0.33178654
858.05	0.33160927
858.227	0.33129703
858.404	0.33116534
858.58	0.33123227
858.757	0.33119575
858.933	0.33125781
859.11	0.33140801
859.287	0.33133027
859.463	0.33117901
859.64	0.3310934
859.816	0.33090839
859.993	0.33068964
860.169	0.33064248
860.345	0.33036659
860.522	0.33019806
860.698	0.33012507
860.875	0.32981949
861.051	0.32960259
861.227	0.32934
861.404	0.32904497
861.58	0.3290975
861.756	0.32902562
861.932	0.32896759
862.109	0.32882258
862.285	0.32873709
862.461	0.3288751
862.637	0.32887378
862.813	0.32866837
862.99	0.32839622
863.166	0.32807801
863.342	0.32811105
863.518	0.3277173
863.694	0.32746132
863.87	0.32728135
864.046	0.3269711
864.222	0.32680793
864.398	0.32678231
864.574	0.32652978
864.75	0.32663797
864.926	0.32660068
865.102	0.32647095
865.278	0.32633529
865.454	0.32624832
865.63	0.32600434
865.805	0.3257907
865.981	0.32559445
866.157	0.32530611
866.333	0.32507221
866.509	0.32511713
866.684	0.32503139
866.86	0.32520792
867.036	0.32518807
867.212	0.32511353
867.387	0.32506135
867.563	0.32499077
867.739	0.32471848
867.914	0.3245423
868.09	0.32402276
868.265	0.32374059
868.441	0.32346028
868.617	0.32325068
868.792	0.32313276
868.968	0.32292818
869.143	0.32286179
869.319	0.32296893
869.494	0.32284091
869.67	0.32284117
869.845	0.32267485
870.02	0.32244621
870.196	0.3224557
870.371	0.32221777
870.546	0.32193754
870.722	0.32183333
870.897	0.3214204
871.072	0.32113458
871.248	0.32082055
871.423	0.32047063
871.598	0.32044691
871.773	0.32024314
871.949	0.32001027
872.124	0.32005221
872.299	0.31992577
872.474	0.31989472
872.649	0.31980827
872.824	0.31946328
872.999	0.31946108
873.174	0.31936429
873.349	0.31914624
873.524	0.31902097
873.699	0.31893153
873.874	0.31880931
874.049	0.31868283
874.224	0.31840787
874.399	0.31831454
874.574	0.31840911
874.749	0.31840989
874.924	0.31820807
875.099	0.31803396
875.274	0.31786217
875.449	0.31787476
875.623	0.31761916
875.798	0.31708635
875.973	0.31671232
876.148	0.31642351
876.322	0.31624968
876.497	0.31593956
876.672	0.31566391
876.846	0.31558538
877.021	0.31548724
877.196	0.31532082
877.37	0.31535982
877.545	0.3154643
877.72	0.31547278
877.894	0.31529923
878.069	0.31486029
878.243	0.31446333
878.418	0.31420123
878.592	0.31376573
878.767	0.31312502
878.941	0.31285793
879.116	0.31250361
879.29	0.31241436
879.464	0.3122527
879.639	0.3121218
879.813	0.3123067
879.987	0.31233737
880.162	0.31228267
880.336	0.31230006
880.51	0.31233005
880.685	0.31254479
880.859	0.31272468
881.033	0.31241122
881.207	0.31222057
881.381	0.31207254
881.556	0.31181731
881.73	0.31173568
881.904	0.31156561
882.078	0.31121121
882.252	0.31106281
882.426	0.31089746
882.6	0.31076106
882.774	0.31071606
882.948	0.31040548
883.122	0.30998148
883.296	0.30979076
883.47	0.30957496
883.644	0.30954444
883.818	0.30907396
883.992	0.30899743
884.166	0.30882558
884.34	0.30884711
884.514	0.30886153
884.687	0.30881689
884.861	0.30857992
885.035	0.30876747
885.209	0.30843966
885.382	0.3083214
885.556	0.30812786
885.73	0.30790596
885.904	0.30775092
886.077	0.30746284
886.251	0.30715112
886.425	0.30708029
886.598	0.30692716
886.772	0.30685444
886.945	0.30646821
887.119	0.30612803
887.292	0.30602527
887.466	0.30604414
887.64	0.30579828
887.813	0.30569338
887.986	0.30550361
888.16	0.30565428
888.333	0.30558758
888.507	0.3055032
888.68	0.30518188
888.854	0.30509336
889.027	0.30488366
889.2	0.30479997
889.374	0.30453785
889.547	0.3044296
889.72	0.30433373
889.893	0.30410013
890.067	0.30391749
890.24	0.30374137
890.413	0.30345017
890.586	0.30314221
890.759	0.30305985
890.933	0.30294758
891.106	0.30297552
891.279	0.30294914
891.452	0.30288806
891.625	0.30279539
891.798	0.30292654
891.971	0.3027898
892.144	0.30256757
892.317	0.30237522
892.49	0.30200685
892.663	0.3017767
892.836	0.30177315
893.009	0.30155416
893.182	0.30121547
893.355	0.30126308
893.527	0.30106358
893.7	0.30116884
893.873	0.30112837
894.046	0.30073413
894.219	0.30055961
894.391	0.30051113
894.564	0.30026252
894.737	0.30019455
894.91	0.29990059
895.082	0.29961799
895.255	0.29952433
895.428	0.29925169
895.6	0.29897071
895.773	0.29869478
895.945	0.2984721
896.118	0.29829352
896.291	0.29828856
896.463	0.2982888
896.636	0.29814191
896.808	0.29802903
896.981	0.2978941
897.153	0.29770764
897.326	0.29757172
897.498	0.29707089
897.67	0.29667194
897.843	0.29659878
898.015	0.2965096
898.187	0.29641561
898.36	0.29605133
898.532	0.29573782
898.704	0.29583636
898.877	0.29577189
899.049	0.29562526
899.221	0.29555938
899.393	0.29527695
899.566	0.29534842
899.738	0.29540293
899.91	0.29531694
900.082	0.29518672
900.254	0.29498707
900.426	0.29487375
900.598	0.29491227
900.77	0.29463096
900.942	0.29434084
901.114	0.29414786
901.286	0.29399688
901.458	0.29387267
901.63	0.29353336
901.802	0.2933718
901.974	0.29349743
902.146	0.2935225
902.318	0.29352665
902.49	0.29349822
902.662	0.29340868
902.834	0.29322444
903.005	0.29312735
903.177	0.29289629
903.349	0.29262381
903.521	0.29221863
903.693	0.29204575
903.864	0.29180174
904.036	0.29172619
904.208	0.29129481
904.379	0.29095524
904.551	0.29094217
904.723	0.29083601
904.894	0.29052304
905.066	0.29036902
905.237	0.29035775
905.409	0.29034462
905.58	0.2904283
905.752	0.29009616
905.923	0.28995785
906.095	0.28976531
906.266	0.28955407
906.438	0.28926962
906.609	0.28906458
906.78	0.28867546
906.952	0.28868493
907.123	0.28833823
907.295	0.28832307
907.466	0.28824054
907.637	0.28822945
907.808	0.28815097
907.98	0.28804801
908.151	0.287888
908.322	0.28804302
908.493	0.28776372
908.665	0.28770442
908.836	0.28740479
909.007	0.28711489
909.178	0.28704609
909.349	0.28682163
909.52	0.28671389
909.691	0.28671402
909.862	0.28659192
910.033	0.28656813
910.204	0.28661533
910.375	0.28654236
910.546	0.28659193
910.717	0.28632053
910.888	0.28623587
911.059	0.28606165
911.23	0.28593701
911.401	0.2857038
911.572	0.28545323
911.742	0.28499551
911.913	0.28485047
912.084	0.2842689
912.255	0.28406678
912.426	0.28368731
912.596	0.28349453
912.767	0.28351241
912.938	0.28357445
913.108	0.28355028
913.279	0.28354944
913.45	0.28341826
913.62	0.28349505
913.791	0.28354452
913.962	0.28332398
914.132	0.28310064
914.303	0.28284979
914.473	0.28287957
914.644	0.2826822
914.814	0.28244444
914.985	0.28209863
915.155	0.28189703
915.326	0.28166276
915.496	0.28133322
915.666	0.28104534
915.837	0.28105527
916.007	0.28074928
916.177	0.28058806
916.348	0.28049103
916.518	0.28053862
916.688	0.28054917
916.858	0.28056296
917.029	0.28022862
917.199	0.28025854
917.369	0.28020964
917.539	0.28003934
917.709	0.27971574
917.88	0.27931145
918.05	0.27888044
918.22	0.27871829
918.39	0.27845046
918.56	0.27832845
918.73	0.27819943
918.9	0.2780619
919.07	0.27795157
919.24	0.27807592
919.41	0.27815958
919.58	0.27794899
919.75	0.27788075
919.92	0.27760251
920.09	0.27765849
920.26	0.27745593
920.429	0.27740043
920.599	0.27709422
920.769	0.27706006
920.939	0.27667121
921.109	0.27660315
921.278	0.27618524
921.448	0.27631533
921.618	0.2761016
921.787	0.27614039
921.957	0.27605071
922.127	0.27584906
922.296	0.27580912
922.466	0.27570624
922.636	0.27573579
922.805	0.27570871
922.975	0.27551549
923.144	0.27559551
923.314	0.27552378
923.483	0.27541047
923.653	0.2753874
923.822	0.27512322
923.992	0.27479895
924.161	0.27454947
924.331	0.27408178
924.5	0.27395232
924.669	0.27359691
924.839	0.27340902
925.008	0.27322096
925.177	0.27304886
925.347	0.27296366
925.516	0.2730634
925.685	0.27296325
925.854	0.27311885
926.023	0.27318478
926.193	0.27336621
926.362	0.27327856
926.531	0.27318487
926.7	0.27287922
926.869	0.27289478
927.038	0.27238574
927.207	0.27209268
927.376	0.27159687
927.545	0.27144935
927.715	0.2711731
927.884	0.27103704
928.052	0.27109055
928.221	0.27100992
928.39	0.27088744
928.559	0.2709083
928.728	0.27096321
928.897	0.2710795
929.066	0.27111925
929.235	0.27067762
929.404	0.2706626
929.572	0.27043777
929.741	0.2702398
929.91	0.26998184
930.079	0.26949844
930.247	0.26923139
930.416	0.26917762
930.585	0.26905021
930.753	0.26905621
930.922	0.26892454
931.091	0.26892654
931.259	0.26891956
931.428	0.26893423
931.596	0.26883472
931.765	0.26884385
931.934	0.26871909
932.102	0.26817116
932.27	0.2678955
932.439	0.26769668
932.607	0.26739255
932.776	0.26748002
932.944	0.26708284
933.113	0.26696797
933.281	0.26718475
933.449	0.26684561
933.618	0.26674945
933.786	0.26683119
933.954	0.26628229
934.123	0.26630444
934.291	0.2663233
934.459	0.26613601
934.627	0.26629743
934.795	0.26640338
934.964	0.26587736
935.132	0.26570542
935.3	0.26509725
935.468	0.2646748
935.636	0.26460209
935.804	0.26402379
935.972	0.2635043
936.14	0.26364563
936.308	0.26347332
936.476	0.26404545
936.644	0.2639246
936.812	0.26399016
936.98	0.26414975
937.148	0.26400282
937.316	0.26316825
937.484	0.26320805
937.652	0.26241511
937.82	0.26280583
937.987	0.26213303
938.155	0.26207054
938.323	0.2625271
938.491	0.26237491
938.658	0.26327034
938.826	0.26351276
938.994	0.26264531
939.162	0.26297023
939.329	0.26373079
939.497	0.26383429
939.665	0.26485856
939.832	0.26533894
940	0.26631027
940.167	0.26708231
940.335	0.2659914
940.502	0.2645364
940.67	0.26435303
940.837	0.2650384
941.005	0.2635154
941.172	0.26230123
941.34	0.26243056
941.507	0.26492247
941.674	0.26625768
941.842	0.26612387
942.009	0.2669447
942.177	0.26514114
942.344	0.26804076
942.511	0.26781767
942.678	0.26758125
942.846	0.26611094
943.013	0.26591037
943.18	0.26483942
943.347	0.26718245
943.514	0.26536784
943.682	0.26575814
943.849	0.26433623
944.016	0.26482016
944.183	0.26585608
944.35	0.26559958
944.517	0.2674082
944.684	0.26920079
944.851	0.26467426
945.018	0.26482996
945.185	0.26363888
945.352	0.26360714
945.519	0.26284885
945.686	0.26133677
945.853	0.26185477
946.02	0.26353818
946.187	0.26253591
946.353	0.26535347
946.52	0.26457994
946.687	0.26409674
946.854	0.26403724
947.021	0.26042239
947.187	0.26038024
947.354	0.25907095
947.521	0.25748234
947.687	0.25589952
947.854	0.2560956
948.021	0.25329573
948.187	0.25360301
948.354	0.25438202
948.52	0.25575147
948.687	0.25736744
948.854	0.25870591
949.02	0.25681978
949.187	0.25795342
949.353	0.25809805
949.52	0.25644812
949.686	0.25581147
949.852	0.25436752
950.019	0.25396798
950.185	0.25604053
950.352	0.25542287
950.518	0.25443549
950.684	0.25629626
950.851	0.25634619
951.017	0.25581376
951.183	0.25516
951.349	0.2541522
951.516	0.25337602
951.682	0.25417359
951.848	0.25274018
952.014	0.25204202
952.18	0.25172907
952.346	0.25220599
952.512	0.25272167
952.679	0.25388456
952.845	0.2534922
953.011	0.25315906
953.177	0.2535168
953.343	0.25306182
953.509	0.25335957
953.675	0.25177758
953.841	0.25101921
954.007	0.2521297
954.172	0.25332209
954.338	0.25272992
954.504	0.25204781
954.67	0.24959892
954.836	0.25102877
955.002	0.25110504
955.167	0.24948512
955.333	0.24739519
955.499	0.24759595
955.665	0.24701517
955.83	0.24870949
955.996	0.24713979
956.162	0.24655281
956.327	0.24652854
956.493	0.24745778
956.659	0.24842804
956.824	0.24904818
956.99	0.24746609
957.155	0.24787943
957.321	0.24798688
957.486	0.2476541
957.652	0.2469566
957.817	0.24656913
957.983	0.24620343
958.148	0.24648201
958.314	0.24607942
958.479	0.24513211
958.644	0.24534478
958.81	0.24570944
958.975	0.24515604
959.14	0.24503752
959.306	0.24469135
959.471	0.24418902
959.636	0.24378155
959.801	0.2445861
959.967	0.2442022
960.132	0.24380555
960.297	0.243443
960.462	0.24435476
960.627	0.24455279
960.792	0.24454509
960.957	0.24338212
961.123	0.24391704
961.288	0.24351207
961.453	0.24420196
961.618	0.24328973
961.783	0.24374046
961.948	0.24363131
962.113	0.24270689
962.277	0.24197834
962.442	0.2422111
962.607	0.24165574
962.772	0.24164287
962.937	0.24069918
963.102	0.24136978
963.267	0.24158849
963.431	0.24106219
963.596	0.24051533
963.761	0.24008813
963.926	0.23948532
964.09	0.239815
964.255	0.23938627
964.42	0.23950476
964.584	0.2398483
964.749	0.23937574
964.914	0.23910712
965.078	0.23870304
965.243	0.23819581
965.407	0.23768502
965.572	0.23744534
965.736	0.2375887
965.901	0.23838443
966.065	0.23993354
966.23	0.24056552
966.394	0.24122043
966.559	0.24162346
966.723	0.24148224
966.887	0.24107408
967.052	0.24028347
967.216	0.23809563
967.38	0.23681593
967.545	0.23629446
967.709	0.23623839
967.873	0.23698114
968.037	0.23657161
968.202	0.23655818
968.366	0.2379934
968.53	0.23888472
968.694	0.23863539
968.858	0.23846189
969.022	0.23734063
969.187	0.23704087
969.351	0.23735107
969.515	0.23687762
969.679	0.23588922
969.843	0.2355182
970.007	0.23494997
970.171	0.23559955
970.335	0.23601396
970.499	0.23560221
970.662	0.23531981
970.826	0.23591412
970.99	0.2363244
971.154	0.23606894
971.318	0.23563058
971.482	0.23455029
971.645	0.23413836
971.809	0.23472519
971.973	0.2344628
972.137	0.23404213
972.3	0.23409216
972.464	0.23369245
972.628	0.23530907
972.791	0.23641203
972.955	0.23550261
973.119	0.23588273
973.282	0.23582496
973.446	0.23611567
973.609	0.23642861
973.773	0.23521558
973.936	0.23419593
974.1	0.23412723
974.263	0.23407339
974.427	0.23357258
974.59	0.23307028
974.754	0.23271357
974.917	0.2325878
975.08	0.23275852
975.244	0.23228328
975.407	0.23215991
975.57	0.23227834
975.734	0.23213297
975.897	0.23147305
976.06	0.23165211
976.223	0.23157048
976.387	0.2320946
976.55	0.23164281
976.713	0.23125103
976.876	0.23116858
977.039	0.23134189
977.202	0.23066875
977.365	0.22996153
977.528	0.2294632
977.692	0.22993066
977.855	0.2292502
978.018	0.22906947
978.181	0.22916538
978.344	0.22905925
978.506	0.22922403
978.669	0.22830242
978.832	0.22722616
978.995	0.22730068
979.158	0.22883691
979.321	0.22834911
979.484	0.22844562
979.646	0.22781348
979.809	0.22901244
979.972	0.22858622
980.135	0.2294313
980.297	0.2283209
980.46	0.22776146
980.623	0.22834242
980.786	0.22819523
980.948	0.22729261
981.111	0.22712753
981.273	0.22637075
981.436	0.22548464
981.599	0.22642994
981.761	0.22516358
981.924	0.22572266
982.086	0.22583009
982.249	0.22693301
982.411	0.22674064
982.573	0.22660317
982.736	0.22738721
982.898	0.2278522
983.061	0.22789896
983.223	0.22740527
983.385	0.22639338
983.548	0.22722305
983.71	0.2276264
983.872	0.22571529
984.034	0.22537748
984.197	0.22389868
984.359	0.22395354
984.521	0.22534436
984.683	0.22593711
984.845	0.22653988
985.008	0.22673971
985.17	0.22804584
985.332	0.22920483
985.494	0.22893122
985.656	0.22815705
985.818	0.22680771
985.98	0.22586751
986.142	0.2248842
986.304	0.2233026
986.466	0.22256475
986.628	0.2226352
986.79	0.22202929
986.952	0.221056
987.113	0.22136763
987.275	0.22206724
987.437	0.2217132
987.599	0.22143745
987.761	0.22110364
987.922	0.22095454
988.084	0.22169142
988.246	0.22083423
988.408	0.22151557
988.569	0.22194512
988.731	0.22249497
988.893	0.22267375
989.054	0.22379866
989.216	0.22383979
989.377	0.22376881
989.539	0.22345672
989.701	0.22258257
989.862	0.22243031
990.024	0.22202458
990.185	0.22046512
990.347	0.22009573
990.508	0.21911754
990.669	0.21980585
990.831	0.22028693
990.992	0.22103974
991.154	0.22023617
991.315	0.22096652
991.476	0.2216396
991.638	0.22278217
991.799	0.22178935
991.96	0.22192879
992.121	0.22082412
992.283	0.22191675
992.444	0.22150425
992.605	0.22002409
992.766	0.21969152
992.927	0.2185468
993.088	0.21868102
993.249	0.21836679
993.41	0.21804818
993.572	0.21785794
993.733	0.21830227
993.894	0.21755172
994.055	0.21678167
994.216	0.21673059
994.376	0.21582336
994.537	0.21688722
994.698	0.21709912
994.859	0.21704314
995.02	0.21846649
995.181	0.21834458
995.342	0.21808122
995.503	0.21974138
995.663	0.21919595
995.824	0.21820985
995.985	0.22093767
996.146	0.22020786
996.306	0.22079801
996.467	0.22111646
996.628	0.22138898
996.788	0.22038967
996.949	0.22224129
997.11	0.2188067
997.27	0.21775686
997.431	0.21818029
997.591	0.21566959
997.752	0.21295198
997.912	0.21429488
998.073	0.21324975
998.233	0.21377698
998.394	0.21380643
998.554	0.21394545
998.714	0.21554484
998.875	0.21561703
999.035	0.2147267
999.196	0.21331937
999.356	0.21325273
999.516	0.21398953
999.676	0.21499138
999.837	0.21645475
999.997	0.21693363
1000.157	0.21554889
1000.317	0.214751
1000.477	0.21388016
1000.638	0.21305895
1000.798	0.21335838
1000.958	0.21280922
1001.118	0.21352694
1001.278	0.21420666
1001.438	0.21523183
1001.598	0.21599037
1001.758	0.21670527
1001.918	0.21588006
1002.078	0.21333025
1002.238	0.21311753
1002.398	0.21365319
1002.558	0.21322992
1002.718	0.21290943
1002.878	0.21246979
1003.037	0.20846496
1003.197	0.20947377
1003.357	0.20782466
1003.517	0.20878843
1003.677	0.20710538
1003.836	0.20793098
1003.996	0.20799609
1004.156	0.21026749
1004.315	0.21106454
1004.475	0.2147877
1004.635	0.21391063
1004.794	0.21657321
1004.954	0.21515914
1005.114	0.21444373
1005.273	0.21633861
1005.433	0.21264219
1005.592	0.21103971
1005.752	0.21070766
1005.911	0.20924592
1006.071	0.20964246
1006.23	0.2084147
1006.389	0.20645976
1006.549	0.20969438
1006.708	0.20908866
1006.868	0.20582334
1007.027	0.20695896
1007.186	0.20890128
1007.345	0.21215509
1007.505	0.21287452
1007.664	0.21395801
1007.823	0.21420187
1007.982	0.2173869
1008.142	0.21815065
1008.301	0.21653756
1008.46	0.21367401
1008.619	0.21184844
1008.778	0.21054018
1008.937	0.20975067
1009.096	0.20899199
1009.255	0.20942909
1009.414	0.20590421
1009.573	0.20882807
1009.732	0.21172848
1009.891	0.20950431
1010.05	0.21232985
1010.209	0.21235122
1010.368	0.21029702
1010.527	0.21343155
1010.686	0.2144406
1010.845	0.20911628
1011.003	0.21349798
1011.162	0.21061673
1011.321	0.206787
1011.48	0.20953415
1011.638	0.20952245
1011.797	0.20836228
1011.956	0.21288541
1012.115	0.21145181
1012.273	0.20971302
1012.432	0.21316312
1012.59	0.20782003
1012.749	0.20856875
1012.908	0.20649489
1013.066	0.208712
1013.225	0.20582703
1013.383	0.21091322
1013.542	0.20935025
1013.7	0.21263821
1013.859	0.21515486
1014.017	0.21553804
1014.175	0.20969881
1014.334	0.21401469
1014.492	0.21467404
1014.65	0.21659624
1014.809	0.21868123
1014.967	0.2162387
1015.125	0.21818228
1015.284	0.22756445
1015.442	0.22461095
1015.6	0.22099043
1015.758	0.22064301
1015.916	0.21692018
1016.075	0.21573932
1016.233	0.21192314
1016.391	0.20876237
1016.549	0.20900016
1016.707	0.21012185
1016.865	0.21141603
1017.023	0.20825637
1017.181	0.20783486
1017.339	0.20991107
1017.497	0.20741967
1017.655	0.20700189
1017.813	0.20342441
1017.971	0.20170482
1018.129	0.20556652
1018.286	0.20664289
1018.444	0.20145602
1018.602	0.20040143
1018.76	0.19844892
1018.918	0.20295565
1019.075	0.2030438
1019.233	0.20247118
1019.391	0.20004868
1019.549	0.20663038
1019.706	0.20770087
1019.864	0.20968426
1020.022	0.20566442
1020.179	0.21078959
1020.337	0.21044802
1020.494	0.21187259
1020.652	0.20685522
1020.809	0.20855126
1020.967	0.20996964
1021.124	0.20811649
1021.282	0.20929197
1021.439	0.21282397
1021.597	0.21827489
1021.754	0.22284125
1021.911	0.22337627
1022.069	0.22050599
1022.226	0.22151131
1022.384	0.21163839
1022.541	0.2050674
1022.698	0.19869075
1022.855	0.19631654
1023.013	0.19372407
1023.17	0.19069764
1023.327	0.19701888
1023.484	0.20196708
1023.641	0.20525359
1023.798	0.21637834
1023.956	0.22172515
1024.113	0.21796842
1024.27	0.22303855
1024.427	0.21964828
1024.584	0.2195083
1024.741	0.21846889
1024.898	0.20862621
1025.055	0.20015644
1025.212	0.19955465
1025.369	0.19225953
1025.525	0.19331773
1025.682	0.19838986
1025.839	0.20228947
1025.996	0.2062878
1026.153	0.21270741
1026.31	0.22202466
1026.466	0.23608105
1026.623	0.238536
1026.78	0.2331712
1026.937	0.23460111
1027.093	0.23067197
1027.25	0.23825745
1027.407	0.23333276
1027.563	0.2268775
1027.72	0.22274647
1027.876	0.21445295
1028.033	0.21187401
1028.19	0.21433058
1028.346	0.20227134
1028.503	0.20330848
1028.659	0.20452928
1028.816	0.2080582
1028.972	0.22336753
1029.128	0.23078605
1029.285	0.22818752
1029.441	0.23584191
1029.598	0.22743046
1029.754	0.23732558
1029.91	0.23252952
1030.067	0.22320863
1030.223	0.21904759
1030.379	0.22259243
1030.535	0.22378492
1030.691	0.23342382
1030.848	0.23059992
1031.004	0.23603052
1031.16	0.24409338
1031.316	0.25428135
1031.472	0.26030253
1031.628	0.25463855
1031.784	0.25485896
1031.94	0.25896709
1032.096	0.26780037
1032.252	0.25671579
1032.408	0.24967903
1032.564	0.24573592
1032.72	0.25421527
1032.876	0.24636106
1033.032	0.23852839
1033.188	0.22784804
1033.344	0.24345935
1033.5	0.25168106
1033.655	0.24928616
1033.811	0.24915203
1033.967	0.26788491
