Data from 0_1_mm_pl_0pc_Absorbance__0__19-04-45-124.txt Node

Date: Wed Mar 01 19:04:45 CET 2023
User: Ange
Spectrometer: FLMT08341
Trigger mode: 0
Integration Time (sec): 1.000000E-2
Scans to average: 400
Electric dark correction enabled: true
Nonlinearity correction enabled: false
Boxcar width: 3
XAxis mode: Wavelengths
Number of Pixels in Spectrum: 3648
>>>>>Begin Spectral Data<<<<<
345.271	-0.03716692
345.487	-0.03596708
345.704	-0.0357499
345.921	-0.0300288
346.137	-0.03266621
346.354	-0.01000949
346.571	-0.00134613
346.787	-0.0826581
347.004	0.07366284
347.22	-0.05413792
347.437	0.00986708
347.653	0.06323227
347.87	0.07377871
348.086	-0.29922715
348.303	-0.21580618
348.519	0.05443672
348.736	0.03571257
348.952	0.04352688
349.169	0.04613572
349.385	0.04286862
349.601	0.04675641
349.818	0.04690233
350.034	0.04770841
350.251	0.04778331
350.467	0.04694138
350.683	0.04731229
350.9	0.05024808
351.116	0.04957235
351.332	0.05004841
351.549	0.05281065
351.765	0.05565888
351.981	0.05801755
352.197	0.05951209
352.414	0.06003423
352.63	0.06162854
352.846	0.06128763
353.062	0.05876618
353.278	0.05897143
353.495	0.05855071
353.711	0.06054904
353.927	0.06151611
354.143	0.06279513
354.359	0.06342596
354.575	0.06413155
354.792	0.0645803
355.008	0.06425771
355.224	0.06260295
355.44	0.06143464
355.656	0.06052607
355.872	0.06165841
356.088	0.06395688
356.304	0.06484245
356.52	0.06446758
356.736	0.06648126
356.952	0.06768791
357.168	0.06897618
357.384	0.07023586
357.6	0.06869709
357.816	0.06878941
358.032	0.07128123
358.248	0.07144166
358.464	0.07127364
358.679	0.07194507
358.895	0.07209542
359.111	0.07240579
359.327	0.07186702
359.543	0.07343837
359.759	0.07474672
359.974	0.07496411
360.19	0.07417347
360.406	0.07366363
360.622	0.07512036
360.838	0.07530779
361.053	0.07448857
361.269	0.07489924
361.485	0.07661219
361.701	0.07830897
361.916	0.07925481
362.132	0.07936338
362.348	0.0803417
362.563	0.08058436
362.779	0.07956887
362.995	0.08034377
363.21	0.0807067
363.426	0.08062848
363.641	0.08104535
363.857	0.0823218
364.073	0.08284337
364.288	0.08343802
364.504	0.08357664
364.719	0.08271833
364.935	0.08307779
365.15	0.08352599
365.366	0.08477649
365.581	0.0861383
365.797	0.08674727
366.012	0.08665499
366.228	0.08794647
366.443	0.08963146
366.658	0.09090515
366.874	0.089824
367.089	0.08958893
367.305	0.08929563
367.52	0.09067377
367.735	0.09002252
367.951	0.08912214
368.166	0.08940447
368.381	0.09122323
368.597	0.09129478
368.812	0.09239054
369.027	0.09260863
369.243	0.09377866
369.458	0.09577218
369.673	0.09553504
369.888	0.0946138
370.104	0.09475477
370.319	0.09604834
370.534	0.09661169
370.749	0.09697264
370.964	0.09744726
371.179	0.09850178
371.395	0.09887845
371.61	0.09971094
371.825	0.09853734
372.04	0.09852255
372.255	0.09866288
372.47	0.09821391
372.685	0.09763388
372.9	0.09785453
373.115	0.09809361
373.33	0.09932001
373.545	0.09942784
373.76	0.09996771
373.975	0.099487
374.19	0.09974194
374.405	0.10035742
374.62	0.10104288
374.835	0.10192684
375.05	0.10232511
375.265	0.10282681
375.48	0.10349129
375.695	0.10418285
375.91	0.10439266
376.125	0.10440992
376.339	0.10404624
376.554	0.10473515
376.769	0.10463521
376.984	0.10545001
377.199	0.10590883
377.414	0.10579713
377.628	0.10606905
377.843	0.10646525
378.058	0.10739056
378.273	0.10827561
378.487	0.10839002
378.702	0.10970323
378.917	0.11061993
379.131	0.11175901
379.346	0.111462
379.561	0.10982464
379.775	0.10936627
379.99	0.10968917
380.205	0.1091936
380.419	0.10973796
380.634	0.10888278
380.848	0.110438
381.063	0.11200097
381.278	0.11323692
381.492	0.11307661
381.707	0.11359604
381.921	0.11339767
382.136	0.11511538
382.35	0.114456
382.565	0.11427629
382.779	0.1150327
382.994	0.11662339
383.208	0.11696443
383.422	0.11689804
383.637	0.11674602
383.851	0.11772287
384.066	0.11844038
384.28	0.11831159
384.494	0.11862443
384.709	0.11906662
384.923	0.11988846
385.137	0.1194737
385.352	0.11975631
385.566	0.12047841
385.78	0.12108039
385.995	0.12052883
386.209	0.12070724
386.423	0.12168407
386.637	0.12251097
386.852	0.12278101
387.066	0.12272073
387.28	0.12237278
387.494	0.1240907
387.708	0.12445353
387.923	0.1238843
388.137	0.12434812
388.351	0.12515674
388.565	0.12587596
388.779	0.12676327
388.993	0.12673525
389.207	0.12672616
389.421	0.12765334
389.635	0.12796119
389.85	0.12783068
390.064	0.1279255
390.278	0.1283209
390.492	0.1284296
390.706	0.12951848
390.92	0.12989379
391.134	0.13010823
391.348	0.13109892
391.561	0.13122562
391.775	0.13111624
391.989	0.13070196
392.203	0.13116828
392.417	0.13195941
392.631	0.13258021
392.845	0.13236745
393.059	0.13307805
393.273	0.13319834
393.486	0.13359199
393.7	0.13331262
393.914	0.13370894
394.128	0.13358498
394.342	0.13372361
394.555	0.13390969
394.769	0.13414038
394.983	0.13438183
395.197	0.13429968
395.41	0.13416835
395.624	0.13459823
395.838	0.13450304
396.051	0.13511278
396.265	0.13529258
396.479	0.13612234
396.692	0.13679329
396.906	0.13686152
397.12	0.13676773
397.333	0.13758165
397.547	0.13718717
397.76	0.1375642
397.974	0.13746082
398.187	0.13760372
398.401	0.13834336
398.614	0.13873586
398.828	0.13865034
399.041	0.13862956
399.255	0.1392111
399.468	0.13928366
399.682	0.13948615
399.895	0.13922962
400.109	0.13915933
400.322	0.13910485
400.536	0.13928496
400.749	0.13938098
400.962	0.1400106
401.176	0.14015399
401.389	0.14010496
401.602	0.13967456
401.816	0.14016412
402.029	0.14063521
402.242	0.14069242
402.456	0.14008281
402.669	0.1396318
402.882	0.13946009
403.095	0.14038327
403.309	0.1405097
403.522	0.14047652
403.735	0.14042598
403.948	0.14082284
404.161	0.14200077
404.375	0.14198051
404.588	0.14225268
404.801	0.14201054
405.014	0.14191728
405.227	0.1425121
405.44	0.14271356
405.653	0.14276378
405.866	0.14295785
406.079	0.1428345
406.293	0.14325925
406.506	0.14339658
406.719	0.1432053
406.932	0.14310398
407.145	0.14219992
407.358	0.14272321
407.571	0.14254926
407.784	0.14218867
407.996	0.14215717
408.209	0.14150512
408.422	0.14124115
408.635	0.14180416
408.848	0.14163659
409.061	0.14128479
409.274	0.14118997
409.487	0.14099554
409.7	0.14133293
409.912	0.14137039
410.125	0.14120387
410.338	0.14109535
410.551	0.14123252
410.764	0.14134673
410.976	0.14123566
411.189	0.14103849
411.402	0.14070167
411.615	0.14047379
411.827	0.14045181
412.04	0.14034828
412.253	0.14010952
412.465	0.14022526
412.678	0.14002048
412.891	0.14009131
413.103	0.13943484
413.316	0.1392484
413.529	0.13944756
413.741	0.1395939
413.954	0.13941711
414.166	0.13949277
414.379	0.13940806
414.591	0.13979787
414.804	0.1393794
415.016	0.13885769
415.229	0.13828161
415.441	0.1377175
415.654	0.13743255
415.866	0.13755465
416.079	0.13733065
416.291	0.13710269
416.504	0.13721094
416.716	0.13712826
416.928	0.13725749
417.141	0.13685334
417.353	0.13618564
417.566	0.13548145
417.778	0.13515633
417.99	0.13447068
418.203	0.13408959
418.415	0.13363737
418.627	0.1336049
418.839	0.13325565
419.052	0.13363153
419.264	0.13346712
419.476	0.13349363
419.688	0.13341207
419.901	0.13327905
420.113	0.13277738
420.325	0.1326177
420.537	0.13199258
420.749	0.13210353
420.961	0.13189831
421.174	0.13158687
421.386	0.1311862
421.598	0.13094521
421.81	0.13084236
422.022	0.13035353
422.234	0.12960282
422.446	0.12901871
422.658	0.12872003
422.87	0.12847287
423.082	0.12799748
423.294	0.12755642
423.506	0.12757394
423.718	0.12740143
423.93	0.12701065
424.142	0.12644031
424.354	0.12569354
424.566	0.12545089
424.778	0.124901
424.99	0.12465544
425.202	0.12408779
425.414	0.12394952
425.625	0.12360394
425.837	0.12326697
426.049	0.12276389
426.261	0.12255177
426.473	0.12152519
426.684	0.12096049
426.896	0.12056746
427.108	0.12014347
427.32	0.1200895
427.531	0.11976843
427.743	0.11927697
427.955	0.11915386
428.167	0.11883777
428.378	0.11814614
428.59	0.11784163
428.802	0.1173044
429.013	0.11656518
429.225	0.1159696
429.436	0.11541872
429.648	0.11501914
429.86	0.11483355
430.071	0.11418328
430.283	0.11363571
430.494	0.11337709
430.706	0.11283483
430.917	0.11251724
431.129	0.1119732
431.34	0.11128401
431.552	0.11080077
431.763	0.11017991
431.975	0.10988403
432.186	0.10937194
432.398	0.10883213
432.609	0.10827599
432.821	0.10775854
433.032	0.10734687
433.243	0.10684744
433.455	0.10621485
433.666	0.10592757
433.877	0.10571858
434.089	0.10508672
434.3	0.10463244
434.511	0.10394034
434.723	0.1035176
434.934	0.10302118
435.145	0.10242254
435.356	0.1015384
435.568	0.1012637
435.779	0.10059423
435.99	0.10004325
436.201	0.09947028
436.412	0.09888525
436.624	0.09840815
436.835	0.09806086
437.046	0.09765287
437.257	0.09733114
437.468	0.09714252
437.679	0.09689788
437.89	0.09660954
438.101	0.0963814
438.312	0.09600406
438.523	0.09541373
438.734	0.09502391
438.945	0.0946184
439.156	0.09393922
439.367	0.09340515
439.578	0.09268026
439.789	0.09202312
440	0.09176311
440.211	0.09115616
440.422	0.09048907
440.633	0.09014081
440.844	0.08943009
441.055	0.08878121
441.266	0.088331
441.477	0.08773498
441.687	0.08708309
441.898	0.08652727
442.109	0.08596519
442.32	0.08543853
442.531	0.08497227
442.741	0.08413625
442.952	0.08334182
443.163	0.08272385
443.374	0.08204897
443.584	0.08146452
443.795	0.08091133
444.006	0.08023269
444.216	0.07979034
444.427	0.07920944
444.638	0.07868812
444.848	0.07821625
445.059	0.07747166
445.27	0.07697026
445.48	0.0764635
445.691	0.07590698
445.901	0.07549068
446.112	0.07515583
446.323	0.07454819
446.533	0.07413969
446.744	0.07352527
446.954	0.07307175
447.165	0.07243892
447.375	0.07189647
447.586	0.07130917
447.796	0.07079342
448.006	0.07013137
448.217	0.06968771
448.427	0.06920327
448.638	0.06889562
448.848	0.06825575
449.058	0.06764163
449.269	0.06725731
449.479	0.06684641
449.689	0.06621538
449.9	0.06564728
450.11	0.06492485
450.32	0.06443051
450.531	0.06388161
450.741	0.06342871
450.951	0.06285394
451.161	0.06237528
451.372	0.06190949
451.582	0.06161544
451.792	0.06109535
452.002	0.06074716
452.212	0.06002718
452.422	0.05967596
452.633	0.05917976
452.843	0.058672
453.053	0.05800395
453.263	0.05761434
453.473	0.05697047
453.683	0.05663618
453.893	0.05613911
454.103	0.05580033
454.313	0.05532402
454.523	0.05498817
454.733	0.05463969
454.943	0.05437038
455.153	0.05393712
455.363	0.05344694
455.573	0.05304975
455.783	0.05258761
455.993	0.05215798
456.203	0.05158778
456.413	0.05109759
456.623	0.05068046
456.833	0.05023905
457.042	0.04974539
457.252	0.04934979
457.462	0.04889626
457.672	0.04854258
457.882	0.04816198
458.091	0.04775142
458.301	0.0474212
458.511	0.04704492
458.721	0.04670083
458.931	0.04625277
459.14	0.04592717
459.35	0.04558121
459.56	0.04534898
459.769	0.04498645
459.979	0.04458474
460.189	0.04427753
460.398	0.04401528
460.608	0.04359899
460.817	0.04326926
461.027	0.04266368
461.237	0.04222853
461.446	0.04187232
461.656	0.04146868
461.865	0.04108036
462.075	0.04069347
462.284	0.04028312
462.494	0.04002213
462.703	0.03960854
462.913	0.0392588
463.122	0.03892967
463.332	0.03864996
463.541	0.03835319
463.751	0.03802213
463.96	0.03780683
464.169	0.03771629
464.379	0.03739671
464.588	0.03713932
464.797	0.03681265
465.007	0.03663929
465.216	0.03641683
465.425	0.03602047
465.635	0.0355111
465.844	0.03525521
466.053	0.0349401
466.263	0.03464654
466.472	0.03428531
466.681	0.03401713
466.89	0.03371498
467.099	0.03345148
467.309	0.03309933
467.518	0.0328152
467.727	0.03261998
467.936	0.03236749
468.145	0.03203645
468.354	0.03180905
468.563	0.0317131
468.772	0.03155424
468.982	0.03131196
469.191	0.03106867
469.4	0.03077856
469.609	0.03051866
469.818	0.0302904
470.027	0.03004579
470.236	0.02987534
470.445	0.02967894
470.654	0.02937975
470.863	0.02914005
471.072	0.02901714
471.28	0.028757
471.489	0.02855903
471.698	0.02824813
471.907	0.02791071
472.116	0.02782327
472.325	0.02764934
472.534	0.02737702
472.743	0.0272511
472.951	0.02710615
473.16	0.02703811
473.369	0.02703977
473.578	0.02680946
473.786	0.0266359
473.995	0.02654973
474.204	0.02636878
474.413	0.02612622
474.621	0.02588813
474.83	0.02568756
475.039	0.02561763
475.247	0.02550532
475.456	0.02529923
475.665	0.02520095
475.873	0.0249899
476.082	0.02488771
476.291	0.02482208
476.499	0.0246406
476.708	0.02451325
476.916	0.02438892
477.125	0.02427042
477.333	0.02424009
477.542	0.02408962
477.75	0.02387835
477.959	0.02375831
478.167	0.02367537
478.376	0.02351742
478.584	0.02337828
478.793	0.02323051
479.001	0.02310994
479.209	0.02298596
479.418	0.02284466
479.626	0.02272117
479.834	0.02261118
480.043	0.02250164
480.251	0.02243693
480.459	0.02238557
480.668	0.02233139
480.876	0.02221972
481.084	0.02211845
481.293	0.02199392
481.501	0.02182182
481.709	0.02167919
481.917	0.02148293
482.125	0.0213906
482.334	0.02134791
482.542	0.02125071
482.75	0.02124759
482.958	0.02125039
483.166	0.02115106
483.374	0.02113372
483.583	0.02111453
483.791	0.02103169
483.999	0.02096954
484.207	0.02091613
484.415	0.02087056
484.623	0.02090505
484.831	0.02091206
485.039	0.02084247
485.247	0.02077558
485.455	0.02077436
485.663	0.02071963
485.871	0.02062508
486.079	0.02053732
486.287	0.02046945
486.495	0.02040803
486.702	0.02038112
486.91	0.02033006
487.118	0.02026702
487.326	0.02024251
487.534	0.02016596
487.742	0.02008586
487.95	0.02001434
488.157	0.02005295
488.365	0.02005925
488.573	0.02007179
488.781	0.02006431
488.988	0.02006544
489.196	0.02008666
489.404	0.02010007
489.612	0.020023
489.819	0.01998064
490.027	0.01996301
490.235	0.01997055
490.442	0.0199921
490.65	0.01998913
490.857	0.02002356
491.065	0.02000224
491.273	0.01995453
491.48	0.01992554
491.688	0.0199296
491.895	0.01996199
492.103	0.01999037
492.31	0.01996173
492.518	0.01997564
492.725	0.02001396
492.933	0.02010118
493.14	0.02010465
493.348	0.02007735
493.555	0.01999791
493.763	0.02006564
493.97	0.02010223
494.177	0.02013267
494.385	0.02008165
494.592	0.02008876
494.8	0.02017149
495.007	0.02025755
495.214	0.02026603
495.422	0.0202969
495.629	0.02030759
495.836	0.02037555
496.043	0.02038133
496.251	0.02033949
496.458	0.0203301
496.665	0.02030728
496.872	0.02031374
497.08	0.02036859
497.287	0.02039915
497.494	0.02047177
497.701	0.02055083
497.908	0.02062747
498.115	0.02067252
498.322	0.02072957
498.53	0.02075704
498.737	0.02078106
498.944	0.0207807
499.151	0.02081348
499.358	0.02087937
499.565	0.02090592
499.772	0.02096165
499.979	0.02100119
500.186	0.02104109
500.393	0.02114157
500.6	0.02119937
500.807	0.02120611
501.014	0.02135641
501.221	0.0213908
501.427	0.02141984
501.634	0.02153567
501.841	0.02157341
502.048	0.02166792
502.255	0.02172537
502.462	0.02172642
502.669	0.0218096
502.875	0.02191484
503.082	0.0219211
503.289	0.0219989
503.496	0.0220892
503.702	0.02215396
503.909	0.02228503
504.116	0.02237924
504.323	0.02240679
504.529	0.02250479
504.736	0.0225703
504.943	0.02261774
505.149	0.02272932
505.356	0.02276714
505.563	0.02278176
505.769	0.02286732
505.976	0.02295158
506.182	0.02303188
506.389	0.02306921
506.595	0.02313725
506.802	0.0231895
507.008	0.02324142
507.215	0.02332044
507.421	0.0233969
507.628	0.02351049
507.834	0.02362285
508.041	0.0237044
508.247	0.0237739
508.454	0.02392201
508.66	0.02404264
508.866	0.02415442
509.073	0.02420521
509.279	0.02426495
509.486	0.02435187
509.692	0.02444849
509.898	0.02457228
510.105	0.02465461
510.311	0.02476142
510.517	0.02487485
510.723	0.0250254
510.93	0.02514045
511.136	0.02530725
511.342	0.0253954
511.548	0.02550934
511.754	0.02563006
511.961	0.02573052
512.167	0.02580341
512.373	0.02590912
512.579	0.0259728
512.785	0.02607047
512.991	0.02619123
513.197	0.02623893
513.404	0.02633196
513.61	0.02646459
513.816	0.02658519
514.022	0.02669363
514.228	0.02679512
514.434	0.0268658
514.64	0.02696556
514.846	0.02712465
515.052	0.02721904
515.258	0.02728417
515.464	0.02735825
515.669	0.0274501
515.875	0.02758731
516.081	0.02773223
516.287	0.02779568
516.493	0.02790044
516.699	0.0280525
516.905	0.0282162
517.111	0.02836746
517.316	0.02847829
517.522	0.02856944
517.728	0.02872172
517.934	0.02878112
518.139	0.02890872
518.345	0.0289838
518.551	0.02914605
518.757	0.02925761
518.962	0.02936113
519.168	0.02953096
519.374	0.02966374
519.579	0.02977115
519.785	0.0299437
519.991	0.03004154
520.196	0.03017216
520.402	0.03032587
520.607	0.03040837
520.813	0.03054189
521.018	0.03066089
521.224	0.03077719
521.429	0.03087785
521.635	0.03104565
521.84	0.03118599
522.046	0.03129555
522.251	0.0315261
522.457	0.03168861
522.662	0.03182178
522.868	0.03195792
523.073	0.03209982
523.279	0.03227085
523.484	0.03244134
523.689	0.03255932
523.895	0.03269855
524.1	0.03281594
524.305	0.03294088
524.511	0.03300608
524.716	0.03317441
524.921	0.03330642
525.126	0.03342195
525.332	0.03357294
525.537	0.03376227
525.742	0.03391551
525.947	0.03407533
526.153	0.03415473
526.358	0.03430208
526.563	0.03444458
526.768	0.03458887
526.973	0.03476927
527.178	0.03497005
527.383	0.03515645
527.588	0.03531454
527.794	0.03542413
527.999	0.03557568
528.204	0.03572524
528.409	0.03585103
528.614	0.03597934
528.819	0.03613888
529.024	0.03629319
529.229	0.03645406
529.434	0.03662212
529.639	0.03676112
529.843	0.03688755
530.048	0.03703232
530.253	0.03719309
530.458	0.03738048
530.663	0.03763487
530.868	0.03780975
531.073	0.03799916
531.278	0.03812305
531.482	0.03831295
531.687	0.03848533
531.892	0.03866623
532.097	0.03872691
532.302	0.03889908
532.506	0.03904137
532.711	0.0392638
532.916	0.03941
533.12	0.03957925
533.325	0.03972438
533.53	0.03993796
533.734	0.04008303
533.939	0.04025711
534.144	0.04042114
534.348	0.0405967
534.553	0.04072419
534.757	0.04087648
534.962	0.04106681
535.167	0.04120776
535.371	0.04140002
535.576	0.04161359
535.78	0.04178021
535.985	0.04196264
536.189	0.0421317
536.394	0.04222581
536.598	0.04241145
536.803	0.04256343
537.007	0.0427099
537.211	0.04289582
537.416	0.04309199
537.62	0.04329835
537.825	0.04352366
538.029	0.04371709
538.233	0.04390263
538.438	0.04404991
538.642	0.04422099
538.846	0.04436675
539.05	0.04450641
539.255	0.04470509
539.459	0.04487237
539.663	0.04503759
539.867	0.04525046
540.072	0.04543675
540.276	0.04560525
540.48	0.04576523
540.684	0.04592448
540.888	0.04606166
541.092	0.04619281
541.297	0.04636593
541.501	0.04653716
541.705	0.04671751
541.909	0.04689947
542.113	0.04708314
542.317	0.04729836
542.521	0.04750651
542.725	0.0476871
542.929	0.04787045
543.133	0.04804887
543.337	0.04826999
543.541	0.04843833
543.745	0.04864338
543.949	0.04886393
544.153	0.0490482
544.357	0.04924401
544.56	0.04945218
544.764	0.04965049
544.968	0.04980376
545.172	0.04995359
545.376	0.05016485
545.58	0.05034539
545.783	0.05048359
545.987	0.05064506
546.191	0.05080008
546.395	0.0510603
546.598	0.05127665
546.802	0.05144045
547.006	0.05160772
547.21	0.05182731
547.413	0.05207475
547.617	0.05226429
547.821	0.05243816
548.024	0.05262298
548.228	0.05279935
548.431	0.05302606
548.635	0.05319444
548.839	0.05331145
549.042	0.05352446
549.246	0.05369419
549.449	0.05388415
549.653	0.05406343
549.856	0.05425545
550.06	0.05445873
550.263	0.05470965
550.467	0.05487294
550.67	0.05506453
550.874	0.05526576
551.077	0.05549715
551.28	0.05567392
551.484	0.05586496
551.687	0.05604529
551.891	0.0562753
552.094	0.05644547
552.297	0.05662947
552.501	0.05681772
552.704	0.0570477
552.907	0.05722654
553.11	0.05744707
553.314	0.05761583
553.517	0.05783572
553.72	0.05802925
553.923	0.05819742
554.127	0.05832436
554.33	0.0585046
554.533	0.05871203
554.736	0.05887792
554.939	0.05905774
555.142	0.05926586
555.345	0.05946179
555.549	0.05969259
555.752	0.05987341
555.955	0.06001965
556.158	0.06026231
556.361	0.06049536
556.564	0.06067623
556.767	0.06087955
556.97	0.06102226
557.173	0.0612049
557.376	0.06141891
557.579	0.06157131
557.782	0.06174532
557.984	0.06189699
558.187	0.06206244
558.39	0.06231808
558.593	0.06257008
558.796	0.06275491
558.999	0.06294998
559.202	0.06312609
559.404	0.06335877
559.607	0.06357676
559.81	0.06373957
560.013	0.06391946
560.216	0.06413537
560.418	0.06435061
560.621	0.06452102
560.824	0.06471824
561.026	0.06492853
561.229	0.06510906
561.432	0.06533548
561.634	0.06549406
561.837	0.06566513
562.04	0.06590781
562.242	0.06608976
562.445	0.06625878
562.647	0.06646014
562.85	0.06661692
563.053	0.06681338
563.255	0.06699556
563.458	0.0671623
563.66	0.06735509
563.863	0.06755104
564.065	0.06774841
564.268	0.06794809
564.47	0.0681455
564.672	0.06832713
564.875	0.06850188
565.077	0.06867232
565.28	0.06888264
565.482	0.06908017
565.684	0.06928263
565.887	0.06948943
566.089	0.06972317
566.291	0.06988227
566.494	0.0700798
566.696	0.07022889
566.898	0.07036153
567.1	0.07051248
567.303	0.0706792
567.505	0.07083979
567.707	0.07101431
567.909	0.07115926
568.111	0.07130698
568.314	0.07152396
568.516	0.07173718
568.718	0.07188833
568.92	0.07205049
569.122	0.0722518
569.324	0.07247606
569.526	0.07265594
569.728	0.07279684
569.93	0.07296157
570.132	0.07313718
570.334	0.07327576
570.536	0.07342709
570.738	0.07359618
570.94	0.07377945
571.142	0.07397537
571.344	0.07409101
571.546	0.0742596
571.748	0.0744705
571.95	0.07467316
572.152	0.07483054
572.354	0.07499374
572.555	0.07515249
572.757	0.07535687
572.959	0.07552558
573.161	0.07567976
573.363	0.0758177
573.564	0.07599591
573.766	0.07615815
573.968	0.07633207
574.17	0.0764738
574.371	0.0766159
574.573	0.07680674
574.775	0.07694549
574.976	0.07706748
575.178	0.07725465
575.38	0.07741658
575.581	0.0775683
575.783	0.07777288
575.985	0.07788492
576.186	0.07808377
576.388	0.07826799
576.589	0.07841359
576.791	0.07857129
576.992	0.0787425
577.194	0.07880889
577.395	0.07895897
577.597	0.07911026
577.798	0.07925245
578	0.07940263
578.201	0.07953999
578.402	0.07964952
578.604	0.07984325
578.805	0.08002112
579.007	0.0802016
579.208	0.08037947
579.409	0.08051608
579.611	0.08068639
579.812	0.08085563
580.013	0.0810169
580.215	0.08110815
580.416	0.08118963
580.617	0.08126812
580.818	0.08138987
581.019	0.08149053
581.221	0.08165212
581.422	0.08178598
581.623	0.08197574
581.824	0.08207124
582.025	0.08221478
582.226	0.08234394
582.428	0.08251377
582.629	0.08260772
582.83	0.08272717
583.031	0.08283738
583.232	0.08305037
583.433	0.0832298
583.634	0.08332394
583.835	0.08346424
584.036	0.08359184
584.237	0.08371486
584.438	0.08382878
584.639	0.08391507
584.84	0.08404726
585.041	0.08423099
585.242	0.08435897
585.442	0.08451135
585.643	0.08465634
585.844	0.08480411
586.045	0.08493696
586.246	0.08496123
586.447	0.08506218
586.647	0.08513073
586.848	0.08520251
587.049	0.08527526
587.25	0.08535952
587.45	0.08546723
587.651	0.0856128
587.852	0.0856764
588.053	0.08584368
588.253	0.0859675
588.454	0.08608578
588.655	0.08619014
588.855	0.08625884
589.056	0.08634423
589.256	0.08648147
589.457	0.08651019
589.658	0.08662551
589.858	0.08669211
590.059	0.08682297
590.259	0.0869676
590.46	0.08708835
590.66	0.08720537
590.861	0.087329
591.061	0.08740458
591.262	0.08755012
591.462	0.08764905
591.662	0.08773601
591.863	0.08780491
592.063	0.087883
592.264	0.08799581
592.464	0.08811148
592.664	0.08819456
592.865	0.08831808
593.065	0.08837217
593.265	0.08846685
593.465	0.0885166
593.666	0.08854892
593.866	0.08857468
594.066	0.0886721
594.266	0.08869817
594.467	0.08879194
594.667	0.0888424
594.867	0.08896367
595.067	0.08903263
595.267	0.08914738
595.467	0.08919118
595.668	0.08924164
595.868	0.08930228
596.068	0.08935891
596.268	0.08938334
596.468	0.08949202
596.668	0.08951764
596.868	0.08955181
597.068	0.08959159
597.268	0.08963592
597.468	0.08971731
597.668	0.08982151
597.868	0.08987461
598.068	0.08995778
598.268	0.09003105
598.467	0.090121
598.667	0.09014826
598.867	0.09021669
599.067	0.09025868
599.267	0.09027773
599.467	0.09032702
599.667	0.09031747
599.866	0.09030624
600.066	0.09038109
600.266	0.09036896
600.466	0.09037856
600.665	0.09040233
600.865	0.09039906
601.065	0.0904791
601.264	0.09051892
601.464	0.09052659
601.664	0.09061619
601.863	0.09064687
602.063	0.09070438
602.263	0.09073062
602.462	0.09078657
602.662	0.0908347
602.861	0.09087238
603.061	0.09088928
603.26	0.090916
603.46	0.09092445
603.659	0.09092877
603.859	0.09092363
604.058	0.09092288
604.258	0.09099255
604.457	0.09104959
604.657	0.0910335
604.856	0.09099539
605.056	0.09104642
605.255	0.09104124
605.454	0.09109077
605.654	0.09102804
605.853	0.09098873
606.052	0.09101028
606.252	0.09105913
606.451	0.09108412
606.65	0.09105866
606.849	0.0910347
607.049	0.0910265
607.248	0.09100276
607.447	0.09098928
607.646	0.09101523
607.845	0.09098762
608.045	0.09094176
608.244	0.09095608
608.443	0.09096981
608.642	0.09101413
608.841	0.09102238
609.04	0.09095339
609.239	0.09095368
609.438	0.09098687
609.637	0.09096253
609.836	0.09095363
610.035	0.09090716
610.234	0.0909097
610.433	0.09092435
610.632	0.09087662
610.831	0.09092831
611.03	0.09087339
611.229	0.09087521
611.428	0.09082662
611.627	0.09076912
611.826	0.0907428
612.025	0.09081279
612.224	0.09074129
612.422	0.09075076
612.621	0.09069141
612.82	0.09070176
613.019	0.09069459
613.218	0.09067833
613.416	0.09057363
613.615	0.09057857
613.814	0.09057528
614.012	0.09057772
614.211	0.09053106
614.41	0.0905189
614.608	0.09045906
614.807	0.09041266
615.006	0.09036269
615.204	0.0902946
615.403	0.09027259
615.602	0.09024587
615.8	0.09020971
615.999	0.0901221
616.197	0.0901
616.396	0.090039
616.594	0.08999588
616.793	0.08998545
616.991	0.08993743
617.19	0.08983687
617.388	0.08991723
617.586	0.08986459
617.785	0.08979076
617.983	0.08976021
618.182	0.08965183
618.38	0.08958583
618.578	0.0895544
618.777	0.08947141
618.975	0.08943431
619.173	0.08944331
619.372	0.08936053
619.57	0.08929964
619.768	0.08928603
619.966	0.08927083
620.165	0.0891787
620.363	0.08911092
620.561	0.08899461
620.759	0.08894453
620.957	0.08888025
621.155	0.08879237
621.354	0.08868053
621.552	0.08864248
621.75	0.08856536
621.948	0.08854511
622.146	0.08847617
622.344	0.08840141
622.542	0.08832061
622.74	0.08824361
622.938	0.08809963
623.136	0.088035
623.334	0.0879771
623.532	0.0878346
623.73	0.08778525
623.928	0.08775666
624.126	0.08773087
624.324	0.08775129
624.522	0.0876374
624.719	0.08750441
624.917	0.0875432
625.115	0.08743219
625.313	0.08736657
625.511	0.08728666
625.708	0.0870782
625.906	0.08700922
626.104	0.08693432
626.302	0.08686255
626.499	0.0867783
626.697	0.08664298
626.895	0.08650665
627.093	0.08643846
627.29	0.08636012
627.488	0.08630527
627.686	0.08617607
627.883	0.08605837
628.081	0.08590813
628.278	0.0859124
628.476	0.08581298
628.673	0.08573195
628.871	0.08564647
629.068	0.08551581
629.266	0.0854511
629.463	0.08534077
629.661	0.08516433
629.858	0.08507035
630.056	0.08493012
630.253	0.08475154
630.451	0.08466426
630.648	0.0845591
630.845	0.08446516
631.043	0.08437451
631.24	0.08431608
631.438	0.08424829
631.635	0.08415771
631.832	0.08399835
632.029	0.08388495
632.227	0.08381781
632.424	0.08369137
632.621	0.08355333
632.818	0.08341368
633.016	0.0833411
633.213	0.08321105
633.41	0.08311917
633.607	0.08299826
633.804	0.08286652
634.001	0.08270418
634.199	0.08262092
634.396	0.08250293
634.593	0.08235809
634.79	0.08223927
634.987	0.08211653
635.184	0.08202616
635.381	0.08199492
635.578	0.08191317
635.775	0.08177885
635.972	0.08173873
636.169	0.08157292
636.366	0.08143306
636.563	0.08129628
636.76	0.08107687
636.957	0.08091199
637.153	0.08070934
637.35	0.08058052
637.547	0.0804683
637.744	0.08034594
637.941	0.08020883
638.138	0.08016166
638.334	0.08000838
638.531	0.07996348
638.728	0.07983983
638.925	0.07977183
639.121	0.07961615
639.318	0.07951211
639.515	0.0793453
639.711	0.07923852
639.908	0.07906084
640.105	0.07892799
640.301	0.07875066
640.498	0.07866323
640.695	0.07852137
640.891	0.07838738
641.088	0.07822033
641.284	0.07808391
641.481	0.07789581
641.677	0.07773023
641.874	0.07754038
642.07	0.0773862
642.267	0.07727133
642.463	0.07715004
642.66	0.07703558
642.856	0.07692302
643.053	0.07674582
643.249	0.07661947
643.445	0.07650931
643.642	0.07632621
643.838	0.07618733
644.034	0.07606707
644.231	0.07592482
644.427	0.07584537
644.623	0.07573132
644.82	0.07554701
645.016	0.07541579
645.212	0.07524629
645.408	0.07503811
645.604	0.07493566
645.801	0.07478923
645.997	0.07462375
646.193	0.07446885
646.389	0.07434363
646.585	0.07420365
646.781	0.07407277
646.977	0.07386197
647.173	0.07367146
647.37	0.07348864
647.566	0.07336356
647.762	0.07322106
647.958	0.0731029
648.154	0.07292858
648.35	0.07282928
648.546	0.07267214
648.742	0.07258285
648.937	0.07231441
649.133	0.07215363
649.329	0.07195742
649.525	0.07184912
649.721	0.07167089
649.917	0.07157112
650.113	0.0713471
650.309	0.07130863
650.504	0.07107502
650.7	0.07089035
650.896	0.0707162
651.092	0.07058431
651.287	0.07040938
651.483	0.07030453
651.679	0.07012023
651.875	0.07001846
652.07	0.06989841
652.266	0.0697094
652.462	0.06950733
652.657	0.06934001
652.853	0.06913993
653.048	0.06897045
653.244	0.06874246
653.44	0.06853718
653.635	0.06832445
653.831	0.06815137
654.026	0.0679957
654.222	0.06784417
654.417	0.06770356
654.613	0.06761344
654.808	0.0674458
655.004	0.06735708
655.199	0.0671813
655.394	0.06701002
655.59	0.06688132
655.785	0.06668623
655.98	0.06650808
656.176	0.06635452
656.371	0.06621891
656.566	0.06607271
656.762	0.06589587
656.957	0.06569394
657.152	0.06555084
657.348	0.06540112
657.543	0.06522384
657.738	0.06503977
657.933	0.06482115
658.128	0.06463151
658.324	0.06441338
658.519	0.06419765
658.714	0.06402141
658.909	0.06384613
659.104	0.06366667
659.299	0.06350807
659.494	0.06333852
659.689	0.06320635
659.884	0.06307854
660.079	0.0628936
660.274	0.06273612
660.469	0.06256465
660.664	0.06244065
660.859	0.06228087
661.054	0.06209322
661.249	0.06188173
661.444	0.06167896
661.639	0.06152424
661.834	0.06132097
662.029	0.0611618
662.224	0.06098895
662.418	0.06084905
662.613	0.06070311
662.808	0.06052423
663.003	0.06032165
663.198	0.06019713
663.392	0.05997545
663.587	0.05983607
663.782	0.05963276
663.977	0.05944124
664.171	0.05929674
664.366	0.05914842
664.561	0.05891298
664.755	0.05877288
664.95	0.0585787
665.144	0.05843943
665.339	0.05827513
665.534	0.05809731
665.728	0.05791373
665.923	0.05775963
666.117	0.05755892
666.312	0.05735942
666.506	0.057226
666.701	0.05705751
666.895	0.05685856
667.09	0.05666951
667.284	0.05652558
667.479	0.05635512
667.673	0.05618719
667.867	0.05595036
668.062	0.05577416
668.256	0.05565308
668.45	0.05554151
668.645	0.05533344
668.839	0.05515694
669.033	0.05497691
669.228	0.05480474
669.422	0.05463983
669.616	0.05445709
669.81	0.05425741
670.004	0.05409065
670.199	0.05395931
670.393	0.05378645
670.587	0.05361122
670.781	0.05339344
670.975	0.05322229
671.169	0.05299727
671.363	0.05283095
671.558	0.05260371
671.752	0.05242949
671.946	0.05226976
672.14	0.05210836
672.334	0.05190888
672.528	0.05180175
672.722	0.05159499
672.916	0.05145846
673.11	0.05126461
673.304	0.05112983
673.497	0.05095356
673.691	0.05076725
673.885	0.0505583
674.079	0.05042129
674.273	0.05021675
674.467	0.05009471
674.661	0.04985768
674.854	0.04972649
675.048	0.04962032
675.242	0.04950214
675.436	0.04933802
675.629	0.049167
675.823	0.04897216
676.017	0.04884077
676.211	0.04865455
676.404	0.04845898
676.598	0.04823791
676.792	0.04803781
676.985	0.04788483
677.179	0.04770115
677.372	0.04750416
677.566	0.04733111
677.76	0.04714949
677.953	0.04699898
678.147	0.04686156
678.34	0.04671003
678.534	0.04654632
678.727	0.04636677
678.921	0.04619799
679.114	0.04602384
679.307	0.04587482
679.501	0.04569133
679.694	0.0455173
679.888	0.0453471
680.081	0.04523482
680.274	0.04507813
680.468	0.04492975
680.661	0.04473902
680.854	0.04464101
681.048	0.04448777
681.241	0.04433775
681.434	0.04413339
681.627	0.04397717
681.821	0.04378114
682.014	0.04360364
682.207	0.0434031
682.4	0.04323824
682.593	0.04308351
682.786	0.04293634
682.98	0.04276246
683.173	0.04262667
683.366	0.04246829
683.559	0.04225052
683.752	0.04206862
683.945	0.04187984
684.138	0.04173698
684.331	0.04156828
684.524	0.04141789
684.717	0.04126453
684.91	0.0411592
685.103	0.04100509
685.296	0.04087525
685.489	0.04072188
685.682	0.04055939
685.874	0.04038914
686.067	0.04025826
686.26	0.04006185
686.453	0.03992954
686.646	0.03973674
686.839	0.03954025
687.031	0.03939824
687.224	0.03922581
687.417	0.03907663
687.61	0.03894468
687.802	0.03875323
687.995	0.03860851
688.188	0.03847045
688.38	0.0382683
688.573	0.03807191
688.766	0.03787352
688.958	0.03767129
689.151	0.03749991
689.343	0.03736469
689.536	0.03719447
689.729	0.03710586
689.921	0.03698695
690.114	0.03680737
690.306	0.03668733
690.499	0.03652664
690.691	0.0363811
690.884	0.03625277
691.076	0.03608072
691.268	0.03595335
691.461	0.03578964
691.653	0.03563073
691.846	0.03553011
692.038	0.03532365
692.23	0.03516529
692.423	0.0349922
692.615	0.03478259
692.807	0.03465542
692.999	0.03450811
693.192	0.03432843
693.384	0.03417309
693.576	0.03400372
693.768	0.03385331
693.961	0.03373219
694.153	0.0336161
694.345	0.03347811
694.537	0.03332662
694.729	0.0332077
694.921	0.03304822
695.113	0.03290455
695.305	0.03273255
695.498	0.03256849
695.69	0.03238757
695.882	0.03225896
696.074	0.03210575
696.266	0.03199327
696.458	0.03182495
696.65	0.03172503
696.842	0.03153319
697.033	0.0314243
697.225	0.03124215
697.417	0.03115405
697.609	0.03103279
697.801	0.03094654
697.993	0.03081819
698.185	0.0307306
698.376	0.03059599
698.568	0.03050727
698.76	0.03034969
698.952	0.0301973
699.144	0.03005848
699.335	0.02992682
699.527	0.02977388
699.719	0.02963312
699.91	0.02951497
700.102	0.02934125
700.294	0.02920178
700.485	0.02903471
700.677	0.02884569
700.869	0.02874575
701.06	0.02864479
701.252	0.02851157
701.443	0.02837452
701.635	0.02821
701.826	0.02804009
702.018	0.02793561
702.209	0.02775951
702.401	0.0275713
702.592	0.02740616
702.784	0.02731102
702.975	0.02719029
703.166	0.02715746
703.358	0.02701299
703.549	0.02688162
703.741	0.02675677
703.932	0.02659427
704.123	0.02646826
704.315	0.02637413
704.506	0.02620836
704.697	0.02607879
704.888	0.0259727
705.08	0.02586305
705.271	0.02577168
705.462	0.02559278
705.653	0.02541001
705.844	0.02526943
706.035	0.02513633
706.227	0.02500825
706.418	0.02486119
706.609	0.02474337
706.8	0.02468459
706.991	0.02459651
707.182	0.02449468
707.373	0.02436545
707.564	0.02424573
707.755	0.02415103
707.946	0.02402581
708.137	0.02384798
708.328	0.0236943
708.519	0.02356434
708.71	0.02348386
708.901	0.02336946
709.092	0.02323049
709.283	0.02313151
709.473	0.02306172
709.664	0.02297498
709.855	0.02284369
710.046	0.02272763
710.237	0.02261369
710.427	0.02250641
710.618	0.02237543
710.809	0.02223508
711	0.02210077
711.19	0.02197433
711.381	0.02183455
711.572	0.02175362
711.762	0.02166727
711.953	0.02155236
712.144	0.02142939
712.334	0.02128666
712.525	0.02119075
712.715	0.02109327
712.906	0.0209115
713.097	0.02079709
713.287	0.02066517
713.478	0.02059954
713.668	0.02056963
713.859	0.0204857
714.049	0.02038686
714.239	0.0203318
714.43	0.02021296
714.62	0.02018722
714.811	0.02002583
715.001	0.0198566
715.191	0.01972568
715.382	0.01961809
715.572	0.01954571
715.762	0.01945772
715.953	0.01932059
716.143	0.01925161
716.333	0.01915681
716.523	0.01907433
716.714	0.01897119
716.904	0.0188136
717.094	0.01873768
717.284	0.01861909
717.474	0.01853138
717.664	0.01846595
717.855	0.01836687
718.045	0.01827807
718.235	0.01817025
718.425	0.01804283
718.615	0.01795665
718.805	0.01789356
718.995	0.01780792
719.185	0.01769014
719.375	0.0175955
719.565	0.01755928
719.755	0.01744902
719.945	0.01733931
720.135	0.01717393
720.325	0.0170663
720.515	0.01700963
720.704	0.01693487
720.894	0.01683728
721.084	0.01677202
721.274	0.01671251
721.464	0.01666996
721.654	0.01659809
721.843	0.01646508
722.033	0.0163792
722.223	0.01623474
722.413	0.01618172
722.602	0.01605707
722.792	0.01597017
722.982	0.01585363
723.171	0.0157775
723.361	0.01563926
723.55	0.01556729
723.74	0.01542734
723.93	0.01535398
724.119	0.01526177
724.309	0.01520284
724.498	0.01510494
724.688	0.01506255
724.877	0.01497055
725.067	0.01488629
725.256	0.01480148
725.446	0.01470637
725.635	0.0145903
725.825	0.01453339
726.014	0.01445675
726.203	0.01441589
726.393	0.01436173
726.582	0.01429572
726.771	0.01421923
726.961	0.01416142
727.15	0.01409854
727.339	0.01400506
727.529	0.01387729
727.718	0.01374779
727.907	0.01366443
728.096	0.01356269
728.286	0.01344104
728.475	0.01329883
728.664	0.01318359
728.853	0.01312316
729.042	0.01304486
729.231	0.01294106
729.42	0.01290393
729.609	0.01284472
729.799	0.01279596
729.988	0.01274968
730.177	0.01270703
730.366	0.01262491
730.555	0.0125103
730.744	0.0124179
730.933	0.01235678
731.122	0.01227997
731.31	0.01220867
731.499	0.01208772
731.688	0.01197847
731.877	0.01191552
732.066	0.01183562
732.255	0.01178609
732.444	0.01174935
732.632	0.01165402
732.821	0.01162356
733.01	0.01158994
733.199	0.01152799
733.388	0.0114184
733.576	0.01131869
733.765	0.01124136
733.954	0.01121495
734.142	0.01110619
734.331	0.01105496
734.52	0.01100184
734.708	0.01094602
734.897	0.01087582
735.086	0.01078894
735.274	0.0107322
735.463	0.01068094
735.651	0.01058607
735.84	0.01052535
736.028	0.01043932
736.217	0.01039902
736.405	0.0103369
736.594	0.01022559
736.782	0.0101651
736.971	0.01010971
737.159	0.01001879
737.347	0.00998993
737.536	0.00991549
737.724	0.00979553
737.912	0.00971849
738.101	0.00958642
738.289	0.00953673
738.477	0.009471
738.666	0.00936382
738.854	0.00930125
739.042	0.00927256
739.23	0.00923398
739.418	0.00922029
739.607	0.00913633
739.795	0.00910492
739.983	0.00910604
740.171	0.00906867
740.359	0.00902655
740.547	0.00894
740.735	0.00881925
740.923	0.00875835
741.112	0.00866819
741.3	0.00856315
741.488	0.00845486
741.676	0.00841186
741.864	0.00837226
742.052	0.00836798
742.239	0.00836336
742.427	0.00832467
742.615	0.00826023
742.803	0.00820492
742.991	0.00813007
743.179	0.0080558
743.367	0.00799718
743.555	0.00788166
743.742	0.00784888
743.93	0.0078635
744.118	0.00779519
744.306	0.00771917
744.494	0.00766263
744.681	0.00761158
744.869	0.00757394
745.057	0.0075144
745.244	0.00746299
745.432	0.00740418
745.62	0.00737656
745.807	0.00737814
745.995	0.00740656
746.182	0.00739964
746.37	0.00732655
746.558	0.00725007
746.745	0.00726878
746.933	0.00718985
747.12	0.00712141
747.308	0.00700569
747.495	0.00694111
747.683	0.00692266
747.87	0.00687037
748.057	0.00679058
748.245	0.00678146
748.432	0.00670427
748.62	0.00665098
748.807	0.00661624
748.994	0.00653649
749.182	0.00643528
749.369	0.00638088
749.556	0.00638562
749.743	0.00638658
749.931	0.00635396
750.118	0.00628098
750.305	0.00626058
750.492	0.00626546
750.68	0.0062255
750.867	0.00612175
751.054	0.00608999
751.241	0.00605151
751.428	0.00602055
751.615	0.00597546
751.802	0.00594441
751.989	0.00590236
752.176	0.0058534
752.363	0.00574019
752.55	0.00570662
752.737	0.00567834
752.924	0.00561823
753.111	0.00556439
753.298	0.00553926
753.485	0.00553114
753.672	0.00553371
753.859	0.00549912
754.046	0.0054535
754.233	0.00540497
754.42	0.00535489
754.606	0.00527521
754.793	0.00518814
754.98	0.0051567
755.167	0.0051094
755.353	0.00506516
755.54	0.00506676
755.727	0.00506862
755.914	0.0050738
756.1	0.00506197
756.287	0.00501898
756.474	0.0049709
756.66	0.00491064
756.847	0.00486384
757.033	0.00478411
757.22	0.00477507
757.407	0.00474962
757.593	0.00469433
757.78	0.00469491
757.966	0.00465385
758.153	0.00463709
758.339	0.00463842
758.526	0.00457066
758.712	0.00453822
758.898	0.00449073
759.085	0.00441712
759.271	0.0044258
759.458	0.0043231
759.644	0.00429011
759.83	0.00423859
760.017	0.00419823
760.203	0.00417689
760.389	0.0041313
760.576	0.00404988
760.762	0.00406988
760.948	0.00402072
761.134	0.00396868
761.32	0.00391299
761.507	0.00389637
761.693	0.00393275
761.879	0.00394556
762.065	0.00392546
762.251	0.00393739
762.437	0.00395583
762.623	0.00394957
762.809	0.00397765
762.995	0.00389673
763.181	0.00383311
763.367	0.00376372
763.553	0.00367728
763.739	0.00363961
763.925	0.00367395
764.111	0.0035794
764.297	0.00352082
764.483	0.00351534
764.669	0.00343219
764.855	0.0034136
765.041	0.00338208
765.227	0.00327107
765.412	0.00328032
765.598	0.00330587
765.784	0.00325889
765.97	0.00331357
766.156	0.00332397
766.341	0.00328307
766.527	0.00324116
766.713	0.00312534
766.898	0.00307871
767.084	0.0030594
767.27	0.00305414
767.455	0.00296982
767.641	0.00294799
767.827	0.00295085
768.012	0.00301438
768.198	0.0030134
768.383	0.00299076
768.569	0.00290301
768.754	0.00288022
768.94	0.00284545
769.125	0.002846
769.311	0.00279008
769.496	0.00278269
769.682	0.00277536
769.867	0.00282557
770.052	0.00283791
770.238	0.00285982
770.423	0.00280997
770.608	0.00279458
770.794	0.00275883
770.979	0.00264751
771.164	0.00253046
771.35	0.00253261
771.535	0.00247018
771.72	0.00248381
771.905	0.002483
772.09	0.00243326
772.276	0.00252858
772.461	0.00261881
772.646	0.00254687
772.831	0.00254464
773.016	0.00245758
773.201	0.00241799
773.386	0.00241064
773.571	0.0023709
773.756	0.00229852
773.941	0.00228859
774.126	0.00228556
774.311	0.00230024
774.496	0.00227105
774.681	0.00222275
774.866	0.00216488
775.051	0.00212563
775.236	0.0020955
775.421	0.00200428
775.606	0.00194241
775.791	0.00193039
775.976	0.00186782
776.16	0.00185619
776.345	0.00186291
776.53	0.00188102
776.715	0.0019514
776.899	0.00199504
777.084	0.0019888
777.269	0.00201304
777.454	0.00200039
777.638	0.00195523
777.823	0.0019339
778.008	0.00183926
778.192	0.00177012
778.377	0.00175069
778.561	0.0017616
778.746	0.00179481
778.931	0.00178909
779.115	0.00170752
779.3	0.00168674
779.484	0.00167542
779.669	0.0016075
779.853	0.00153466
780.037	0.00141671
780.222	0.00140316
780.406	0.00146358
780.591	0.00148193
780.775	0.00149207
780.959	0.00150547
781.144	0.00151853
781.328	0.00157556
781.512	0.00153733
781.697	0.00147735
781.881	0.00143785
782.065	0.00139685
782.249	0.00140044
782.434	0.00139237
782.618	0.00132774
782.802	0.00134161
782.986	0.00134907
783.17	0.00136906
783.354	0.00135661
783.539	0.00132435
783.723	0.00131307
783.907	0.00131373
784.091	0.00122833
784.275	0.0011677
784.459	0.00110964
784.643	0.00110523
784.827	0.00111915
785.011	0.00109648
785.195	0.00103182
785.379	0.00108872
785.563	0.00105375
785.747	0.0010566
785.93	0.00097635
786.114	0.00090357
786.298	0.00086985
786.482	0.00093473
786.666	0.00089877
786.85	0.00093604
787.033	0.00096117
787.217	0.00105417
787.401	0.00103338
787.585	0.00105092
787.768	0.00105247
787.952	0.00105098
788.136	0.00101947
788.319	0.000979
788.503	0.00092921
788.687	0.00093174
788.87	0.00090241
789.054	0.00083725
789.237	0.00081479
789.421	0.00084687
789.605	0.00084141
789.788	0.00082127
789.972	0.00079823
790.155	0.00078744
790.338	0.00077085
790.522	0.00076161
790.705	0.00074966
790.889	0.00071983
791.072	0.00075547
791.256	0.00075276
791.439	0.00075039
791.622	0.00072874
791.806	0.00074947
791.989	0.00065037
792.172	0.00066773
792.355	0.00062463
792.539	0.0006328
792.722	0.00061966
792.905	0.00060979
793.088	0.0005845
793.271	0.00063967
793.455	0.00058751
793.638	0.0005747
793.821	0.0005798
794.004	0.00061584
794.187	0.00067923
794.37	0.00060585
794.553	0.0005888
794.736	0.000545
794.919	0.00053544
795.102	0.0005091
795.285	0.00044898
795.468	0.0004027
795.651	0.00048677
795.834	0.00050177
796.017	0.00052732
796.2	0.00052292
796.383	0.00051592
796.566	0.00051119
796.749	0.00051025
796.931	0.00044481
797.114	0.0003318
797.297	0.00030896
797.48	0.00031291
797.663	0.00026918
797.845	0.00024425
798.028	0.00024851
798.211	0.00023418
798.393	0.00032647
798.576	0.00036171
798.759	0.00032666
798.941	0.00035205
799.124	0.0004053
799.307	0.00033806
799.489	0.00032551
799.672	0.0002506
799.854	0.00024023
800.037	0.00024696
800.219	0.00027599
800.402	0.00024038
800.584	0.00028741
800.767	0.0002803
800.949	0.00030966
801.132	0.00029066
801.314	0.00022701
801.496	0.00015095
801.679	0.00011948
801.861	0.00004994
802.043	0.00001438
802.226	0.00006971
802.408	0.00011462
802.59	0.00021749
802.772	0.00026421
802.955	0.00028921
803.137	0.00028375
803.319	0.00035439
803.501	0.00026575
803.684	0.00018381
803.866	0.00008753
804.048	0.00004526
804.23	0.00000441
804.412	0.00003672
804.594	0.00001497
804.776	0.00001073
804.958	0.00002345
805.14	0.00002608
805.322	0.00003771
805.504	-0.00000155
805.686	-0.00005935
805.868	-0.00011589
806.05	-0.00011642
806.232	-0.00018192
806.414	-0.00018555
806.596	-0.00024301
806.778	-0.000209
806.96	-0.00017926
807.141	-0.00017113
807.323	-0.00015272
807.505	-0.00014275
807.687	-0.00012676
807.869	-0.00014588
808.05	-0.00021398
808.232	-0.00021629
808.414	-0.00023897
808.595	-0.00029219
808.777	-0.00025172
808.959	-0.00025275
809.14	-0.00016633
809.322	-0.00006903
809.504	-0.00005942
809.685	-0.00001396
809.867	0.00001026
810.048	0.00002633
810.23	0.00001901
810.411	-0.00002064
810.593	-0.00003648
810.774	-0.00009518
810.956	-0.00011637
811.137	-0.00009954
811.319	-0.00015542
811.5	-0.00023388
811.681	-0.00027564
811.863	-0.00033557
812.044	-0.00025536
812.225	-0.00025258
812.407	-0.00028698
812.588	-0.00028948
812.769	-0.00024176
812.951	-0.00022779
813.132	-0.00027653
813.313	-0.00035936
813.494	-0.00038042
813.675	-0.00044988
813.857	-0.00041802
814.038	-0.00042326
814.219	-0.00041156
814.4	-0.00035018
814.581	-0.000335
814.762	-0.00030158
814.943	-0.00023434
815.124	-0.0003116
815.305	-0.00037127
815.486	-0.00041153
815.667	-0.00043944
815.848	-0.0004228
816.029	-0.00047816
816.21	-0.0005125
816.391	-0.00046722
816.572	-0.00041382
816.753	-0.00039691
816.934	-0.00039332
817.115	-0.00038292
817.295	-0.00037153
817.476	-0.00034624
817.657	-0.000319
817.838	-0.00034567
818.019	-0.00038397
818.199	-0.00037276
818.38	-0.00043964
818.561	-0.00043009
818.741	-0.00044614
818.922	-0.0004777
819.103	-0.00048918
819.283	-0.00043699
819.464	-0.00045787
819.645	-0.00039849
819.825	-0.00039515
820.006	-0.00041611
820.186	-0.00041902
820.367	-0.00035332
820.547	-0.00036569
820.728	-0.00036816
820.908	-0.00037636
821.089	-0.0004147
821.269	-0.00035535
821.45	-0.00036865
821.63	-0.00042916
821.81	-0.00043001
821.991	-0.00042017
822.171	-0.00043783
822.351	-0.00042952
822.532	-0.00049247
822.712	-0.00043684
822.892	-0.00049162
823.072	-0.00052487
823.253	-0.00052338
823.433	-0.00051674
823.613	-0.0005138
823.793	-0.00048228
823.973	-0.00050161
824.154	-0.00041876
824.334	-0.00038596
824.514	-0.00040346
824.694	-0.00042552
824.874	-0.00043355
825.054	-0.00046688
825.234	-0.00049961
825.414	-0.00046014
825.594	-0.00053812
825.774	-0.00058845
825.954	-0.00056283
826.134	-0.00053071
826.314	-0.00045424
826.494	-0.00042488
826.674	-0.00047757
826.854	-0.00040182
827.033	-0.00033297
827.213	-0.00037239
827.393	-0.00041752
827.573	-0.00046506
827.753	-0.00053058
827.932	-0.0005407
828.112	-0.00054534
828.292	-0.00057991
828.472	-0.00054101
828.651	-0.00051871
828.831	-0.00057212
829.011	-0.00056084
829.19	-0.00052005
829.37	-0.00050865
829.549	-0.00054966
829.729	-0.00067751
829.909	-0.0007365
830.088	-0.0007421
830.268	-0.00076891
830.447	-0.00083798
830.627	-0.00091011
830.806	-0.00083623
830.986	-0.00078494
831.165	-0.0007828
831.344	-0.00073249
831.524	-0.00070609
831.703	-0.00064661
831.883	-0.00057672
832.062	-0.00059097
832.241	-0.00061068
832.421	-0.00063904
832.6	-0.00072004
832.779	-0.00071272
832.958	-0.0007887
833.138	-0.00078104
833.317	-0.0008462
833.496	-0.00075893
833.675	-0.00068412
833.854	-0.00061657
834.034	-0.00054957
834.213	-0.00050849
834.392	-0.00057664
834.571	-0.00055401
834.75	-0.00059597
834.929	-0.00064642
835.108	-0.00071748
835.287	-0.00079801
835.466	-0.00076803
835.645	-0.00071939
835.824	-0.00062784
836.003	-0.00057883
836.182	-0.00050548
836.361	-0.00047338
836.54	-0.00049671
836.719	-0.00051814
836.897	-0.00057313
837.076	-0.00059596
837.255	-0.00070676
837.434	-0.00075907
837.613	-0.00075383
837.791	-0.00072451
837.97	-0.00076068
838.149	-0.00073463
838.328	-0.00079605
838.506	-0.00070169
838.685	-0.00069835
838.864	-0.00066103
839.042	-0.0006594
839.221	-0.00072465
839.4	-0.00073543
839.578	-0.0008041
839.757	-0.00089412
839.935	-0.00093439
840.114	-0.00096655
840.292	-0.00099279
840.471	-0.00099047
840.649	-0.00102947
840.828	-0.00099678
841.006	-0.00092727
841.185	-0.00084715
841.363	-0.00079855
841.541	-0.00074666
841.72	-0.00072322
841.898	-0.00066819
842.076	-0.00063343
842.255	-0.00071093
842.433	-0.00073544
842.611	-0.00078745
842.789	-0.00078436
842.968	-0.00078394
843.146	-0.00078723
843.324	-0.0007465
843.502	-0.00064952
843.68	-0.00059879
843.859	-0.00056183
844.037	-0.0006368
844.215	-0.00060928
844.393	-0.00069215
844.571	-0.00079019
844.749	-0.00085373
844.927	-0.00099969
845.105	-0.00112565
845.283	-0.00110136
845.461	-0.00109879
845.639	-0.00108632
845.817	-0.00093327
845.995	-0.00089033
846.173	-0.00077302
846.351	-0.0006278
846.529	-0.0006052
846.706	-0.00067776
846.884	-0.00069982
847.062	-0.00083795
847.24	-0.00092015
847.418	-0.00093289
847.595	-0.00097638
847.773	-0.00104929
847.951	-0.00097996
848.129	-0.00090429
848.306	-0.00085203
848.484	-0.00071269
848.662	-0.0007598
848.839	-0.00070926
849.017	-0.00058672
849.194	-0.00060535
849.372	-0.00061346
849.549	-0.0005982
849.727	-0.00072775
849.905	-0.00074985
850.082	-0.00086968
850.26	-0.00092471
850.437	-0.00094181
850.614	-0.00089546
850.792	-0.00089901
850.969	-0.00082298
851.147	-0.00077682
851.324	-0.00067461
851.501	-0.00069892
851.679	-0.00064691
851.856	-0.00066599
852.033	-0.00075533
852.211	-0.00077161
852.388	-0.00077299
852.565	-0.00089243
852.742	-0.00089108
852.92	-0.00095243
853.097	-0.00093412
853.274	-0.00083288
853.451	-0.00075754
853.628	-0.00077148
853.805	-0.00066504
853.982	-0.00058639
854.159	-0.00047875
854.336	-0.00054655
854.514	-0.000593
854.691	-0.00066621
854.868	-0.00075249
855.045	-0.00089605
855.221	-0.00101681
855.398	-0.00100282
855.575	-0.00098154
855.752	-0.00097934
855.929	-0.00091661
856.106	-0.00074984
856.283	-0.00059874
856.46	-0.00044386
856.637	-0.00053527
856.813	-0.00054294
856.99	-0.00051343
857.167	-0.0006386
857.344	-0.00074734
857.52	-0.00079212
857.697	-0.00096384
857.874	-0.00107063
858.05	-0.00105517
858.227	-0.00106591
858.404	-0.00098949
858.58	-0.0010201
858.757	-0.00097058
858.933	-0.00090499
859.11	-0.00072429
859.287	-0.0007222
859.463	-0.00074533
859.64	-0.0007814
859.816	-0.00067967
859.993	-0.00066366
860.169	-0.00068725
860.345	-0.00080646
860.522	-0.0008949
860.698	-0.00091032
860.875	-0.00087792
861.051	-0.00090346
861.227	-0.0008874
861.404	-0.00086693
861.58	-0.00084464
861.756	-0.00079746
861.932	-0.00074746
862.109	-0.00078345
862.285	-0.00086351
862.461	-0.00091467
862.637	-0.0009965
862.813	-0.00098951
862.99	-0.00098875
863.166	-0.00105109
863.342	-0.00101049
863.518	-0.00089873
863.694	-0.0008811
863.87	-0.00076524
864.046	-0.00073414
864.222	-0.00069661
864.398	-0.00067064
864.574	-0.00071825
864.75	-0.00074365
864.926	-0.00075384
865.102	-0.0007798
865.278	-0.00082023
865.454	-0.00077591
865.63	-0.00075033
865.805	-0.00077181
865.981	-0.00077748
866.157	-0.00072058
866.333	-0.00069248
866.509	-0.00066637
866.684	-0.00064117
866.86	-0.00061963
867.036	-0.00052235
867.212	-0.0005673
867.387	-0.00064376
867.563	-0.00071189
867.739	-0.00074153
867.914	-0.00094191
868.09	-0.00102248
868.265	-0.00118404
868.441	-0.00112779
868.617	-0.00113877
868.792	-0.00119235
868.968	-0.00117989
869.143	-0.00106173
869.319	-0.00099963
869.494	-0.0008395
869.67	-0.0007522
869.845	-0.00076442
870.02	-0.00066021
870.196	-0.00065334
870.371	-0.00069998
870.546	-0.00076834
870.722	-0.00081021
870.897	-0.00098705
871.072	-0.00092301
871.248	-0.00096998
871.423	-0.00096366
871.598	-0.00087314
871.773	-0.00079619
871.949	-0.00074679
872.124	-0.0006936
872.299	-0.00077872
872.474	-0.0006277
872.649	-0.00058236
872.824	-0.00064391
872.999	-0.00068751
873.174	-0.00078081
873.349	-0.00073084
873.524	-0.00072546
873.699	-0.00087796
873.874	-0.00093126
874.049	-0.000875
874.224	-0.00083728
874.399	-0.00072235
874.574	-0.00068188
874.749	-0.00060384
874.924	-0.00049228
875.099	-0.0003343
875.274	-0.00034
875.449	-0.0003235
875.623	-0.00042
875.798	-0.00056027
875.973	-0.00061081
876.148	-0.000712
876.322	-0.00081697
876.497	-0.0008764
876.672	-0.0009031
876.846	-0.00085092
877.021	-0.00084457
877.196	-0.00086756
877.37	-0.00079758
877.545	-0.00082518
877.72	-0.00076221
877.894	-0.00072563
878.069	-0.00075695
878.243	-0.00075003
878.418	-0.00077536
878.592	-0.00081865
878.767	-0.00083863
878.941	-0.00092272
879.116	-0.00100522
879.29	-0.00105757
879.464	-0.00098607
879.639	-0.00102622
879.813	-0.00102958
879.987	-0.00099473
880.162	-0.00084499
880.336	-0.0007742
880.51	-0.00064792
880.685	-0.00060403
880.859	-0.00043918
881.033	-0.00046491
881.207	-0.00053184
881.381	-0.00060149
881.556	-0.00067402
881.73	-0.00079004
881.904	-0.0008295
882.078	-0.00093562
882.252	-0.00099149
882.426	-0.000933
882.6	-0.00094205
882.774	-0.00080364
882.948	-0.00056622
883.122	-0.00058156
883.296	-0.00047358
883.47	-0.00030583
883.644	-0.00033172
883.818	-0.00029957
883.992	-0.00039892
884.166	-0.00061179
884.34	-0.00058968
884.514	-0.00072795
884.687	-0.00079149
884.861	-0.000737
885.035	-0.00070221
885.209	-0.00067476
885.382	-0.00063623
885.556	-0.00056814
885.73	-0.00040609
885.904	-0.00031438
886.077	-0.00031786
886.251	-0.00040631
886.425	-0.0003903
886.598	-0.00039989
886.772	-0.00059946
886.945	-0.00068583
887.119	-0.00091878
887.292	-0.00101579
887.466	-0.00102529
887.64	-0.00112448
887.813	-0.00103105
887.986	-0.00087596
888.16	-0.00086018
888.333	-0.00066998
888.507	-0.00055178
888.68	-0.00050071
888.854	-0.00038331
889.027	-0.00055271
889.2	-0.000675
889.374	-0.00068322
889.547	-0.00087969
889.72	-0.00092423
889.893	-0.0009639
890.067	-0.00110852
890.24	-0.00106265
890.413	-0.00094637
890.586	-0.00091672
890.759	-0.0007176
890.933	-0.0006458
891.106	-0.0006105
891.279	-0.00051535
891.452	-0.00057026
891.625	-0.00058553
891.798	-0.0006334
891.971	-0.00076862
892.144	-0.00078939
892.317	-0.00085954
892.49	-0.00094509
892.663	-0.00092238
892.836	-0.00094342
893.009	-0.00095151
893.182	-0.00079996
893.355	-0.0007897
893.527	-0.00074538
893.7	-0.00058414
893.873	-0.00045572
894.046	-0.00041521
894.219	-0.00033907
894.391	-0.00042622
894.564	-0.00048437
894.737	-0.00058268
894.91	-0.00062643
895.082	-0.00073039
895.255	-0.00080252
895.428	-0.00089271
895.6	-0.00081167
895.773	-0.00081576
895.945	-0.00074976
896.118	-0.00076284
896.291	-0.00082371
896.463	-0.0008127
896.636	-0.00069442
896.808	-0.00073934
896.981	-0.00066267
897.153	-0.00069226
897.326	-0.00074365
897.498	-0.0006626
897.67	-0.00064881
897.843	-0.00083669
898.015	-0.00085603
898.187	-0.00089732
898.36	-0.00094035
898.532	-0.00101609
898.704	-0.00110112
898.877	-0.00111491
899.049	-0.00103378
899.221	-0.00101594
899.393	-0.00092439
899.566	-0.00081207
899.738	-0.00068422
899.91	-0.00059641
900.082	-0.00064861
900.254	-0.00058926
900.426	-0.00067969
900.598	-0.00082373
900.77	-0.00090262
900.942	-0.00095464
901.114	-0.00088251
901.286	-0.00087626
901.458	-0.00093802
901.63	-0.00088009
901.802	-0.00082034
901.974	-0.00068279
902.146	-0.00062376
902.318	-0.00068255
902.49	-0.00067655
902.662	-0.00061628
902.834	-0.00056744
903.005	-0.00061439
903.177	-0.00081592
903.349	-0.00089132
903.521	-0.00093247
903.693	-0.000991
903.864	-0.00115267
904.036	-0.00118192
904.208	-0.00124388
904.379	-0.00112782
904.551	-0.00112383
904.723	-0.00110233
904.894	-0.00099658
905.066	-0.00075091
905.237	-0.00073325
905.409	-0.00065302
905.58	-0.00057246
905.752	-0.00055901
905.923	-0.00057111
906.095	-0.00054922
906.266	-0.00069822
906.438	-0.00083898
906.609	-0.00095204
906.78	-0.0010577
906.952	-0.00115461
907.123	-0.00117696
907.295	-0.00119915
907.466	-0.00124584
907.637	-0.00114275
907.808	-0.00103376
907.98	-0.0009663
908.151	-0.0008418
908.322	-0.00081718
908.493	-0.00074471
908.665	-0.00068452
908.836	-0.00068339
909.007	-0.00065231
909.178	-0.00071977
909.349	-0.0007633
909.52	-0.00079484
909.691	-0.00080952
909.862	-0.00080555
910.033	-0.00098132
910.204	-0.00102572
910.375	-0.00098125
910.546	-0.00088307
910.717	-0.00087891
910.888	-0.00100243
911.059	-0.00093438
911.23	-0.00077071
911.401	-0.00076408
911.572	-0.00067603
911.742	-0.00082252
911.913	-0.00074298
912.084	-0.00068469
912.255	-0.00077879
912.426	-0.00077483
912.596	-0.0007929
912.767	-0.00094236
912.938	-0.00081863
913.108	-0.00089711
913.279	-0.00089895
913.45	-0.00082544
913.62	-0.00079111
913.791	-0.00074218
913.962	-0.00063409
914.132	-0.00062216
914.303	-0.00052593
914.473	-0.00051479
914.644	-0.00058618
914.814	-0.00059922
914.985	-0.00061132
915.155	-0.00056116
915.326	-0.00067577
915.496	-0.00082628
915.666	-0.00088041
915.837	-0.00088884
916.007	-0.00095962
916.177	-0.00087739
916.348	-0.00097076
916.518	-0.00092444
916.688	-0.00081625
916.858	-0.00076397
917.029	-0.00072567
917.199	-0.00063665
917.369	-0.00086249
917.539	-0.00095343
917.709	-0.0007781
917.88	-0.00086992
918.05	-0.00097148
918.22	-0.00095359
918.39	-0.00102134
918.56	-0.00089322
918.73	-0.00083574
918.9	-0.00107628
919.07	-0.00109761
919.24	-0.00104392
919.41	-0.00103003
919.58	-0.00086056
919.75	-0.00077064
919.92	-0.00073874
920.09	-0.00063391
920.26	-0.00045276
920.429	-0.00037059
920.599	-0.00033948
920.769	-0.00045624
920.939	-0.00063822
921.109	-0.00062964
921.278	-0.00067517
921.448	-0.00083076
921.618	-0.00093401
921.787	-0.00096282
921.957	-0.00097738
922.127	-0.00083224
922.296	-0.00084275
922.466	-0.00077873
922.636	-0.00068405
922.805	-0.0005818
922.975	-0.00060704
923.144	-0.00055076
923.314	-0.00054397
923.483	-0.00050904
923.653	-0.00062745
923.822	-0.00065729
923.992	-0.00070932
924.161	-0.00063498
924.331	-0.00073779
924.5	-0.00078283
924.669	-0.00069432
924.839	-0.00054732
925.008	-0.00049744
925.177	-0.00047482
925.347	-0.00065101
925.516	-0.00063506
925.685	-0.00064921
925.854	-0.00075879
926.023	-0.00083324
926.193	-0.00077291
926.362	-0.00079922
926.531	-0.00067387
926.7	-0.00064568
926.869	-0.00068081
927.038	-0.00072411
927.207	-0.00065315
927.376	-0.00073514
927.545	-0.00076821
927.715	-0.00078297
927.884	-0.00058281
928.052	-0.00053041
928.221	-0.00045618
928.39	-0.00052372
928.559	-0.00041762
928.728	-0.00032457
928.897	-0.00029731
929.066	-0.00051957
929.235	-0.00045292
929.404	-0.00044817
929.572	-0.00026528
929.741	-0.00048
929.91	-0.00050958
930.079	-0.00050972
930.247	-0.00039257
930.416	-0.00051463
930.585	-0.00060438
930.753	-0.00096576
930.922	-0.00088254
931.091	-0.00081788
931.259	-0.00087339
931.428	-0.0009254
931.596	-0.00083581
931.765	-0.00074318
931.934	-0.00051662
932.102	-0.00038122
932.27	-0.00044615
932.439	-0.00041299
932.607	-0.00041504
932.776	-0.00044054
932.944	-0.0005078
933.113	-0.00061903
933.281	-0.00076622
933.449	-0.00070682
933.618	-0.00079751
933.786	-0.00065491
933.954	-0.00055348
934.123	-0.00043186
934.291	-0.00032037
934.459	-0.00021616
934.627	-0.00031598
934.795	-0.0000776
934.964	-0.00010748
935.132	-0.0001409
935.3	-0.00002398
935.468	-0.00003885
935.636	-0.00010081
935.804	0.00009515
935.972	0.00000328
936.14	0.00000611
936.308	0.00013524
936.476	-0.00005663
936.644	0.00023752
936.812	0.00041822
936.98	0.00037093
937.148	0.00055327
937.316	0.00038426
937.484	-0.00003395
937.652	0.0002314
937.82	-0.00008389
937.987	-0.00028979
938.155	-0.00024266
938.323	-0.00041614
938.491	-0.00051281
938.658	-0.00015169
938.826	-0.00022282
938.994	-0.0002023
939.162	0.00003089
939.329	0.00004419
939.497	0.00020042
939.665	0.00063726
939.832	0.00082084
940	0.0010043
940.167	0.00094909
940.335	0.0010002
940.502	0.00090896
940.67	0.00076888
940.837	0.00051561
941.005	0.00039425
941.172	-0.00036828
941.34	0.00066705
941.507	0.00101303
941.674	0.00138773
941.842	0.00146337
942.009	0.00244104
942.177	0.00322112
942.344	0.00336795
942.511	0.00403042
942.678	0.00401101
942.846	0.00389899
943.013	0.00455977
943.18	0.00374326
943.347	0.0026566
943.514	0.00340983
943.682	0.00204081
943.849	0.00191856
944.016	0.0021084
944.183	0.00084
944.35	0.00132958
944.517	0.00202881
944.684	0.0014751
944.851	0.00102841
945.018	0.00081898
945.185	0.00118699
945.352	0.00166692
945.519	0.001462
945.686	0.00198124
945.853	0.00236782
946.02	0.00238415
946.187	0.00277647
946.353	0.00220421
946.52	0.00249396
946.687	0.00257605
946.854	0.00104565
947.021	0.00143207
947.187	0.00248429
947.354	0.00191571
947.521	0.00162219
947.687	0.00132431
947.854	0.00080371
948.021	0.00110167
948.187	0.00128067
948.354	0.00063892
948.52	0.00145187
948.687	0.00201534
948.854	0.0025767
949.02	0.00242248
949.187	0.00276002
949.353	0.00236423
949.52	0.00248074
949.686	0.00186468
949.852	0.00162347
950.019	0.00099626
950.185	0.00200604
950.352	0.00214637
950.518	0.00253585
950.684	0.00273505
950.851	0.00288769
951.017	0.00285028
951.183	0.00305641
951.349	0.00258407
951.516	0.0026232
951.682	0.00166218
951.848	0.00202618
952.014	0.00210842
952.18	0.00215358
952.346	0.00209139
952.512	0.00192619
952.679	0.00178401
952.845	0.00220172
953.011	0.00182322
953.177	0.00163661
953.343	0.00138473
953.509	0.00136702
953.675	0.0010357
953.841	0.00101147
954.007	0.0012378
954.172	0.00130315
954.338	0.00076287
954.504	0.00093324
954.67	0.00104527
954.836	0.00115622
955.002	0.00149008
955.167	0.00094879
955.333	0.00044024
955.499	0.00070059
955.665	0.00068352
955.83	0.00024597
955.996	0.00083731
956.162	0.00001609
956.327	-0.00013271
956.493	0.00034985
956.659	0.00057182
956.824	0.00043883
956.99	0.00049146
957.155	-0.00017348
957.321	0.00005263
957.486	0.00007376
957.652	0.00010198
957.817	-0.00012811
957.983	-0.00008651
958.148	0.00032594
958.314	0.00064897
958.479	0.00051685
958.644	0.00102045
958.81	0.00080946
958.975	0.00077024
959.14	0.00101721
959.306	0.00081074
959.471	0.00030614
959.636	0.00014717
959.801	-0.00016946
959.967	-0.00009487
960.132	0.00003065
960.297	-0.00028297
960.462	-0.00008583
960.627	-0.00014303
960.792	0.00011288
960.957	-0.00009328
961.123	-0.00056874
961.288	-0.00044009
961.453	-0.00026679
961.618	-0.00032084
961.783	-0.00018554
961.948	-0.0001902
962.113	-0.00035363
962.277	0.00001398
962.442	-0.00015711
962.607	-0.00041051
962.772	-0.00045914
962.937	-0.00024076
963.102	-0.00059356
963.267	-0.00031895
963.431	-0.00037767
963.596	-0.00016089
963.761	-0.00002968
963.926	0.00007013
964.09	0.00008607
964.255	0.00034753
964.42	0.00039288
964.584	0.00034771
964.749	0.00012709
964.914	0.00001408
965.078	-0.00015784
965.243	-0.00041504
965.407	-0.00032821
965.572	-0.00058759
965.736	-0.00052698
965.901	-0.00049561
966.065	0.00001165
966.23	0.00010426
966.394	0.00060351
966.559	0.0009416
966.723	0.00134128
966.887	0.0013143
967.052	0.00114825
967.216	0.00097755
967.38	0.0008139
967.545	0.00037145
967.709	0.00018243
967.873	0.00008951
968.037	0.00010642
968.202	-0.00002495
968.366	-0.00003931
968.53	-0.00027597
968.694	-0.00007488
968.858	-0.00078254
969.022	-0.0009815
969.187	-0.00121609
969.351	-0.00072991
969.515	-0.00097465
969.679	-0.00068413
969.843	-0.00049603
970.007	0.00012824
970.171	0.0002593
970.335	0.00024604
970.499	-0.00000924
970.662	0.00014404
970.826	-0.00026316
970.99	-0.00071676
971.154	-0.00072259
971.318	-0.00033498
971.482	-0.00008184
971.645	0.00003465
971.809	-0.0002093
971.973	0.00048371
972.137	0.00033828
972.3	0.00033201
972.464	-0.00025992
972.628	-0.00013375
972.791	-0.00023016
972.955	0.00006441
973.119	0.00013173
973.282	0.00034631
973.446	0.00018953
973.609	0.00077352
973.773	0.00061789
973.936	0.00088087
974.1	0.00024237
974.263	-0.00017261
974.427	0.00004958
974.59	0.00011353
974.754	-0.00052804
974.917	-0.00034446
975.08	-0.0004795
975.244	0.00035254
975.407	0.00001349
975.57	-0.00008437
975.734	-0.00023915
975.897	-0.00039327
976.06	-0.00077801
976.223	-0.00096102
976.387	-0.00126054
976.55	-0.00104505
976.713	-0.00093411
976.876	-0.00117407
977.039	-0.00043533
977.202	-0.00030702
977.365	-0.00009179
977.528	-0.00034955
977.692	-0.00032851
977.855	-0.00062588
978.018	-0.00034273
978.181	-0.00078155
978.344	-0.00124264
978.506	-0.00142861
978.669	-0.00116522
978.832	-0.00141525
978.995	-0.00111776
979.158	-0.00080744
979.321	-0.00063291
979.484	0.000146
979.646	0.00056233
979.809	0.00055771
979.972	0.00097302
980.135	0.00076004
980.297	0.00063404
980.46	0.00062648
980.623	0.00046759
980.786	0.00011451
980.948	0.00016399
981.111	0.00017852
981.273	0.00015653
981.436	0.00045018
981.599	-0.00007974
981.761	-0.00020529
981.924	-0.00039907
982.086	-0.00040149
982.249	-0.00033014
982.411	0.00019341
982.573	-0.0002002
982.736	0.00081111
982.898	0.0011311
983.061	0.0015565
983.223	0.00187806
983.385	0.00145246
983.548	0.00084097
983.71	0.00116682
983.872	0.00111795
984.034	0.00101237
984.197	0.0008493
984.359	0.00071515
984.521	0.00165934
984.683	0.00193878
984.845	0.00191932
985.008	0.00155989
985.17	0.00110636
985.332	0.00127906
985.494	0.00128004
985.656	0.00032463
985.818	0.00070475
985.98	0.00083728
986.142	0.00033608
986.304	0.00065077
986.466	0.00018813
986.628	-0.00012849
986.79	0.00000642
986.952	-0.00023467
987.113	-0.00042361
987.275	0.00020385
987.437	-0.00013818
987.599	0.00021864
987.761	0.00003559
987.922	0.00020197
988.084	0.00003401
988.246	-0.00026303
988.408	-0.00068588
988.569	-0.00056937
988.731	-0.00098992
988.893	-0.00123608
989.054	-0.00069035
989.216	-0.00089629
989.377	-0.00053136
989.539	-0.00012581
989.701	-0.00032922
989.862	0.00052886
990.024	0.00107647
990.185	0.00078017
990.347	0.00064575
990.508	0.00031762
990.669	0.00043591
990.831	0.00053647
990.992	0.00012005
991.154	0.00041266
991.315	0.00011562
991.476	0.00053464
991.638	0.00107383
991.799	0.00068013
991.96	0.00177318
992.121	0.00150305
992.283	0.00145223
992.444	0.0017933
992.605	0.00164825
992.766	0.00112788
992.927	0.00193061
993.088	0.00189285
993.249	0.00216675
993.41	0.00157996
993.572	0.00129146
993.733	0.00144033
993.894	0.00163864
994.055	0.00102862
994.216	0.00028572
994.376	0.0003047
994.537	0.00084697
994.698	0.00017086
994.859	0.00062365
995.02	0.00082681
995.181	0.00077872
995.342	0.0014665
995.503	0.00103551
995.663	0.00061827
995.824	0.00163205
995.985	0.00084604
996.146	0.00026172
996.306	0.00026686
996.467	-0.00064209
996.628	-0.00033414
996.788	-0.00044532
996.949	-0.00031495
997.11	0.00031334
997.27	0.00120168
997.431	0.00076281
997.591	0.00083818
997.752	0.00069787
997.912	0.00080073
998.073	0.00052468
998.233	0.00082898
998.394	0.00096933
998.554	0.0008067
998.714	0.00095061
998.875	0.00103893
999.035	0.0014776
999.196	0.00227283
999.356	0.00291735
999.516	0.0027858
999.676	0.00432635
999.837	0.00401587
999.997	0.00417127
1000.157	0.00453032
1000.317	0.00354922
1000.477	0.00175021
1000.638	0.00174493
1000.798	0.00095648
1000.958	0.00143619
1001.118	0.00155721
1001.278	0.00072107
1001.438	0.0012411
1001.598	0.00197713
1001.758	0.00086401
1001.918	0.00093643
1002.078	0.00050271
1002.238	0.00067769
1002.398	0.00144088
1002.558	0.00151589
1002.718	0.00132677
1002.878	0.00329674
1003.037	0.00334134
1003.197	0.00352715
1003.357	0.00399551
1003.517	0.00369626
1003.677	0.00222064
1003.836	0.00202997
1003.996	0.00129341
1004.156	0.0007586
1004.315	0.00051158
1004.475	0.00039387
1004.635	0.00036126
1004.794	0.00139073
1004.954	0.00127484
1005.114	-0.00026029
1005.273	0.00034438
1005.433	0.00161166
1005.592	0.00217629
1005.752	0.00148334
1005.911	0.00114696
1006.071	0.00124848
1006.23	0.00180889
1006.389	0.0020752
1006.549	0.00147449
1006.708	-0.00052516
1006.868	-0.0006179
1007.027	-0.00012046
1007.186	0.00060483
1007.345	0.00168768
1007.505	0.00094668
1007.664	0.00021847
1007.823	0.0008677
1007.982	0.00176105
1008.142	0.00203945
1008.301	0.00170353
1008.46	0.00189256
1008.619	0.00231968
1008.778	0.00250028
1008.937	0.00323652
1009.096	0.00297182
1009.255	0.00312583
1009.414	0.00368868
1009.573	0.00267254
1009.732	0.00303729
1009.891	0.00425201
1010.05	0.00330835
1010.209	0.00412104
1010.368	0.00523986
1010.527	0.00443299
1010.686	0.00544763
1010.845	0.00462828
1011.003	0.00399561
1011.162	0.00483265
1011.321	0.00519943
1011.48	0.00348285
1011.638	0.00367081
1011.797	0.00242956
1011.956	0.00273453
1012.115	0.00154179
1012.273	0.00155609
1012.432	0.00143869
1012.59	0.00220567
1012.749	0.00072702
1012.908	0.00277916
1013.066	0.00301462
1013.225	0.00417988
1013.383	0.00444179
1013.542	0.00311098
1013.7	0.0035839
1013.859	0.00678738
1014.017	0.00694783
1014.175	0.00737206
1014.334	0.00789279
1014.492	0.0057998
1014.65	0.00737253
1014.809	0.00471249
1014.967	0.00266499
1015.125	0.00135053
1015.284	-0.00019675
1015.442	0.00018039
1015.6	0.00233135
1015.758	0.00142865
1015.916	0.00425778
1016.075	0.00421638
1016.233	0.00494426
1016.391	0.0067148
1016.549	0.00483564
1016.707	0.00451987
1016.865	0.00564024
1017.023	0.00514684
1017.181	0.00715346
1017.339	0.00470383
1017.497	0.00257835
1017.655	0.00290856
1017.813	0.00390387
1017.971	0.00323054
1018.129	0.00257196
1018.286	0.00090508
1018.444	0.00157717
1018.602	0.00147525
1018.76	0.00308497
1018.918	0.00331608
1019.075	0.0014125
1019.233	0.00218486
1019.391	0.00148587
1019.549	0.00225241
1019.706	0.00270533
1019.864	0.00133915
1020.022	-0.00077531
1020.179	-0.00054284
1020.337	-0.00090799
1020.494	0.00092379
1020.652	0.00108054
1020.809	0.00331403
1020.967	0.00385045
1021.124	0.0046299
1021.282	0.00602229
1021.439	0.00540284
1021.597	0.00660892
1021.754	0.00520746
1021.911	0.00795847
1022.069	0.00901667
1022.226	0.00850855
1022.384	0.00855279
1022.541	0.00967783
1022.698	0.00989252
1022.855	0.01207627
1023.013	0.01154187
1023.17	0.01209407
1023.327	0.01391053
1023.484	0.01438972
1023.641	0.01191005
1023.798	0.01051244
1023.956	0.00904898
1024.113	0.00591867
1024.27	0.00709162
1024.427	0.00755032
1024.584	0.00738284
1024.741	0.0116867
1024.898	0.00841974
1025.055	0.00990442
1025.212	0.01069681
1025.369	0.01268192
1025.525	0.012438
1025.682	0.01378801
1025.839	0.01131374
1025.996	0.01217771
1026.153	0.01416873
1026.31	0.01270816
1026.466	0.00887179
1026.623	0.00644724
1026.78	0.00652765
1026.937	0.00539319
1027.093	0.00912069
1027.25	0.00442674
1027.407	0.00487991
1027.563	0.00690854
1027.72	0.007665
1027.876	0.004075
1028.033	0.00423798
1028.19	0.0028204
1028.346	0.00484612
1028.503	0.00535655
1028.659	0.00085456
1028.816	0.00019438
1028.972	0.00548208
1029.128	0.00632658
1029.285	0.00291531
1029.441	0.00314635
1029.598	0.00314479
1029.754	0.00721358
1029.91	0.00820092
1030.067	0.00271082
1030.223	0.00439486
1030.379	0.00557866
1030.535	0.00642887
1030.691	0.00565011
1030.848	0.0076049
1031.004	0.00502133
1031.16	0.01127517
1031.316	0.01149402
1031.472	0.01950396
1031.628	0.02139021
1031.784	0.02130901
1031.94	0.02086149
1032.096	0.01792658
1032.252	0.00764999
1032.408	0.00702687
1032.564	0.00222074
1032.72	0.0001479
1032.876	0.00010889
1033.032	0.00147131
1033.188	0.00768697
1033.344	0.01688985
1033.5	0.01847008
1033.655	0.01984211
1033.811	0.0199412
1033.967	0.02701047
