Data from 1_mm_pl_50pc_Absorbance__0__16-14-05-760.txt Node

Date: Wed Mar 08 16:14:05 CET 2023
User: Ange
Spectrometer: FLMT08341
Trigger mode: 0
Integration Time (sec): 1.000000E-2
Scans to average: 400
Electric dark correction enabled: true
Nonlinearity correction enabled: false
Boxcar width: 3
XAxis mode: Wavelengths
Number of Pixels in Spectrum: 3648
>>>>>Begin Spectral Data<<<<<
345.271	0.07311464
345.487	0.05670911
345.704	0.06185985
345.921	0.07102066
346.137	0.05360628
346.354	0.04508722
346.571	0.01609478
346.787	0.01147391
347.004	-0.00629547
347.22	0.09623607
347.437	0.23571186
347.653	0.24905685
347.87	-0.28186324
348.086	-0.07245193
348.303	-0.44733636
348.519	0.44997371
348.736	0.45592
348.952	0.45321217
349.169	0.46961965
349.385	0.49488238
349.601	0.48629096
349.818	0.47348861
350.034	0.46828985
350.251	0.46791505
350.467	0.4721952
350.683	0.45683117
350.9	0.45111436
351.116	0.44598899
351.332	0.44654311
351.549	0.46385319
351.765	0.47835406
351.981	0.48561202
352.197	0.50324647
352.414	0.52830922
352.63	0.54525252
352.846	0.56304418
353.062	0.54781132
353.278	0.5329773
353.495	0.54850485
353.711	0.54869117
353.927	0.55087523
354.143	0.5473178
354.359	0.5341056
354.575	0.53167403
354.792	0.54492012
355.008	0.52898944
355.224	0.5240359
355.44	0.51624004
355.656	0.51574068
355.872	0.52716307
356.088	0.56209337
356.304	0.56670365
356.52	0.57773872
356.736	0.5863403
356.952	0.59231825
357.168	0.59361392
357.384	0.60324185
357.6	0.58051329
357.816	0.58965925
358.032	0.59777239
358.248	0.61699588
358.464	0.61790847
358.679	0.62921523
358.895	0.62870715
359.111	0.64501062
359.327	0.63084805
359.543	0.6321231
359.759	0.63805204
359.974	0.63772091
360.19	0.6350655
360.406	0.63675635
360.622	0.63057918
360.838	0.6324044
361.053	0.63785879
361.269	0.63933595
361.485	0.64623327
361.701	0.652869
361.916	0.6438251
362.132	0.64298833
362.348	0.64896788
362.563	0.65352088
362.779	0.64851147
362.995	0.65439687
363.21	0.6652979
363.426	0.67304034
363.641	0.67720433
363.857	0.68515749
364.073	0.67780347
364.288	0.67163327
364.504	0.68291807
364.719	0.68194419
364.935	0.68125401
365.15	0.6853301
365.366	0.68886548
365.581	0.70370193
365.797	0.70998218
366.012	0.69951219
366.228	0.69231933
366.443	0.70930909
366.658	0.71067578
366.874	0.70349527
367.089	0.70908012
367.305	0.715988
367.52	0.72226836
367.735	0.72707928
367.951	0.71680607
368.166	0.72298969
368.381	0.73695827
368.597	0.73367801
368.812	0.74117005
369.027	0.74866099
369.243	0.75453357
369.458	0.77761623
369.673	0.78226307
369.888	0.78303144
370.104	0.77674076
370.319	0.77851732
370.534	0.77335991
370.749	0.77499444
370.964	0.77156108
371.179	0.77144679
371.395	0.76452641
371.61	0.77172894
371.825	0.76207706
372.04	0.76753352
372.255	0.76317326
372.47	0.75632148
372.685	0.74800992
372.9	0.75136833
373.115	0.74735836
373.33	0.75563925
373.545	0.75564691
373.76	0.7648032
373.975	0.7629598
374.19	0.76540216
374.405	0.7723823
374.62	0.79063997
374.835	0.80503735
375.05	0.80929281
375.265	0.81185622
375.48	0.81751366
375.695	0.839134
375.91	0.83478834
376.125	0.81972498
376.339	0.80169235
376.554	0.8028988
376.769	0.80427045
376.984	0.8069129
377.199	0.80733302
377.414	0.80874298
377.628	0.82279551
377.843	0.83662318
378.058	0.83876022
378.273	0.84649942
378.487	0.85272865
378.702	0.85472624
378.917	0.85966046
379.131	0.85222618
379.346	0.84360835
379.561	0.8412779
379.775	0.83591358
379.99	0.82801378
380.205	0.81998061
380.419	0.81309727
380.634	0.80426231
380.848	0.81244689
381.063	0.81600178
381.278	0.82601513
381.492	0.82525241
381.707	0.83760113
381.921	0.84154383
382.136	0.85991341
382.35	0.85391086
382.565	0.84925614
382.779	0.85067078
382.994	0.8579202
383.208	0.84733591
383.422	0.85796276
383.637	0.85572507
383.851	0.86817978
384.066	0.87895022
384.28	0.88094411
384.494	0.88374016
384.709	0.89217482
384.923	0.89425283
385.137	0.88788171
385.352	0.88838305
385.566	0.8951726
385.78	0.89250403
385.995	0.89025852
386.209	0.88556505
386.423	0.88862177
386.637	0.89652832
386.852	0.88895033
387.066	0.88418183
387.28	0.88064234
387.494	0.89019002
387.708	0.89700899
387.923	0.89802674
388.137	0.90532168
388.351	0.91302808
388.565	0.92283958
388.779	0.92830693
388.993	0.93926605
389.207	0.9436209
389.421	0.94780538
389.635	0.9404656
389.85	0.94202672
390.064	0.94118251
390.278	0.94561344
390.492	0.94312125
390.706	0.94591672
390.92	0.94633146
391.134	0.95759675
391.348	0.97430341
391.561	0.97231518
391.775	0.96828229
391.989	0.96121064
392.203	0.96556014
392.417	0.96986597
392.631	0.97685558
392.845	0.96610315
393.059	0.97501327
393.273	0.97679174
393.486	0.97417282
393.7	0.96720468
393.914	0.97300646
394.128	0.96982492
394.342	0.96728136
394.555	0.9569086
394.769	0.9592872
394.983	0.96689459
395.197	0.97466745
395.41	0.97115551
395.624	0.97642112
395.838	0.98002425
396.051	0.99821825
396.265	0.99716118
396.479	1.00157982
396.692	1.00423246
396.906	1.00219316
397.12	0.9973324
397.333	1.00578204
397.547	0.9979492
397.76	1.00655529
397.974	1.00882815
398.187	1.01058609
398.401	1.01825561
398.614	1.02244206
398.828	1.02141471
399.041	1.02572548
399.255	1.02388287
399.468	1.02208526
399.682	1.02293623
399.895	1.02534336
400.109	1.02413152
400.322	1.02125905
400.536	1.01319806
400.749	1.02357298
400.962	1.02783009
401.176	1.02331524
401.389	1.02073238
401.602	1.01269063
401.816	1.01845757
402.029	1.02925232
402.242	1.02319689
402.456	1.02063394
402.669	1.01801998
402.882	1.0107658
403.095	1.02491738
403.309	1.02465541
403.522	1.02523285
403.735	1.02348207
403.948	1.02505965
404.161	1.04380184
404.375	1.05178287
404.588	1.05191159
404.801	1.05376496
405.014	1.05061596
405.227	1.06104692
405.44	1.06562099
405.653	1.06366391
405.866	1.05859294
406.079	1.05543041
406.293	1.05432945
406.506	1.0567449
406.719	1.05317731
406.932	1.049762
407.145	1.04223283
407.358	1.05539445
407.571	1.05100273
407.784	1.05281772
407.996	1.05484698
408.209	1.04919421
408.422	1.04638928
408.635	1.05100452
408.848	1.04932256
409.061	1.04584377
409.274	1.04356057
409.487	1.04102875
409.7	1.04281238
409.912	1.047816
410.125	1.04721054
410.338	1.04497558
410.551	1.04813976
410.764	1.05066121
410.976	1.05112394
411.189	1.05295051
411.402	1.04878869
411.615	1.05074758
411.827	1.05062678
412.04	1.05290294
412.253	1.05069799
412.465	1.0469013
412.678	1.04373237
412.891	1.04906732
413.103	1.03886418
413.316	1.03521359
413.529	1.03856322
413.741	1.04112072
413.954	1.04589179
414.166	1.04734829
414.379	1.0438019
414.591	1.04991573
414.804	1.04875569
415.016	1.04561189
415.229	1.0419473
415.441	1.03572033
415.654	1.03878211
415.866	1.03933531
416.079	1.04049969
416.291	1.0396255
416.504	1.04316473
416.716	1.0449024
416.928	1.04891213
417.141	1.04222177
417.353	1.04316824
417.566	1.03562608
417.778	1.03689245
417.99	1.02767847
418.203	1.02263823
418.415	1.01965198
418.627	1.0216963
418.839	1.01896395
419.052	1.02665592
419.264	1.0249468
419.476	1.02780593
419.688	1.02988097
419.901	1.02874879
420.113	1.02591639
420.325	1.02264682
420.537	1.01501603
420.749	1.01606118
420.961	1.01617293
421.174	1.01361765
421.386	1.01104151
421.598	1.009535
421.81	1.0077275
422.022	1.00557652
422.234	1.0031485
422.446	0.99874324
422.658	0.99590287
422.87	0.99506669
423.082	0.99352461
423.294	0.99218081
423.506	0.99200467
423.718	0.98995646
423.93	0.98649488
424.142	0.9832281
424.354	0.97986885
424.566	0.97757712
424.778	0.97603111
424.99	0.97343844
425.202	0.96938214
425.414	0.9695221
425.625	0.97162914
425.837	0.96692778
426.049	0.96670122
426.261	0.96399269
426.473	0.96031578
426.684	0.95838949
426.896	0.95738322
427.108	0.95198223
427.32	0.95344651
427.531	0.94839805
427.743	0.94687884
427.955	0.94845949
428.167	0.94488583
428.378	0.94186303
428.59	0.94036226
428.802	0.93803609
429.013	0.93568849
429.225	0.93152074
429.436	0.9270822
429.648	0.92664858
429.86	0.92488374
430.071	0.92316262
430.283	0.92045251
430.494	0.91785199
430.706	0.91678644
430.917	0.91320389
431.129	0.91024733
431.34	0.90661826
431.552	0.90428086
431.763	0.90106931
431.975	0.90046357
432.186	0.89459999
432.398	0.89208619
432.609	0.88621946
432.821	0.88410904
433.032	0.88064859
433.243	0.87749166
433.455	0.87399425
433.666	0.87362907
433.877	0.87295934
434.089	0.87016578
434.3	0.86507791
434.511	0.86002564
434.723	0.8571147
434.934	0.85229759
435.145	0.84638232
435.356	0.8404136
435.568	0.83829248
435.779	0.83523522
435.99	0.83099517
436.201	0.82680266
436.412	0.82346936
436.624	0.82317548
436.835	0.82218028
437.046	0.82056681
437.257	0.81806378
437.468	0.81838638
437.679	0.81722701
437.89	0.81473934
438.101	0.81242269
438.312	0.80904432
438.523	0.80516992
438.734	0.80244984
438.945	0.79885851
439.156	0.7941588
439.367	0.79197608
439.578	0.78928363
439.789	0.78454547
440	0.7821147
440.211	0.77784455
440.422	0.77476195
440.633	0.77310952
440.844	0.76855443
441.055	0.76411117
441.266	0.76250198
441.477	0.75834769
441.687	0.7555919
441.898	0.75207784
442.109	0.74747216
442.32	0.74478761
442.531	0.74052441
442.741	0.73473907
442.952	0.73106966
443.163	0.72812384
443.374	0.72399511
443.584	0.72027879
443.795	0.71727155
444.006	0.71434657
444.216	0.71194322
444.427	0.70796304
444.638	0.70417039
444.848	0.7008698
445.059	0.69770832
445.27	0.69374269
445.48	0.68976064
445.691	0.68680815
445.901	0.68412653
446.112	0.68067869
446.323	0.67687672
446.533	0.67318539
446.744	0.66938462
446.954	0.66580333
447.165	0.66213972
447.375	0.6594098
447.586	0.65681404
447.796	0.65406879
448.006	0.65078076
448.217	0.64836268
448.427	0.64546885
448.638	0.64165872
448.848	0.63738928
449.058	0.63337429
449.269	0.62987141
449.479	0.62664575
449.689	0.62286487
449.9	0.61975474
450.11	0.61672788
450.32	0.61451342
450.531	0.61071579
450.741	0.6071941
450.951	0.60430752
451.161	0.60069504
451.372	0.59744045
451.582	0.59574125
451.792	0.59173084
452.002	0.58907074
452.212	0.58550047
452.422	0.58223498
452.633	0.57886255
452.843	0.57622777
453.053	0.57138957
453.263	0.56861487
453.473	0.56512908
453.683	0.56268153
453.893	0.55882574
454.103	0.55660383
454.313	0.55289204
454.523	0.54986933
454.733	0.54675631
454.943	0.54441356
455.153	0.54170133
455.363	0.5391975
455.573	0.53621083
455.783	0.53369286
455.993	0.53076837
456.203	0.52841361
456.413	0.52538722
456.623	0.52223559
456.833	0.51990246
457.042	0.51683596
457.252	0.51409176
457.462	0.51146025
457.672	0.50840947
457.882	0.50564408
458.091	0.50278632
458.301	0.49964769
458.511	0.49688513
458.721	0.4940608
458.931	0.49146357
459.14	0.48901025
459.35	0.4868499
459.56	0.48478529
459.769	0.48274352
459.979	0.48010923
460.189	0.477684
460.398	0.47520489
460.608	0.47282317
460.817	0.47031663
461.027	0.46773067
461.237	0.46516022
461.446	0.46305602
461.656	0.46123055
461.865	0.45882865
462.075	0.45645617
462.284	0.45425705
462.494	0.45209645
462.703	0.44954736
462.913	0.44750844
463.122	0.44493954
463.332	0.44278347
463.541	0.44105585
463.751	0.43900104
463.96	0.43687707
464.169	0.43530393
464.379	0.43358276
464.588	0.43174539
464.797	0.42987767
465.007	0.42782992
465.216	0.42585853
465.425	0.42424861
465.635	0.42238536
465.844	0.42052111
466.053	0.41869263
466.263	0.41722139
466.472	0.41547734
466.681	0.41375154
466.89	0.41174451
467.099	0.40985147
467.309	0.40801308
467.518	0.40652342
467.727	0.404483
467.936	0.40265262
468.145	0.40113547
468.354	0.39965104
468.563	0.39802831
468.772	0.39634555
468.982	0.39463342
469.191	0.39338975
469.4	0.39186034
469.609	0.39025668
469.818	0.38908549
470.027	0.387701
470.236	0.3863501
470.445	0.38509678
470.654	0.38360374
470.863	0.38218752
471.072	0.38096497
471.28	0.37928594
471.489	0.37814587
471.698	0.37683235
471.907	0.37562898
472.116	0.37457056
472.325	0.37351719
472.534	0.37252096
472.743	0.37144224
472.951	0.37058469
473.16	0.36987187
473.369	0.36885677
473.578	0.36798588
473.786	0.36728875
473.995	0.36614784
474.204	0.36544278
474.413	0.3643445
474.621	0.36335078
474.83	0.36263727
475.039	0.36175065
475.247	0.36091341
475.456	0.360332
475.665	0.35965518
475.873	0.35892432
476.082	0.35802565
476.291	0.35720187
476.499	0.35666581
476.708	0.35568858
476.916	0.35508607
477.125	0.35446915
477.333	0.35396786
477.542	0.35361898
477.75	0.35317473
477.959	0.35270801
478.167	0.35242204
478.376	0.35181322
478.584	0.35133478
478.793	0.35081344
479.001	0.3502984
479.209	0.34983537
479.418	0.34934365
479.626	0.34910401
479.834	0.34892871
480.043	0.34870076
480.251	0.34840002
480.459	0.34805617
480.668	0.34780608
480.876	0.34751076
481.084	0.34727493
481.293	0.34697725
481.501	0.34667971
481.709	0.34660389
481.917	0.34655924
482.125	0.34639349
482.334	0.34625878
482.542	0.34597784
482.75	0.34589051
482.958	0.34582976
483.166	0.34575511
483.374	0.34562416
483.583	0.34571532
483.791	0.34584702
483.999	0.34587532
484.207	0.34592219
484.415	0.34599083
484.623	0.3461052
484.831	0.34621583
485.039	0.34636123
485.247	0.34653244
485.455	0.34690653
485.663	0.34709636
485.871	0.34732629
486.079	0.34747326
486.287	0.34782884
486.495	0.34797273
486.702	0.34804865
486.91	0.34830328
487.118	0.34854902
487.326	0.34882218
487.534	0.34907166
487.742	0.34931418
487.95	0.34972879
488.157	0.35019842
488.365	0.35058194
488.573	0.35102622
488.781	0.35141754
488.988	0.35209834
489.196	0.35266664
489.404	0.35311591
489.612	0.35366906
489.819	0.3541978
490.027	0.35473253
490.235	0.35526345
490.442	0.35582857
490.65	0.35635032
490.857	0.35700688
491.065	0.35757874
491.273	0.358085
491.48	0.35878243
491.688	0.35937241
491.895	0.35992875
492.103	0.36051073
492.31	0.36115797
492.518	0.36186186
492.725	0.36276733
492.933	0.36350937
493.14	0.36433441
493.348	0.36512536
493.555	0.36595301
493.763	0.36677933
493.97	0.36754704
494.177	0.36828531
494.385	0.36904315
494.592	0.36989348
494.8	0.37067705
495.007	0.37162775
495.214	0.37258078
495.422	0.37365958
495.629	0.37455625
495.836	0.37550747
496.043	0.37659855
496.251	0.377706
496.458	0.37867584
496.665	0.37961644
496.872	0.38049189
497.08	0.38150407
497.287	0.3824726
497.494	0.3834733
497.701	0.38450761
497.908	0.3856541
498.115	0.3866919
498.322	0.38775529
498.53	0.38873902
498.737	0.38983794
498.944	0.39088774
499.151	0.39196842
499.358	0.39303724
499.565	0.3942338
499.772	0.39544313
499.979	0.39674048
500.186	0.39788889
500.393	0.39898653
500.6	0.40019574
500.807	0.40133084
501.014	0.40244554
501.221	0.40362463
501.427	0.40475643
501.634	0.40610855
501.841	0.40748078
502.048	0.40877724
502.255	0.40994841
502.462	0.41133696
502.669	0.4129013
502.875	0.41432499
503.082	0.41566906
503.289	0.4170115
503.496	0.41827635
503.702	0.41966954
503.909	0.42095941
504.116	0.42210481
504.323	0.42342531
504.529	0.42477412
504.736	0.42621714
504.943	0.42755815
505.149	0.42914782
505.356	0.43068288
505.563	0.43220603
505.769	0.4337025
505.976	0.43521174
506.182	0.43673551
506.389	0.43833148
506.595	0.43980971
506.802	0.44130756
507.008	0.44277473
507.215	0.44437354
507.421	0.44591293
507.628	0.44736714
507.834	0.44891444
508.041	0.45056871
508.247	0.45214089
508.454	0.4537528
508.66	0.45510581
508.866	0.45671294
509.073	0.45830243
509.279	0.45995521
509.486	0.46154636
509.692	0.46317128
509.898	0.46493583
510.105	0.46671269
510.311	0.4682599
510.517	0.46997342
510.723	0.4716086
510.93	0.47312157
511.136	0.47482086
511.342	0.47635354
511.548	0.47806574
511.754	0.47995633
511.961	0.48170445
512.167	0.48347037
512.373	0.4851715
512.579	0.48692653
512.785	0.48876575
512.991	0.49050027
513.197	0.49216088
513.404	0.49384159
513.61	0.49559034
513.816	0.49720387
514.022	0.49877353
514.228	0.50033856
514.434	0.50202693
514.64	0.50370616
514.846	0.50553519
515.052	0.50722255
515.258	0.50908503
515.464	0.51094375
515.669	0.51276783
515.875	0.51464448
516.081	0.51639559
516.287	0.51817764
516.493	0.52001981
516.699	0.52181842
516.905	0.52355644
517.111	0.52539201
517.316	0.5272025
517.522	0.52917739
517.728	0.53110707
517.934	0.53299622
518.139	0.53486481
518.345	0.53660475
518.551	0.53841792
518.757	0.54026197
518.962	0.54206846
519.168	0.54395607
519.374	0.54569002
519.579	0.54760767
519.785	0.54969012
519.991	0.55168747
520.196	0.55358661
520.402	0.55541447
520.607	0.55723855
520.813	0.55929497
521.018	0.56113676
521.224	0.56275577
521.429	0.56461427
521.635	0.56648052
521.84	0.5682678
522.046	0.57018199
522.251	0.57197399
522.457	0.57395641
522.662	0.57618744
522.868	0.57812086
523.073	0.57987447
523.279	0.58193392
523.484	0.58359842
523.689	0.58555013
523.895	0.58749257
524.1	0.58933995
524.305	0.5912311
524.511	0.59336587
524.716	0.59528719
524.921	0.59735447
525.126	0.59932029
525.332	0.60126858
525.537	0.60314558
525.742	0.60537379
525.947	0.60737237
526.153	0.6092596
526.358	0.61136233
526.563	0.61325309
526.768	0.61518925
526.973	0.61724019
527.178	0.6190043
527.383	0.62088829
527.588	0.62297641
527.794	0.62475353
527.999	0.62672447
528.204	0.62857562
528.409	0.63039242
528.614	0.63240675
528.819	0.63429089
529.024	0.63606936
529.229	0.63797336
529.434	0.640107
529.639	0.64221646
529.843	0.64424745
530.048	0.64607161
530.253	0.64813916
530.458	0.65021174
530.663	0.65224797
530.868	0.65416594
531.073	0.65594612
531.278	0.65782326
531.482	0.65969759
531.687	0.66156038
531.892	0.66342557
532.097	0.66527312
532.302	0.667108
532.506	0.66897293
532.711	0.67089737
532.916	0.67285512
533.12	0.67471575
533.325	0.67662866
533.53	0.67873485
533.734	0.68069817
533.939	0.68270633
534.144	0.68464614
534.348	0.68665827
534.553	0.68860922
534.757	0.69036892
534.962	0.69209991
535.167	0.69410536
535.371	0.69603609
535.576	0.69811204
535.78	0.70004464
535.985	0.70202743
536.189	0.70402464
536.394	0.70595448
536.598	0.7076456
536.803	0.70960914
537.007	0.71144228
537.211	0.71348958
537.416	0.71537741
537.62	0.717308
537.825	0.71931545
538.029	0.72165822
538.233	0.7235169
538.438	0.72549483
538.642	0.72703429
538.846	0.72904073
539.05	0.73091866
539.255	0.7326717
539.459	0.73432713
539.663	0.73624876
539.867	0.73812318
540.072	0.74022216
540.276	0.74185301
540.48	0.7439226
540.684	0.74581464
540.888	0.74779881
541.092	0.74961394
541.297	0.75133717
541.501	0.75318278
541.705	0.75525649
541.909	0.75694706
542.113	0.75868852
542.317	0.76062906
542.521	0.76251254
542.725	0.76450855
542.929	0.76630091
543.133	0.76809042
543.337	0.77004188
543.541	0.77202692
543.745	0.77352119
543.949	0.77540253
544.153	0.77697231
544.357	0.778636
544.56	0.78047091
544.764	0.78229385
544.968	0.78405611
545.172	0.78576311
545.376	0.78756
545.58	0.78957588
545.783	0.79171343
545.987	0.79331374
546.191	0.79499139
546.395	0.7966877
546.598	0.79866985
546.802	0.80037097
547.006	0.80199309
547.21	0.80315025
547.413	0.80499591
547.617	0.80677939
547.821	0.80859181
548.024	0.81028233
548.228	0.81197295
548.431	0.81376208
548.635	0.81576692
548.839	0.81748241
549.042	0.81918945
549.246	0.82078534
549.449	0.8225007
549.653	0.82423302
549.856	0.82586346
550.06	0.82752678
550.263	0.82924629
550.467	0.8308714
550.67	0.83267442
550.874	0.83410495
551.077	0.83582624
551.28	0.83754213
551.484	0.83928401
551.687	0.84098291
551.891	0.84275789
552.094	0.84427549
552.297	0.84612649
552.501	0.84785611
552.704	0.84946369
552.907	0.85096234
553.11	0.85231468
553.314	0.85378368
553.517	0.85511789
553.72	0.85662293
553.923	0.85800197
554.127	0.85963121
554.33	0.86098063
554.533	0.86271957
554.736	0.86418533
554.939	0.86599555
555.142	0.86772542
555.345	0.86938895
555.549	0.87115118
555.752	0.87293417
555.955	0.87448552
556.158	0.87635913
556.361	0.87785167
556.564	0.87930743
556.767	0.88072773
556.97	0.88202057
557.173	0.88354971
557.376	0.88522413
557.579	0.88643256
557.782	0.88795009
557.984	0.88959301
558.187	0.89121244
558.39	0.89274691
558.593	0.89429898
558.796	0.89547768
558.999	0.89689208
559.202	0.89822552
559.404	0.89926191
559.607	0.90060944
559.81	0.90179836
560.013	0.90299345
560.216	0.90429754
560.418	0.90581681
560.621	0.90731232
560.824	0.90896683
561.026	0.91028441
561.229	0.91174861
561.432	0.91325401
561.634	0.91470218
561.837	0.91574542
562.04	0.91714891
562.242	0.91839612
562.445	0.91978164
562.647	0.9211089
562.85	0.92220415
563.053	0.92348717
563.255	0.92509445
563.458	0.9264612
563.66	0.92788537
563.863	0.92932368
564.065	0.93085298
564.268	0.93232929
564.47	0.9336596
564.672	0.93476269
564.875	0.93620524
565.077	0.93745342
565.28	0.93858416
565.482	0.93984015
565.684	0.94107187
565.887	0.94254929
566.089	0.94402766
566.291	0.94499991
566.494	0.94607286
566.696	0.94702656
566.898	0.94832078
567.1	0.94953512
567.303	0.95066042
567.505	0.95178788
567.707	0.95281669
567.909	0.95388622
568.111	0.95520303
568.314	0.95627173
568.516	0.95739944
568.718	0.95833167
568.92	0.95931175
569.122	0.96059135
569.324	0.96181525
569.526	0.96284333
569.728	0.96392656
569.93	0.96488701
570.132	0.96587304
570.334	0.96689146
570.536	0.96765902
570.738	0.9684597
570.94	0.96933015
571.142	0.97044749
571.344	0.97127443
571.546	0.9723231
571.748	0.97364525
571.95	0.97471298
572.152	0.97573335
572.354	0.9766744
572.555	0.97753286
572.757	0.97892446
572.959	0.97980377
573.161	0.98016503
573.363	0.9812173
573.564	0.98256449
573.766	0.98377305
573.968	0.98461854
574.17	0.98508182
574.371	0.9862422
574.573	0.98745333
574.775	0.98809927
574.976	0.98861618
575.178	0.9892397
575.38	0.98976668
575.581	0.99046305
575.783	0.99108005
575.985	0.99175598
576.186	0.99278571
576.388	0.99365818
576.589	0.99428663
576.791	0.99535101
576.992	0.99640869
577.194	0.99720047
577.395	0.99781181
577.597	0.99843619
577.798	0.99910714
578	0.99998305
578.201	1.00054706
578.402	1.00122726
578.604	1.0017668
578.805	1.00276844
579.007	1.00342512
579.208	1.00420117
579.409	1.00489677
579.611	1.00534951
579.812	1.00611865
580.013	1.00666795
580.215	1.00672099
580.416	1.00714956
580.617	1.0075167
580.818	1.00811971
581.019	1.00871547
581.221	1.00911693
581.422	1.00970293
581.623	1.01063605
581.824	1.01116339
582.025	1.01173884
582.226	1.01230758
582.428	1.01308954
582.629	1.01375681
582.83	1.01416674
583.031	1.01471656
583.232	1.01576875
583.433	1.01648306
583.634	1.01689154
583.835	1.01728083
584.036	1.01744879
584.237	1.01805675
584.438	1.01836671
584.639	1.018123
584.84	1.01848857
585.041	1.01861032
585.242	1.01891109
585.442	1.01936077
585.643	1.01986124
585.844	1.01998995
586.045	1.02072074
586.246	1.02065191
586.447	1.02105848
586.647	1.02119553
586.848	1.02131336
587.049	1.02126944
587.25	1.02164372
587.45	1.0216439
587.651	1.02216104
587.852	1.02249626
588.053	1.02295238
588.253	1.0231204
588.454	1.02352378
588.655	1.02347467
588.855	1.02350399
589.056	1.02357306
589.256	1.0237731
589.457	1.02380344
589.658	1.02417002
589.858	1.02404752
590.059	1.02435047
590.259	1.02453016
590.46	1.02431679
590.66	1.02418047
590.861	1.02418245
591.061	1.02410267
591.262	1.0244028
591.462	1.02457768
591.662	1.02466611
591.863	1.02474988
592.063	1.0250168
592.264	1.02497655
592.464	1.02505259
592.664	1.02507249
592.865	1.02493356
593.065	1.02453074
593.265	1.02497444
593.465	1.02461597
593.666	1.02466399
593.866	1.02455614
594.066	1.0244666
594.266	1.02452786
594.467	1.02434091
594.667	1.02393577
594.867	1.0237647
595.067	1.02351987
595.267	1.02327757
595.467	1.02299563
595.668	1.022711
595.868	1.02289141
596.068	1.02279021
596.268	1.02276105
596.468	1.02268372
596.668	1.02268991
596.868	1.02232462
597.068	1.02224921
597.268	1.02207605
597.468	1.0217042
597.668	1.0213727
597.868	1.02091879
598.068	1.02050825
598.268	1.02041515
598.467	1.02018268
598.667	1.02000737
598.867	1.01964454
599.067	1.01945999
599.267	1.01926822
599.467	1.01889573
599.667	1.01829348
599.866	1.01791704
600.066	1.01737831
600.266	1.01687743
600.466	1.01648708
600.665	1.01597583
600.865	1.01545226
601.065	1.01533117
601.264	1.0147842
601.464	1.01438345
601.664	1.01433467
601.863	1.01403103
602.063	1.01380211
602.263	1.01319657
602.462	1.01279574
602.662	1.01240474
602.861	1.01179629
603.061	1.01116151
603.26	1.01041334
603.46	1.00958042
603.659	1.00917778
603.859	1.00847934
604.058	1.00781181
604.258	1.0073078
604.457	1.00710166
604.657	1.00653783
604.856	1.00609978
605.056	1.00566107
605.255	1.00509403
605.454	1.00433546
605.654	1.00382922
605.853	1.0029642
606.052	1.00215299
606.252	1.00153739
606.451	1.00096117
606.65	1.00045185
606.849	0.99974453
607.049	0.99896105
607.248	0.99807417
607.447	0.9975999
607.646	0.99713212
607.845	0.9962858
608.045	0.99534811
608.244	0.99492723
608.443	0.99426998
608.642	0.99362357
608.841	0.9926804
609.04	0.99164706
609.239	0.99109148
609.438	0.9904436
609.637	0.98950656
609.836	0.98880605
610.035	0.98808492
610.234	0.98753405
610.433	0.98693101
610.632	0.98609993
610.831	0.98539238
611.03	0.9846703
611.229	0.98402456
611.428	0.98315858
611.627	0.98221022
611.826	0.98120951
612.025	0.98033548
612.224	0.97920976
612.422	0.97801702
612.621	0.97657481
612.82	0.97563499
613.019	0.97457268
613.218	0.97356926
613.416	0.97242675
613.615	0.97144715
613.814	0.97049362
614.012	0.96973136
614.211	0.96864993
614.41	0.9676428
614.608	0.96685687
614.807	0.96590654
615.006	0.96493254
615.204	0.96399321
615.403	0.96328615
615.602	0.96245034
615.8	0.9615581
615.999	0.96021297
616.197	0.95917273
616.396	0.95806459
616.594	0.95689654
616.793	0.95566334
616.991	0.95435204
617.19	0.95314825
617.388	0.95227161
617.586	0.9510304
617.785	0.9499888
617.983	0.94902109
618.182	0.9478113
618.38	0.94673369
618.578	0.94572423
618.777	0.94464216
618.975	0.94369332
619.173	0.94256966
619.372	0.94168013
619.57	0.94057452
619.768	0.93955025
619.966	0.93825845
620.165	0.93667942
620.363	0.93551753
620.561	0.93425293
620.759	0.93286181
620.957	0.93173459
621.155	0.93042652
621.354	0.92937639
621.552	0.9286413
621.75	0.92741461
621.948	0.92647251
622.146	0.92536155
622.344	0.92403749
622.542	0.92298667
622.74	0.92149917
622.938	0.92020877
623.136	0.91909268
623.334	0.91784347
623.532	0.91645992
623.73	0.91534923
623.928	0.91406432
624.126	0.9130672
624.324	0.91195823
624.522	0.91049158
624.719	0.9090013
624.917	0.90781702
625.115	0.90619901
625.313	0.90497105
625.511	0.90361409
625.708	0.90180752
625.906	0.90034943
626.104	0.89898164
626.302	0.89748398
626.499	0.89615123
626.697	0.89464934
626.895	0.893183
627.093	0.89211761
627.29	0.89086036
627.488	0.88947797
627.686	0.88825895
627.883	0.8869725
628.081	0.88538314
628.278	0.88409458
628.476	0.88253516
628.673	0.88110865
628.871	0.8797603
629.068	0.87818842
629.266	0.87674152
629.463	0.87544647
629.661	0.87392295
629.858	0.87245806
630.056	0.87097619
630.253	0.86970976
630.451	0.86830481
630.648	0.86669052
630.845	0.86509261
631.043	0.86348131
631.24	0.86211933
631.438	0.86037594
631.635	0.85850003
631.832	0.85669059
632.029	0.85537681
632.227	0.85380994
632.424	0.85255662
632.621	0.85085959
632.818	0.84949967
633.016	0.84798131
633.213	0.84656463
633.41	0.84474647
633.607	0.84325182
633.804	0.84143889
634.001	0.83983153
634.199	0.83818574
634.396	0.83677835
634.593	0.8351755
634.79	0.83388119
634.987	0.83218659
635.184	0.8307532
635.381	0.82939253
635.578	0.82800654
635.775	0.82642783
635.972	0.82504262
636.169	0.82344593
636.366	0.82210146
636.563	0.82046733
636.76	0.81867916
636.957	0.81704388
637.153	0.81521687
637.35	0.81357287
637.547	0.81179244
637.744	0.80990572
637.941	0.80841343
638.138	0.80673813
638.334	0.80509564
638.531	0.80358403
638.728	0.8019666
638.925	0.80054864
639.121	0.79924975
639.318	0.79752671
639.515	0.79603221
639.711	0.79459399
639.908	0.79290649
640.105	0.79121339
640.301	0.78952223
640.498	0.78775202
640.695	0.78629256
640.891	0.78467504
641.088	0.7829484
641.284	0.78138943
641.481	0.77992659
641.677	0.77828459
641.874	0.77663132
642.07	0.77497647
642.267	0.77359717
642.463	0.77181693
642.66	0.77031159
642.856	0.76851062
643.053	0.76668477
643.249	0.76501107
643.445	0.76318568
643.642	0.76109841
643.838	0.75951556
644.034	0.75769745
644.231	0.7560129
644.427	0.75450521
644.623	0.75290547
644.82	0.75142785
645.016	0.74995406
645.212	0.74827443
645.408	0.74666877
645.604	0.74515683
645.801	0.74361614
645.997	0.74177668
646.193	0.73994434
646.389	0.73828412
646.585	0.73671184
646.781	0.73509572
646.977	0.73352313
647.173	0.73173415
647.37	0.73012186
647.566	0.72839811
647.762	0.72666939
647.958	0.72495938
648.154	0.72318598
648.35	0.72139223
648.546	0.71961115
648.742	0.71802137
648.937	0.71640381
649.133	0.71496669
649.329	0.71335654
649.525	0.71170462
649.721	0.71004233
649.917	0.70855658
650.113	0.70683144
650.309	0.70535013
650.504	0.70345329
650.7	0.70172516
650.896	0.70007804
651.092	0.69835062
651.287	0.69655431
651.483	0.69487929
651.679	0.69310015
651.875	0.69146709
652.07	0.68983307
652.266	0.6881298
652.462	0.6864708
652.657	0.68477048
652.853	0.68304445
653.048	0.68133684
653.244	0.67962187
653.44	0.67787983
653.635	0.6760322
653.831	0.67420415
654.026	0.67266708
654.222	0.67089511
654.417	0.66925228
654.613	0.66753436
654.808	0.66570618
655.004	0.66417452
655.199	0.66257068
655.394	0.66089987
655.59	0.65937177
655.785	0.65754466
655.98	0.65575318
656.176	0.65396232
656.371	0.65235482
656.566	0.65071936
656.762	0.64890426
656.957	0.64715128
657.152	0.64556144
657.348	0.64400007
657.543	0.64262057
657.738	0.64089419
657.933	0.63923808
658.128	0.63739925
658.324	0.63566175
658.519	0.63399674
658.714	0.63234038
658.909	0.63044808
659.104	0.62879227
659.299	0.62707119
659.494	0.62548737
659.689	0.6238913
659.884	0.62207626
660.079	0.62031812
660.274	0.61871492
660.469	0.61700978
660.664	0.61548505
660.859	0.61393063
661.054	0.61224566
661.249	0.6106306
661.444	0.60900232
661.639	0.60727288
661.834	0.60557568
662.029	0.60389354
662.224	0.60217193
662.418	0.60051809
662.613	0.59900979
662.808	0.59736138
663.003	0.59585651
663.198	0.5942583
663.392	0.5924898
663.587	0.59101144
663.782	0.58935673
663.977	0.58761381
664.171	0.58601359
664.366	0.58420401
664.561	0.5824627
664.755	0.58080949
664.95	0.57903409
665.144	0.57738565
665.339	0.5758947
665.534	0.5743241
665.728	0.57294109
665.923	0.57149107
666.117	0.56993851
666.312	0.56838271
666.506	0.5669179
666.701	0.56511493
666.895	0.56340677
667.09	0.56156028
667.284	0.55982048
667.479	0.55807375
667.673	0.55634624
667.867	0.5546069
668.062	0.55305032
668.256	0.55150289
668.45	0.55013465
668.645	0.54853645
668.839	0.54709862
669.033	0.54557138
669.228	0.54408065
669.422	0.54257388
669.616	0.54097869
669.81	0.53944197
670.004	0.53797324
670.199	0.536429
670.393	0.53493014
670.587	0.53332935
670.781	0.53179699
670.975	0.53025898
671.169	0.5285141
671.363	0.52693207
671.558	0.52522993
671.752	0.52362992
671.946	0.5220486
672.14	0.52044348
672.334	0.51878816
672.528	0.51731976
672.722	0.51559587
672.916	0.51409607
673.11	0.51243511
673.304	0.51108233
673.497	0.50953087
673.691	0.50827128
673.885	0.5066833
674.079	0.50528332
674.273	0.5038414
674.467	0.50250726
674.661	0.50087074
674.854	0.49931329
675.048	0.49762445
675.242	0.4961645
675.436	0.49462025
675.629	0.49305303
675.823	0.49151347
676.017	0.49005046
676.211	0.48846753
676.404	0.48694973
676.598	0.4854263
676.792	0.48397383
676.985	0.48243346
677.179	0.48075976
677.372	0.4792084
677.566	0.47788783
677.76	0.47650729
677.953	0.47503378
678.147	0.47362137
678.34	0.47221496
678.534	0.47081424
678.727	0.46932019
678.921	0.46780308
679.114	0.46614866
679.307	0.46470194
679.501	0.46317248
679.694	0.4617154
679.888	0.46031923
680.081	0.45904735
680.274	0.45749396
680.468	0.45609448
680.661	0.45459814
680.854	0.45325894
681.048	0.45194673
681.241	0.4505543
681.434	0.44905401
681.627	0.44776423
681.821	0.44642541
682.014	0.44514431
682.207	0.44363972
682.4	0.44229736
682.593	0.44095076
682.786	0.43972375
682.98	0.43854882
683.173	0.4373998
683.366	0.43622219
683.559	0.43513216
683.752	0.43388465
683.945	0.43265961
684.138	0.43137035
684.331	0.42993074
684.524	0.42863412
684.717	0.42726697
684.91	0.42595367
685.103	0.42454205
685.296	0.42312008
685.489	0.42169135
685.682	0.4202906
685.874	0.41897601
686.067	0.41756066
686.26	0.41603277
686.453	0.41464693
686.646	0.4132745
686.839	0.41199162
687.031	0.41067482
687.224	0.40917484
687.417	0.40794347
687.61	0.40673664
687.802	0.40551
687.995	0.40429137
688.188	0.4030911
688.38	0.40192342
688.573	0.40081499
688.766	0.39964674
688.958	0.39840634
689.151	0.39714473
689.343	0.39592893
689.536	0.39466943
689.729	0.39338681
689.921	0.39202711
690.114	0.39055466
690.306	0.38930484
690.499	0.38810988
690.691	0.38693267
690.884	0.38566462
691.076	0.38449419
691.268	0.3832999
691.461	0.38217478
691.653	0.38105154
691.846	0.37983045
692.038	0.37865111
692.23	0.37739644
692.423	0.37624191
692.615	0.37514813
692.807	0.37408597
692.999	0.37295862
693.192	0.37184059
693.384	0.37075888
693.576	0.36967862
693.768	0.36854523
693.961	0.36740873
694.153	0.36631619
694.345	0.3651576
694.537	0.36400382
694.729	0.36282907
694.921	0.36168917
695.113	0.36064362
695.305	0.35953091
695.498	0.35835627
695.69	0.35733097
695.882	0.35622295
696.074	0.3552197
696.266	0.35414126
696.458	0.35295754
696.65	0.35188188
696.842	0.3507896
697.033	0.34964026
697.225	0.3485533
697.417	0.34739124
697.609	0.34631398
697.801	0.34520976
697.993	0.34411302
698.185	0.34303637
698.376	0.34199956
698.568	0.34104229
698.76	0.3401879
698.952	0.33932071
699.144	0.33851868
699.335	0.33775442
699.527	0.33692588
699.719	0.33599467
699.91	0.3350395
700.102	0.33395938
700.294	0.33290683
700.485	0.33181495
700.677	0.33072442
700.869	0.32978876
701.06	0.32886737
701.252	0.32790008
701.443	0.32697666
701.635	0.32604593
701.826	0.3251223
702.018	0.32419447
702.209	0.32330699
702.401	0.32240443
702.592	0.32159437
702.784	0.32074202
702.975	0.31984732
703.166	0.31902353
703.358	0.31805451
703.549	0.3170218
703.741	0.31602964
703.932	0.31500809
704.123	0.31405161
704.315	0.31310818
704.506	0.31219598
704.697	0.31130608
704.888	0.31048383
705.08	0.30968398
705.271	0.30888426
705.462	0.30799757
705.653	0.30718273
705.844	0.30632092
706.035	0.30553232
706.227	0.30472119
706.418	0.30390402
706.609	0.3031575
706.8	0.30246376
706.991	0.30166668
707.182	0.30095577
707.373	0.30008679
707.564	0.29928363
707.755	0.2985231
707.946	0.29774909
708.137	0.29693707
708.328	0.2963161
708.519	0.29560729
708.71	0.29505472
708.901	0.29436781
709.092	0.29373358
709.283	0.29300575
709.473	0.29226485
709.664	0.29155148
709.855	0.29078339
710.046	0.29005968
710.237	0.28938162
710.427	0.28848697
710.618	0.28772163
710.809	0.28697562
711	0.28622317
711.19	0.28550266
711.381	0.28487127
711.572	0.28422264
711.762	0.2837785
711.953	0.28322747
712.144	0.28261445
712.334	0.28189264
712.525	0.28131426
712.715	0.28056922
712.906	0.27979663
713.097	0.27892158
713.287	0.27812001
713.478	0.27743444
713.668	0.27684497
713.859	0.27617062
714.049	0.27556309
714.239	0.27508243
714.43	0.27464313
714.62	0.2741905
714.811	0.27364127
715.001	0.27310064
715.191	0.272519
715.382	0.27179679
715.572	0.27110623
715.762	0.27039867
715.953	0.26967885
716.143	0.26902105
716.333	0.26829954
716.523	0.26765297
716.714	0.26710624
716.904	0.26649037
717.094	0.26594904
717.284	0.26545098
717.474	0.26497102
717.664	0.26460192
717.855	0.26416576
718.045	0.26375315
718.235	0.26326469
718.425	0.26273182
718.615	0.26216851
718.805	0.26158992
718.995	0.26097124
719.185	0.26044209
719.375	0.25988008
719.565	0.25940484
719.755	0.25895183
719.945	0.25859734
720.135	0.25825658
720.325	0.25792066
720.515	0.25753407
720.704	0.25715499
720.894	0.25673368
721.084	0.25627927
721.274	0.25577102
721.464	0.25524846
721.654	0.25483327
721.843	0.2543931
722.033	0.25402546
722.223	0.25362399
722.413	0.25327416
722.602	0.25291823
722.792	0.25263975
722.982	0.25229775
723.171	0.25201753
723.361	0.25169291
723.55	0.25146657
723.74	0.25119344
723.93	0.25087027
724.119	0.25055235
724.309	0.25006649
724.498	0.2495817
724.688	0.2490734
724.877	0.24856334
725.067	0.24807788
725.256	0.24764227
725.446	0.24707719
725.635	0.2466127
725.825	0.24607298
726.014	0.24566109
726.203	0.24523584
726.393	0.24483822
726.582	0.24436736
726.771	0.24401117
726.961	0.24360675
727.15	0.24329728
727.339	0.24298506
727.529	0.24265686
727.718	0.24227671
727.907	0.24197584
728.096	0.24164776
728.286	0.24141132
728.475	0.24119301
728.664	0.24092148
728.853	0.2407242
729.042	0.24047133
729.231	0.240241
729.42	0.23991427
729.609	0.23964517
729.799	0.23922191
729.988	0.23883312
730.177	0.23830796
730.366	0.23785779
730.555	0.23734963
730.744	0.23700607
730.933	0.23661452
731.122	0.23627858
731.31	0.23604363
731.499	0.23588118
731.688	0.23575958
731.877	0.23563044
732.066	0.23545152
732.255	0.2352636
732.444	0.23513599
732.632	0.23487985
732.821	0.2346694
733.01	0.23443635
733.199	0.23434142
733.388	0.23418936
733.576	0.23410011
733.765	0.23401089
733.954	0.23393074
734.142	0.2337277
734.331	0.23361023
734.52	0.23332826
734.708	0.23307751
734.897	0.23283277
735.086	0.23251292
735.274	0.23216505
735.463	0.23191801
735.651	0.23156969
735.84	0.23130317
736.028	0.23112434
736.217	0.230949
736.405	0.23083399
736.594	0.23073209
736.782	0.23058271
736.971	0.23047903
737.159	0.23030417
737.347	0.23005992
737.536	0.22976379
737.724	0.22944372
737.912	0.2290828
738.101	0.22871093
738.289	0.22834578
738.477	0.22799827
738.666	0.22764992
738.854	0.22741912
739.042	0.22725446
739.23	0.2271956
739.418	0.22727102
739.607	0.22736342
739.795	0.22753248
739.983	0.22777325
740.171	0.22792165
740.359	0.22806105
740.547	0.22806253
740.735	0.22793537
740.923	0.22784562
741.112	0.2277607
741.3	0.22755589
741.488	0.22731303
741.676	0.22701292
741.864	0.22682366
742.052	0.2267263
742.239	0.2265161
742.427	0.22632358
742.615	0.22614567
742.803	0.22605742
742.991	0.22603979
743.179	0.22603174
743.367	0.2260453
743.555	0.2262537
743.742	0.22641725
743.93	0.22667073
744.118	0.22671198
744.306	0.22667899
744.494	0.22657976
744.681	0.22649005
744.869	0.22624291
745.057	0.22600373
745.244	0.2257595
745.432	0.22566443
745.62	0.22561281
745.807	0.22567719
745.995	0.22572033
746.182	0.22565391
746.37	0.22568988
746.558	0.22569811
746.745	0.22567886
746.933	0.22570765
747.12	0.22568259
747.308	0.22563663
747.495	0.22561628
747.683	0.22546362
747.87	0.22534352
748.057	0.22527352
748.245	0.22514912
748.432	0.22500555
748.62	0.22485753
748.807	0.22485887
748.994	0.22494822
749.182	0.22500067
749.369	0.22503904
749.556	0.22500861
749.743	0.22498014
749.931	0.22502621
750.118	0.22514373
750.305	0.22520752
750.492	0.22531585
750.68	0.22540628
750.867	0.22563603
751.054	0.2258934
751.241	0.22605778
751.428	0.22610547
751.615	0.22628495
751.802	0.2264324
751.989	0.22657739
752.176	0.22675092
752.363	0.22682055
752.55	0.22692845
752.737	0.22702377
752.924	0.22690968
753.111	0.22675858
753.298	0.22658295
753.485	0.22634374
753.672	0.22618993
753.859	0.22602952
754.046	0.22585714
754.233	0.22586064
754.42	0.22589162
754.606	0.2259186
754.793	0.22599467
754.98	0.22609674
755.167	0.22615974
755.353	0.22633687
755.54	0.22642141
755.727	0.22648397
755.914	0.22657248
756.1	0.22669174
756.287	0.22677524
756.474	0.22683241
756.66	0.22683243
756.847	0.22676142
757.033	0.22666058
757.22	0.2266513
757.407	0.22660404
757.593	0.22654879
757.78	0.22647046
757.966	0.22648117
758.153	0.22659763
758.339	0.22670821
758.526	0.22691337
758.712	0.22698854
758.898	0.22715835
759.085	0.2274027
759.271	0.2276243
759.458	0.22789365
759.644	0.22835112
759.83	0.2286841
760.017	0.2291012
760.203	0.22940344
760.389	0.22969585
760.576	0.22985202
760.762	0.22989367
760.948	0.22974102
761.134	0.22955027
761.32	0.22944085
761.507	0.22940306
761.693	0.22935724
761.879	0.2293523
762.065	0.22940473
762.251	0.22957759
762.437	0.22977507
762.623	0.22988274
762.809	0.23001652
762.995	0.23015865
763.181	0.23036285
763.367	0.23068871
763.553	0.23099088
763.739	0.23125928
763.925	0.23154385
764.111	0.23177529
764.297	0.23202385
764.483	0.23220928
764.669	0.2322508
764.855	0.23227346
765.041	0.23236947
765.227	0.23235486
765.412	0.23230061
765.598	0.23228012
765.784	0.23247878
765.97	0.23270477
766.156	0.23301544
766.341	0.23321745
766.527	0.23353737
766.713	0.23397406
766.898	0.23441036
767.084	0.23463478
767.27	0.23474882
767.455	0.2349221
767.641	0.23509709
767.827	0.23534527
768.012	0.23557156
768.198	0.23578764
768.383	0.23598245
768.569	0.23629798
768.754	0.23658565
768.94	0.23694102
769.125	0.23718929
769.311	0.23732963
769.496	0.23747393
769.682	0.23774157
769.867	0.23801321
770.052	0.23820216
770.238	0.23834602
770.423	0.23850503
770.608	0.23873724
770.794	0.23894443
770.979	0.23902125
771.164	0.23908371
771.35	0.23908679
771.535	0.23919045
771.72	0.23922507
771.905	0.23933989
772.09	0.23944806
772.276	0.23971162
772.461	0.23996371
772.646	0.24030895
772.831	0.24053873
773.016	0.24097978
773.201	0.24131465
773.386	0.24176327
773.571	0.24197728
773.756	0.24216612
773.941	0.24228751
774.126	0.24249434
774.311	0.24264109
774.496	0.24279004
774.681	0.24279785
774.866	0.24298041
775.051	0.24322743
775.236	0.2435121
775.421	0.24373392
775.606	0.24394169
775.791	0.24413589
775.976	0.24439247
776.16	0.24459318
776.345	0.24475288
776.53	0.24483193
776.715	0.2450066
776.899	0.24513074
777.084	0.24536724
777.269	0.24556443
777.454	0.24575698
777.638	0.24594021
777.823	0.24619377
778.008	0.24630707
778.192	0.24641214
778.377	0.24638641
778.561	0.24643242
778.746	0.24648015
778.931	0.24660916
779.115	0.24669127
779.3	0.24682016
779.484	0.24701
779.669	0.24733004
779.853	0.24760467
780.037	0.24794124
780.222	0.24814497
780.406	0.24832263
780.591	0.24844452
780.775	0.24852917
780.959	0.2485156
781.144	0.24843501
781.328	0.24829051
781.512	0.24816813
781.697	0.24817451
781.881	0.24816081
782.065	0.24806473
782.249	0.2478476
782.434	0.24778752
782.618	0.24769796
782.802	0.24772821
782.986	0.24770724
783.17	0.2477423
783.354	0.24784874
783.539	0.24807024
783.723	0.24827321
783.907	0.24866806
784.091	0.24895516
784.275	0.24929011
784.459	0.24957946
784.643	0.24986335
784.827	0.25007501
785.011	0.25027395
785.195	0.25032796
785.379	0.25042337
785.563	0.25042638
785.747	0.25047412
785.93	0.250573
786.114	0.25062698
786.298	0.25067959
786.482	0.25077335
786.666	0.2508573
786.85	0.25096238
787.033	0.25111141
787.217	0.25130959
787.401	0.25162599
787.585	0.25192795
787.768	0.25215307
787.952	0.25238935
788.136	0.25260193
788.319	0.25285384
788.503	0.25302172
788.687	0.25328942
788.87	0.25349886
789.054	0.25384165
789.237	0.25414156
789.421	0.25442738
789.605	0.2546668
789.788	0.25493314
789.972	0.2551315
790.155	0.25530401
790.338	0.25543326
790.522	0.25561227
790.705	0.25580861
790.889	0.25597662
791.072	0.25618116
791.256	0.25635564
791.439	0.25654568
791.622	0.25668231
791.806	0.25685008
791.989	0.25707221
792.172	0.25739182
792.355	0.25754278
792.539	0.25776877
792.722	0.2579855
792.905	0.25817214
793.088	0.25831006
793.271	0.25857994
793.455	0.25881177
793.638	0.25911984
793.821	0.25925835
794.004	0.25946111
794.187	0.25976639
794.37	0.26011835
794.553	0.26034847
794.736	0.26047492
794.919	0.26061331
795.102	0.26105658
795.285	0.26153628
795.468	0.26197691
795.651	0.26257163
795.834	0.26322735
796.017	0.26398538
796.2	0.26468328
796.383	0.26518178
796.566	0.26564773
796.749	0.26603403
796.931	0.2663012
797.114	0.26637101
797.297	0.26638846
797.48	0.26641836
797.663	0.26642859
797.845	0.26641535
798.028	0.26644422
798.211	0.26650757
798.393	0.26667771
798.576	0.26684782
798.759	0.26694537
798.941	0.26712941
799.124	0.2673198
799.307	0.26753274
799.489	0.2676765
799.672	0.26788506
799.854	0.26799205
800.037	0.26818649
800.219	0.26830907
800.402	0.26848996
800.584	0.26865956
800.767	0.26884649
800.949	0.26899421
801.132	0.269289
801.314	0.26971478
801.496	0.27009212
801.679	0.27033453
801.861	0.27047687
802.043	0.27052131
802.226	0.27051721
802.408	0.27051815
802.59	0.27051134
802.772	0.27060642
802.955	0.27085191
803.137	0.27112757
803.319	0.27148136
803.501	0.27181757
803.684	0.27214763
803.866	0.27237278
804.048	0.27258768
804.23	0.27271873
804.412	0.27287905
804.594	0.27295619
804.776	0.27321684
804.958	0.27344473
805.14	0.27364484
805.322	0.27369347
805.504	0.27382011
805.686	0.2739076
805.868	0.27396
806.05	0.2739264
806.232	0.27395023
806.414	0.27411979
806.596	0.2743416
806.778	0.27440364
806.96	0.27458475
807.141	0.2748341
807.323	0.27498173
807.505	0.27498654
807.687	0.27488187
807.869	0.27469834
808.05	0.27451056
808.232	0.27428999
808.414	0.27397375
808.595	0.27364121
808.777	0.27349759
808.959	0.27346863
809.14	0.27349088
809.322	0.27365522
809.504	0.27371377
809.685	0.27390988
809.867	0.27404897
810.048	0.27405033
810.23	0.27395207
810.411	0.2738837
810.593	0.27381908
810.774	0.27382507
810.956	0.273821
811.137	0.27396276
811.319	0.27419269
811.5	0.27440323
811.681	0.27467863
811.863	0.27476334
812.044	0.27486301
812.225	0.27501229
812.407	0.27492538
812.588	0.27472795
812.769	0.27458017
812.951	0.27442173
813.132	0.27443363
813.313	0.27451867
813.494	0.27451891
813.675	0.27468969
813.857	0.27501775
814.038	0.27542652
814.219	0.27570352
814.4	0.27593724
814.581	0.27622815
814.762	0.27646506
814.943	0.27671697
815.124	0.27679989
815.305	0.27677035
815.486	0.27682415
815.667	0.27684966
815.848	0.27674524
816.029	0.27666422
816.21	0.27673162
816.391	0.27696238
816.572	0.27701928
816.753	0.27720447
816.934	0.27738557
817.115	0.27756641
817.295	0.2777991
817.476	0.27779866
817.657	0.27775526
817.838	0.27807833
818.019	0.27828955
818.199	0.27853459
818.38	0.27871598
818.561	0.27897203
818.741	0.27930372
818.922	0.27962929
819.103	0.27991123
819.283	0.28016697
819.464	0.28049179
819.645	0.28090987
819.825	0.281213
820.006	0.28159008
820.186	0.2819372
820.367	0.28220899
820.547	0.28249839
820.728	0.2826926
820.908	0.28269098
821.089	0.28278723
821.269	0.28277482
821.45	0.28282282
821.63	0.28278723
821.81	0.28277352
821.991	0.28279192
822.171	0.28297454
822.351	0.28314732
822.532	0.28335236
822.712	0.28349964
822.892	0.28372752
823.072	0.28395558
823.253	0.28422289
823.433	0.28439194
823.613	0.2845669
823.793	0.28483676
823.973	0.28517722
824.154	0.28540853
824.334	0.28574873
824.514	0.28607095
824.694	0.28648859
824.874	0.28679649
825.054	0.28710705
825.234	0.28725136
825.414	0.28732423
825.594	0.28735283
825.774	0.28725992
825.954	0.28714962
826.134	0.2871152
826.314	0.28697539
826.494	0.28691398
826.674	0.28692819
826.854	0.28690386
827.033	0.2870204
827.213	0.28735948
827.393	0.28754623
827.573	0.28782252
827.753	0.28803875
827.932	0.28841661
828.112	0.28887304
828.292	0.28929731
828.472	0.28923803
828.651	0.28939166
828.831	0.28943952
829.011	0.28953018
829.19	0.2894109
829.37	0.28939324
829.549	0.28937062
829.729	0.28954095
829.909	0.28965642
830.088	0.28975686
830.268	0.2899322
830.447	0.29026157
830.627	0.29045827
830.806	0.29060414
830.986	0.29078537
831.165	0.29086545
831.344	0.29101513
831.524	0.29100066
831.703	0.29095527
831.883	0.29086472
832.062	0.29090076
832.241	0.29103892
832.421	0.29130132
832.6	0.29154269
832.779	0.29186701
832.958	0.29209627
833.138	0.29218753
833.317	0.29229284
833.496	0.29223707
833.675	0.29228397
833.854	0.29232381
834.034	0.29226871
834.213	0.29217074
834.392	0.2923254
834.571	0.29232595
834.75	0.29239264
834.929	0.2922925
835.108	0.29218738
835.287	0.29226676
835.466	0.29240074
835.645	0.2925603
835.824	0.29273106
836.003	0.29288836
836.182	0.29309297
836.361	0.29328584
836.54	0.29333034
836.719	0.29354628
836.897	0.29348937
837.076	0.29352224
837.255	0.29355811
837.434	0.29360174
837.613	0.29363323
837.791	0.29362828
837.97	0.29352862
838.149	0.29345253
838.328	0.2933648
838.506	0.29326465
838.685	0.29313025
838.864	0.2930828
839.042	0.29315827
839.221	0.29332391
839.4	0.29364515
839.578	0.29397793
839.757	0.29437275
839.935	0.2947451
840.114	0.29491534
840.292	0.29493537
840.471	0.29493459
840.649	0.29480414
840.828	0.29470436
841.006	0.29451629
841.185	0.29426525
841.363	0.29440276
841.541	0.29460379
841.72	0.2948405
841.898	0.29516194
842.076	0.29543861
842.255	0.29568454
842.433	0.29609975
842.611	0.29619932
842.789	0.29633152
842.968	0.29650976
843.146	0.29655526
843.324	0.29655092
843.502	0.29665192
843.68	0.29675119
843.859	0.29677305
844.037	0.2966797
844.215	0.29638773
844.393	0.29621939
844.571	0.29596907
844.749	0.29579963
844.927	0.29551484
845.105	0.29538933
845.283	0.2954075
845.461	0.2955313
845.639	0.295501
845.817	0.29559552
845.995	0.29568613
846.173	0.29585552
846.351	0.29578774
846.529	0.29564911
846.706	0.2954775
846.884	0.29552692
847.062	0.2954359
847.24	0.29539698
847.418	0.29531481
847.595	0.29545109
847.773	0.29564655
847.951	0.29571001
848.129	0.29553249
848.306	0.29553286
848.484	0.29530701
848.662	0.29517834
848.839	0.29497353
849.017	0.29469373
849.194	0.29448555
849.372	0.29452378
849.549	0.29446827
849.727	0.29465303
849.905	0.29464946
850.082	0.29489045
850.26	0.29519948
850.437	0.29549497
850.614	0.29579388
850.792	0.29595911
850.969	0.29610835
851.147	0.29619576
851.324	0.29615265
851.501	0.29616836
851.679	0.29616571
851.856	0.29604833
852.033	0.29631009
852.211	0.29635956
852.388	0.29648871
852.565	0.2966243
852.742	0.29676822
852.92	0.2968879
853.097	0.29698137
853.274	0.29690143
853.451	0.29679951
853.628	0.2967275
853.805	0.29656933
853.982	0.29630403
854.159	0.29600507
854.336	0.29579439
854.514	0.2955602
854.691	0.2954503
854.868	0.29551493
855.045	0.29566903
855.221	0.29592709
855.398	0.29609992
855.575	0.29616276
855.752	0.29622021
855.929	0.2963516
856.106	0.29616428
856.283	0.29588331
856.46	0.29558469
856.637	0.29556126
856.813	0.29536356
856.99	0.29519339
857.167	0.29490145
857.344	0.2948467
857.52	0.2948541
857.697	0.2947109
857.874	0.29444381
858.05	0.29459397
858.227	0.29454508
858.404	0.29459427
858.58	0.29459087
858.757	0.29455163
858.933	0.29464765
859.11	0.29471454
859.287	0.29444104
859.463	0.29436462
859.64	0.294374
859.816	0.29425344
859.993	0.29417089
860.169	0.29412522
860.345	0.29401147
860.522	0.29412587
860.698	0.29418568
860.875	0.29421659
861.051	0.29445786
861.227	0.29464634
861.404	0.29481831
861.58	0.29502262
861.756	0.29502813
861.932	0.29510755
862.109	0.29493993
862.285	0.29464108
862.461	0.29449591
862.637	0.29418991
862.813	0.29393404
862.99	0.29373711
863.166	0.2933799
863.342	0.29328696
863.518	0.29300183
863.694	0.29275392
863.87	0.29247787
864.046	0.2922592
864.222	0.29203523
864.398	0.29195113
864.574	0.291685
864.75	0.29174895
864.926	0.29166593
865.102	0.29170419
865.278	0.29151134
865.454	0.291464
865.63	0.29132097
865.805	0.29128223
865.981	0.29126875
866.157	0.29129217
866.333	0.29126919
866.509	0.29144076
866.684	0.29149303
866.86	0.29182351
867.036	0.29183096
867.212	0.29150135
867.387	0.29136034
867.563	0.29119444
867.739	0.29105606
867.914	0.29091509
868.09	0.29044477
868.265	0.29013834
868.441	0.29005424
868.617	0.28989745
868.792	0.28986386
868.968	0.28974449
869.143	0.28970557
869.319	0.28972091
869.494	0.28973035
869.67	0.28975953
869.845	0.28960999
870.02	0.28946247
870.196	0.2894201
870.371	0.28931837
870.546	0.28917767
870.722	0.28926522
870.897	0.2892193
871.072	0.28915697
871.248	0.28894898
871.423	0.28878982
871.598	0.28864444
871.773	0.28844602
871.949	0.28822221
872.124	0.28802853
872.299	0.28778498
872.474	0.28774895
872.649	0.2876513
872.824	0.28742063
872.999	0.28751089
873.174	0.28751424
873.349	0.287474
873.524	0.28732508
873.699	0.28720455
873.874	0.2868644
874.049	0.28671892
874.224	0.28614106
874.399	0.28550301
874.574	0.28519551
874.749	0.28494403
874.924	0.28447132
875.099	0.28423279
875.274	0.2840094
875.449	0.28412483
875.623	0.28407127
875.798	0.28369307
875.973	0.28351806
876.148	0.28331681
876.322	0.2831639
876.497	0.28291843
876.672	0.28249715
876.846	0.28233363
877.021	0.28212048
877.196	0.28176308
877.37	0.28181893
877.545	0.2817801
877.72	0.28151294
877.894	0.28146345
878.069	0.28126971
878.243	0.28114139
878.418	0.28113357
878.592	0.28098217
878.767	0.28076619
878.941	0.28087347
879.116	0.280812
879.29	0.28092297
879.464	0.28100019
879.639	0.28102868
879.813	0.28107677
879.987	0.28111811
880.162	0.28110715
880.336	0.28112834
880.51	0.28106708
880.685	0.28116018
880.859	0.28110155
881.033	0.28079264
881.207	0.28042464
881.381	0.28016356
881.556	0.27979229
881.73	0.27952911
881.904	0.27934595
882.078	0.27914078
882.252	0.27894342
882.426	0.27885253
882.6	0.27859268
882.774	0.27851773
882.948	0.27820565
883.122	0.27765683
883.296	0.27719677
883.47	0.27698532
883.644	0.27674362
883.818	0.27644758
883.992	0.27632496
884.166	0.27636688
884.34	0.27641593
884.514	0.2766048
884.687	0.27661242
884.861	0.27658492
885.035	0.2766556
885.209	0.27633873
885.382	0.27595707
885.556	0.27562006
885.73	0.27534339
885.904	0.27496497
886.077	0.27458592
886.251	0.27426246
886.425	0.27407539
886.598	0.27377386
886.772	0.27354138
886.945	0.27306534
887.119	0.2729203
887.292	0.2727171
887.466	0.27269284
887.64	0.27250981
887.813	0.27247229
887.986	0.27232628
888.16	0.27239835
888.333	0.27199297
888.507	0.27183058
888.68	0.27154982
888.854	0.27129996
889.027	0.27102752
889.2	0.27098892
889.374	0.27064122
889.547	0.27073687
889.72	0.27069742
889.893	0.27037715
890.067	0.27026023
890.24	0.26995639
890.413	0.26954244
890.586	0.26929374
890.759	0.26900103
890.933	0.268626
891.106	0.26838509
891.279	0.26816168
891.452	0.2679336
891.625	0.26773709
891.798	0.26773927
891.971	0.2675799
892.144	0.26751631
892.317	0.26762099
892.49	0.2674128
892.663	0.26743539
892.836	0.26742508
893.009	0.26728593
893.182	0.26697686
893.355	0.26682715
893.527	0.26660154
893.7	0.26667584
893.873	0.26664944
894.046	0.26638544
894.219	0.26617038
894.391	0.26615788
894.564	0.26597227
894.737	0.26564101
894.91	0.26534973
895.082	0.26492134
895.255	0.26467824
895.428	0.26432825
895.6	0.26382301
895.773	0.26319448
895.945	0.26278682
896.118	0.26234743
896.291	0.26201864
896.463	0.26176085
896.636	0.26145962
896.808	0.2611491
896.981	0.26092271
897.153	0.26054207
897.326	0.26001697
897.498	0.25955377
897.67	0.25916322
897.843	0.25882498
898.015	0.25876129
898.187	0.25860154
898.36	0.25822888
898.532	0.25799746
898.704	0.25791086
898.877	0.25753179
899.049	0.25723135
899.221	0.25679686
899.393	0.25648551
899.566	0.25636515
899.738	0.25619608
899.91	0.2557117
900.082	0.2553827
900.254	0.25497165
900.426	0.25467053
900.598	0.25443733
900.77	0.25411075
900.942	0.25392132
901.114	0.25398943
901.286	0.25412145
901.458	0.25427346
901.63	0.25431999
901.802	0.25445799
901.974	0.25458128
902.146	0.25447428
902.318	0.25427517
902.49	0.25390887
902.662	0.25357123
902.834	0.25325582
903.005	0.25283021
903.177	0.2523149
903.349	0.25202176
903.521	0.25157132
903.693	0.25125591
903.864	0.25093325
904.036	0.25058567
904.208	0.25018922
904.379	0.24993628
904.551	0.2496863
904.723	0.24945127
904.894	0.24909934
905.066	0.24890087
905.237	0.24864956
905.409	0.24841356
905.58	0.24835308
905.752	0.24800301
905.923	0.24768945
906.095	0.24744474
906.266	0.24707778
906.438	0.24670705
906.609	0.24639421
906.78	0.24588981
906.952	0.24576596
907.123	0.24557944
907.295	0.24574017
907.466	0.24589523
907.637	0.24598826
907.808	0.24583071
907.98	0.24578274
908.151	0.24543345
908.322	0.24540833
908.493	0.24497468
908.665	0.24451202
908.836	0.24407018
909.007	0.24382438
909.178	0.24333601
909.349	0.24314665
909.52	0.24280727
909.691	0.24233303
909.862	0.24194263
910.033	0.24147876
910.204	0.24119115
910.375	0.24114013
910.546	0.24095205
910.717	0.24048227
910.888	0.24039264
911.059	0.24011917
911.23	0.24003354
911.401	0.23976606
911.572	0.23927579
911.742	0.23882564
911.913	0.23851946
912.084	0.23806363
912.255	0.23779657
912.426	0.23734855
912.596	0.23672697
912.767	0.23642054
912.938	0.23600384
913.108	0.2356974
913.279	0.23535136
913.45	0.23489671
913.62	0.23460645
913.791	0.23448963
913.962	0.23424968
914.132	0.23392189
914.303	0.2336231
914.473	0.23337384
914.644	0.23311177
914.814	0.23288626
914.985	0.23287341
915.155	0.23273262
915.326	0.23261585
915.496	0.23246486
915.666	0.23236716
915.837	0.23240653
916.007	0.23194885
916.177	0.23120425
916.348	0.23063246
916.518	0.23014528
916.688	0.22970994
916.858	0.22920222
917.029	0.22873342
917.199	0.22875201
917.369	0.22897482
917.539	0.22912713
917.709	0.22911784
917.88	0.22908515
918.05	0.22908676
918.22	0.22898594
918.39	0.22863244
918.56	0.22828178
918.73	0.22806904
918.9	0.22790296
919.07	0.22771377
919.24	0.22760889
919.41	0.22736531
919.58	0.22717351
919.75	0.22696699
919.92	0.22651704
920.09	0.22630095
920.26	0.22594572
920.429	0.22552148
920.599	0.22504801
920.769	0.22485588
920.939	0.22438938
921.109	0.2241665
921.278	0.22370726
921.448	0.2233759
921.618	0.22310444
921.787	0.22295572
921.957	0.22257518
922.127	0.22233332
922.296	0.22207537
922.466	0.22172888
922.636	0.22149805
922.805	0.22104339
922.975	0.22051638
923.144	0.22010437
923.314	0.21972192
923.483	0.21923213
923.653	0.21899873
923.822	0.2185805
923.992	0.2183993
924.161	0.21817753
924.331	0.21792614
924.5	0.21759904
924.669	0.21726963
924.839	0.21685198
925.008	0.21639899
925.177	0.21570974
925.347	0.21536922
925.516	0.21510694
925.685	0.21490243
925.854	0.21478554
926.023	0.21458797
926.193	0.21461488
926.362	0.21460041
926.531	0.21447757
926.7	0.21414126
926.869	0.21390347
927.038	0.21334098
927.207	0.21303927
927.376	0.21252582
927.545	0.21215866
927.715	0.21186537
927.884	0.21163666
928.052	0.21128059
928.221	0.21086937
928.39	0.21042259
928.559	0.21017331
928.728	0.2101237
928.897	0.21003517
929.066	0.20997388
929.235	0.20974817
929.404	0.20984491
929.572	0.20972784
929.741	0.20966947
929.91	0.2092214
930.079	0.20859236
930.247	0.20827918
930.416	0.20807244
930.585	0.20783147
930.753	0.20772642
930.922	0.20750742
931.091	0.20744183
931.259	0.20742331
931.428	0.20704342
931.596	0.2068135
931.765	0.20666877
931.934	0.2063099
932.102	0.20561167
932.27	0.20530153
932.439	0.2047714
932.607	0.20437299
932.776	0.20413841
932.944	0.20371787
933.113	0.20337456
933.281	0.20341607
933.449	0.2029974
933.618	0.20270327
933.786	0.20249143
933.954	0.20197558
934.123	0.20162885
934.291	0.20140023
934.459	0.20110382
934.627	0.20084397
934.795	0.20075718
934.964	0.20045233
935.132	0.20020719
935.3	0.19992626
935.468	0.1996059
935.636	0.1993318
935.804	0.19915129
935.972	0.19893609
936.14	0.1989552
936.308	0.19908716
936.476	0.19922829
936.644	0.19924257
936.812	0.19936552
936.98	0.19944917
937.148	0.19944195
937.316	0.19921386
937.484	0.19937116
937.652	0.19905882
937.82	0.19966749
937.987	0.19945235
938.155	0.19928961
938.323	0.19930646
938.491	0.19873974
938.658	0.19881985
938.826	0.19891246
938.994	0.19826857
939.162	0.19828308
939.329	0.19846998
939.497	0.19899496
939.665	0.19989267
939.832	0.20029022
940	0.20100712
940.167	0.20147205
940.335	0.20163104
940.502	0.20194035
940.67	0.20174453
940.837	0.20269691
941.005	0.20209062
941.172	0.20137893
941.34	0.20159254
941.507	0.20288045
941.674	0.2032759
941.842	0.20383717
942.009	0.20362202
942.177	0.20302763
942.344	0.20428187
942.511	0.20397277
942.678	0.20348114
942.846	0.20261361
943.013	0.2024
943.18	0.2023745
943.347	0.20333779
943.514	0.20307299
943.682	0.20449418
943.849	0.20307411
944.016	0.2032804
944.183	0.20232622
944.35	0.20179144
944.517	0.20131692
944.684	0.20079689
944.851	0.19707137
945.018	0.19683756
945.185	0.19626111
945.352	0.19653954
945.519	0.19599439
945.686	0.19550703
945.853	0.19612619
946.02	0.19614509
946.187	0.19584196
946.353	0.19631232
946.52	0.19586708
946.687	0.19509677
946.854	0.19512898
947.021	0.19412823
947.187	0.19433378
947.354	0.19403269
947.521	0.19314586
947.687	0.19196143
947.854	0.19142726
948.021	0.18989102
948.187	0.18875087
948.354	0.18879504
948.52	0.18820244
948.687	0.18730116
948.854	0.18701646
949.02	0.18564764
949.187	0.18553307
949.353	0.18557209
949.52	0.18394393
949.686	0.18349877
949.852	0.18349114
950.019	0.18350081
950.185	0.1842641
950.352	0.18270625
950.518	0.18074471
950.684	0.18053603
950.851	0.1801085
951.017	0.17853756
951.183	0.17758352
951.349	0.17670997
951.516	0.17585213
951.682	0.17638535
951.848	0.17576371
952.014	0.17482292
952.18	0.17499632
952.346	0.17418516
952.512	0.17338397
952.679	0.17366692
952.845	0.17279369
953.011	0.17209572
953.177	0.17178697
953.343	0.17096859
953.509	0.17090109
953.675	0.17080943
953.841	0.17051353
954.007	0.17036878
954.172	0.17055972
954.338	0.17003071
954.504	0.16971149
954.67	0.1681145
954.836	0.16748328
955.002	0.16729298
955.167	0.1666935
955.333	0.1654527
955.499	0.16480828
955.665	0.16362197
955.83	0.16403838
955.996	0.16364241
956.162	0.16272075
956.327	0.16169222
956.493	0.16145344
956.659	0.1615404
956.824	0.16105666
956.99	0.16023268
957.155	0.1596606
957.321	0.15935269
957.486	0.15973083
957.652	0.15925806
957.817	0.15874181
957.983	0.15862397
958.148	0.15875639
958.314	0.15866586
958.479	0.15791829
958.644	0.15728211
958.81	0.15732683
958.975	0.15711018
959.14	0.15729436
959.306	0.15674747
959.471	0.15637963
959.636	0.15632535
959.801	0.15671755
959.967	0.1562616
960.132	0.15634678
960.297	0.15589446
960.462	0.15588107
960.627	0.15557099
960.792	0.15515059
960.957	0.15449208
961.123	0.15459893
961.288	0.15390788
961.453	0.15412608
961.618	0.1538344
961.783	0.1536443
961.948	0.15357418
962.113	0.15291896
962.277	0.15242486
962.442	0.15223603
962.607	0.15161675
962.772	0.15107429
962.937	0.15061103
963.102	0.15048511
963.267	0.15025313
963.431	0.15024998
963.596	0.14966474
963.761	0.14905272
963.926	0.14894852
964.09	0.14876621
964.255	0.14830192
964.42	0.14811203
964.584	0.14741876
964.749	0.14742321
964.914	0.1468869
965.078	0.14627953
965.243	0.14547232
965.407	0.14491262
965.572	0.1442833
965.736	0.14415544
965.901	0.1440166
966.065	0.14429327
966.23	0.14407307
966.394	0.14436268
966.559	0.14428071
966.723	0.14448764
966.887	0.14411003
967.052	0.14376109
967.216	0.14342393
967.38	0.14301286
967.545	0.1427813
967.709	0.14268042
967.873	0.14233419
968.037	0.14225125
968.202	0.14193721
968.366	0.14169581
968.53	0.14162278
968.694	0.14135824
968.858	0.14114354
969.022	0.14076514
969.187	0.14049837
969.351	0.14038896
969.515	0.14037276
969.679	0.14004155
969.843	0.13956359
970.007	0.13932642
970.171	0.13939737
970.335	0.13919798
970.499	0.13865324
970.662	0.13825213
970.826	0.13815724
970.99	0.13820707
971.154	0.13791408
971.318	0.13738595
971.482	0.13668575
971.645	0.13650795
971.809	0.13639735
971.973	0.13608611
972.137	0.13535123
972.3	0.13488311
972.464	0.1345567
972.628	0.13482118
972.791	0.1345094
972.955	0.13378126
973.119	0.13334442
973.282	0.13313906
973.446	0.13305757
973.609	0.13294267
973.773	0.13263452
973.936	0.13223757
974.1	0.13209862
974.263	0.13224188
974.427	0.1322521
974.59	0.13186925
974.754	0.13165764
974.917	0.1315843
975.08	0.1316081
975.244	0.13124219
975.407	0.13109748
975.57	0.1310311
975.734	0.13085766
975.897	0.13070029
976.06	0.13049772
976.223	0.13019438
976.387	0.13051284
976.55	0.13008899
976.713	0.1298266
976.876	0.129642
977.039	0.129011
977.202	0.12846918
977.365	0.12800946
977.528	0.1272992
977.692	0.12701627
977.855	0.12651319
978.018	0.12612906
978.181	0.12609479
978.344	0.12602404
978.506	0.12562538
978.669	0.12557168
978.832	0.12524331
978.995	0.12480456
979.158	0.12471849
979.321	0.12409648
979.484	0.123543
979.646	0.12358621
979.809	0.12353743
979.972	0.12325703
980.135	0.12363659
980.297	0.12367635
980.46	0.12396594
980.623	0.12416589
980.786	0.1242678
980.948	0.12378202
981.111	0.12366632
981.273	0.12317318
981.436	0.1227293
981.599	0.12253265
981.761	0.12180535
981.924	0.12189215
982.086	0.12227083
982.249	0.1223446
982.411	0.1224249
982.573	0.12224883
982.736	0.12233535
982.898	0.12252468
983.061	0.12205191
983.223	0.12169514
983.385	0.12149475
983.548	0.12198948
983.71	0.1223711
983.872	0.12242419
984.034	0.122104
984.197	0.12167229
984.359	0.12138741
984.521	0.12135056
984.683	0.12049191
984.845	0.11995822
985.008	0.1191981
985.17	0.11960126
985.332	0.11946838
985.494	0.11910207
985.656	0.11902554
985.818	0.11858065
985.98	0.11833784
986.142	0.11801118
986.304	0.11784107
986.466	0.11766997
986.628	0.11718561
986.79	0.11634111
986.952	0.11576912
987.113	0.11537567
987.275	0.11500125
987.437	0.1141319
987.599	0.11371065
987.761	0.11362577
987.922	0.11346014
988.084	0.11349466
988.246	0.11354474
988.408	0.1137761
988.569	0.11407204
988.731	0.11418
988.893	0.11462666
989.054	0.11488116
989.216	0.11487636
989.377	0.11425749
989.539	0.11401018
989.701	0.11316863
989.862	0.11276521
990.024	0.11159564
990.185	0.11101988
990.347	0.11110057
990.508	0.1109068
990.669	0.11058904
990.831	0.11080953
990.992	0.11100312
991.154	0.11109327
991.315	0.11162712
991.476	0.11119975
991.638	0.11145438
991.799	0.11151938
991.96	0.11122932
992.121	0.11081453
992.283	0.11056941
992.444	0.10981342
992.605	0.10934493
992.766	0.10861176
992.927	0.10815944
993.088	0.10807866
993.249	0.10758575
993.41	0.10768202
993.572	0.10776167
993.733	0.10783961
993.894	0.10735798
994.055	0.10651296
994.216	0.10620344
994.376	0.10568494
994.537	0.10596039
994.698	0.1054776
994.859	0.10503293
995.02	0.10548916
995.181	0.10559191
995.342	0.10562362
995.503	0.10584738
995.663	0.10547429
995.824	0.1053188
995.985	0.10575154
996.146	0.10608558
996.306	0.10643394
996.467	0.10589098
996.628	0.10591786
996.788	0.10592502
996.949	0.10659162
997.11	0.10633627
997.27	0.10554924
997.431	0.10574872
997.591	0.10552248
997.752	0.10542317
997.912	0.10509352
998.073	0.10444014
998.233	0.10473751
998.394	0.1049234
998.554	0.10492128
998.714	0.10526112
998.875	0.10519679
999.035	0.10452398
999.196	0.10470665
999.356	0.10437981
999.516	0.10452184
999.676	0.10406848
999.837	0.10413836
999.997	0.10379791
1000.157	0.10402997
1000.317	0.10285495
1000.477	0.10194917
1000.638	0.10144228
1000.798	0.10158963
1000.958	0.10127904
1001.118	0.10132968
1001.278	0.10057796
1001.438	0.10033295
1001.598	0.09994435
1001.758	0.09980048
1001.918	0.09886617
1002.078	0.09825687
1002.238	0.09800556
1002.398	0.09837415
1002.558	0.09894566
1002.718	0.09879649
1002.878	0.09883496
1003.037	0.09840093
1003.197	0.09876932
1003.357	0.09826117
1003.517	0.09846692
1003.677	0.09780497
1003.836	0.09787837
1003.996	0.09711608
1004.156	0.09721832
1004.315	0.09649271
1004.475	0.09658027
1004.635	0.09572107
1004.794	0.0963398
1004.954	0.09652284
1005.114	0.09614086
1005.273	0.09557213
1005.433	0.09526977
1005.592	0.09471858
1005.752	0.09501511
1005.911	0.09452867
1006.071	0.09427176
1006.23	0.09398906
1006.389	0.09429678
1006.549	0.09413996
1006.708	0.09419847
1006.868	0.09252721
1007.027	0.0923836
1007.186	0.09211108
1007.345	0.09300667
1007.505	0.09287752
1007.664	0.09265756
1007.823	0.09256345
1007.982	0.09373654
1008.142	0.09335797
1008.301	0.09327168
1008.46	0.09269229
1008.619	0.09250855
1008.778	0.09321952
1008.937	0.0928971
1009.096	0.09237114
1009.255	0.09219009
1009.414	0.09175077
1009.573	0.09208012
1009.732	0.09255895
1009.891	0.09186662
1010.05	0.09248008
1010.209	0.09300147
1010.368	0.0937431
1010.527	0.09344598
1010.686	0.09249671
1010.845	0.09214716
1011.003	0.09145568
1011.162	0.09142782
1011.321	0.09047229
1011.48	0.09052814
1011.638	0.09102939
1011.797	0.09189633
1011.956	0.09131872
1012.115	0.09234046
1012.273	0.09190575
1012.432	0.09259482
1012.59	0.0906542
1012.749	0.08986685
1012.908	0.0885647
1013.066	0.08960998
1013.225	0.08820528
1013.383	0.08831819
1013.542	0.08784553
1013.7	0.08893704
1013.859	0.090326
1014.017	0.09049606
1014.175	0.08927165
1014.334	0.09072684
1014.492	0.09146986
1014.65	0.09194281
1014.809	0.09160659
1014.967	0.09126114
1015.125	0.09303129
1015.284	0.09373119
1015.442	0.09381173
1015.6	0.09331826
1015.758	0.09263887
1015.916	0.09223443
1016.075	0.09202208
1016.233	0.09031958
1016.391	0.09035916
1016.549	0.09011403
1016.707	0.08985847
1016.865	0.09085779
1017.023	0.0901894
1017.181	0.08970704
1017.339	0.09040091
1017.497	0.09025728
1017.655	0.08980854
1017.813	0.08936417
1017.971	0.0887891
1018.129	0.08902555
1018.286	0.08977384
1018.444	0.08904612
1018.602	0.08956534
1018.76	0.08863025
1018.918	0.08933183
1019.075	0.08958014
1019.233	0.09112259
1019.391	0.09051149
1019.549	0.09127058
1019.706	0.09213815
1019.864	0.09376525
1020.022	0.09232377
1020.179	0.09279449
1020.337	0.09237555
1020.494	0.09145683
1020.652	0.09116805
1020.809	0.09042441
1020.967	0.0893154
1021.124	0.09051214
1021.282	0.09080452
1021.439	0.09074889
1021.597	0.0935665
1021.754	0.09278444
1021.911	0.09245225
1022.069	0.09347417
1022.226	0.09343241
1022.384	0.09125582
1022.541	0.09024158
1022.698	0.08936919
1022.855	0.09053836
1023.013	0.09180048
1023.17	0.09086857
1023.327	0.09162145
1023.484	0.09463687
1023.641	0.09611226
1023.798	0.09675595
1023.956	0.09842278
1024.113	0.09733349
1024.27	0.0996459
1024.427	0.09909006
1024.584	0.09731242
1024.741	0.0964711
1024.898	0.09606135
1025.055	0.09370644
1025.212	0.09262479
1025.369	0.08763757
1025.525	0.08744889
1025.682	0.08828361
1025.839	0.08778024
1025.996	0.08812647
1026.153	0.08985779
1026.31	0.09123618
1026.466	0.09555985
1026.623	0.09755561
1026.78	0.09703198
1026.937	0.09896636
1027.093	0.09779258
1027.25	0.09833765
1027.407	0.09861767
1027.563	0.09710379
1027.72	0.09549305
1027.876	0.09654767
1028.033	0.09659217
1028.19	0.09546086
1028.346	0.09368892
1028.503	0.09296901
1028.659	0.09481095
1028.816	0.09553652
1028.972	0.09784791
1029.128	0.0979603
1029.285	0.09978427
1029.441	0.1009384
1029.598	0.1011577
1029.754	0.10188576
1029.91	0.10375435
1030.067	0.10167409
1030.223	0.10284918
1030.379	0.1025861
1030.535	0.1037921
1030.691	0.10360333
1030.848	0.10364739
1031.004	0.09773992
1031.16	0.09762756
1031.316	0.09995303
1031.472	0.10254747
1031.628	0.10051764
1031.784	0.10200749
1031.94	0.10554935
1032.096	0.1138688
1032.252	0.11648174
1032.408	0.11758039
1032.564	0.11609395
1032.72	0.11968405
1032.876	0.11865295
1033.032	0.11392807
1033.188	0.11169712
1033.344	0.10967943
1033.5	0.10616482
1033.655	0.10665714
1033.811	0.10497263
1033.967	0.10627118
